key_resp_4.keys,key_resp_4.rt,身分證字號,date,expName,psychopyVersion,OS,frameRate,mouse_2.x,mouse_2.y,mouse_2.leftButton,mouse_2.midButton,mouse_2.rightButton,mouse_2.time,cont.keys,cont.rt,retry_testing.thisRepN,retry_testing.thisTrialN,retry_testing.thisN,retry_testing.thisIndex,retry_testing.ran,key_resp.keys,key_resp.rt,key_resp_3.keys,key_resp_3.rt,from,to,w,a,sequence_loop.thisN,mouse.x,mouse.y,mouse.leftButton,mouse.midButton,mouse.rightButton,mouse.time,key_resp_2.keys,trial_loop.thisRepN,trial_loop.thisTrialN,trial_loop.thisN,trial_loop.thisIndex,trial_loop.ran,sequence_loop.thisRepN,sequence_loop.thisTrialN,sequence_loop.thisIndex,sequence_loop.ran
return,1.5988,123,2024-08-05_15h30.14.246,GoFitts,2022.2.4,Win32,59.88023952,,,,,,,,,,,,,,,,,,,,,,,,,,,,,,,,,,,,,,
,,123,2024-08-05_15h30.14.246,GoFitts,2022.2.4,Win32,59.88023952,"[-152.6666259765625,-152.6666259765625,-152.6666259765625,-152.6666259765625,-152.6666259765625,-152.6666259765625,-152.6666259765625,-152.6666259765625,-152.6666259765625,-152.6666259765625,-152.6666259765625,-152.6666259765625,-152.6666259765625,-152.6666259765625,-152.6666259765625,-152.6666259765625,-152.6666259765625,-152.6666259765625,-152.6666259765625,-152.6666259765625,-152.6666259765625,-152.6666259765625,-152.6666259765625,-152.6666259765625,-150.6666259765625,-150,-150,-150,-134,-103.333251953125,-68,-42.6666259765625,-20,2.666748046875,28,54.666748046875,78,116.666748046875,142,164,180.666748046875,194.666748046875,208.666748046875,225.3333740234375,238,249.3333740234375,264.666748046875,276,286,304,320.666748046875,338.666748046875,351.3333740234375,360,367.3333740234375,370.666748046875,371.3333740234375,371.3333740234375,371.3333740234375,371.3333740234375,370.666748046875,367.3333740234375,364.666748046875,361.3333740234375,357.3333740234375,354,351.3333740234375,350.666748046875,350,349.3333740234375,349.3333740234375,338.666748046875,310,242,184,101.3333740234375,33.3333740234375,-9.333251953125,-26.6666259765625,-28,-28.6666259765625,-28.6666259765625,-25.333251953125,-22.6666259765625,-21.333251953125,-17.333251953125,-14,-12,-10,-8,-4.6666259765625,-3.333251953125,-3.333251953125,-3.333251953125,-3.333251953125,-3.333251953125,-2.6666259765625,-2,0.666748046875,2,3.3333740234375,3.3333740234375,3.3333740234375,3.3333740234375,0,-11.333251953125,-30,-63.333251953125,-109.333251953125,-172.6666259765625,-208,-242.6666259765625,-269.33331298828125,-288,-300,-311.33331298828125,-322.6666259765625,-334,-345.33331298828125,-354,-356.6666259765625,-357.33331298828125,-357.33331298828125,-357.33331298828125,-357.33331298828125,-357.33331298828125,-357.33331298828125,-357.33331298828125,-358,-359.33331298828125,-360,-359.33331298828125,-347.33331298828125,-332.6666259765625,-303.33331298828125,-245.333251953125,-193.333251953125,-142,-96,-52,-24,-5.333251953125]","[-102,-102,-102,-102,-102,-102,-102,-102,-102,-102,-102,-102,-102,-102,-102,-102,-102,-102,-102,-102,-102,-102,-102,-102,-102,-102,-102,-102,-98,-92,-88,-83.3333740234375,-80,-79.3333740234375,-79.3333740234375,-79.3333740234375,-78,-74.66668701171875,-72.66668701171875,-69.3333740234375,-64,-58,-55.3333740234375,-52,-49.3333740234375,-47.3333740234375,-43.3333740234375,-40,-37.3333740234375,-34.66668701171875,-31.3333740234375,-26,-20,-12.66668701171875,-5.3333740234375,2,6.6666259765625,9.33331298828125,9.33331298828125,10.6666259765625,10.6666259765625,10.6666259765625,10.6666259765625,10,8,6,4,3.33331298828125,2.6666259765625,2.6666259765625,2.6666259765625,19.33331298828125,61.33331298828125,216.66665649414062,308,392.6666564941406,459.33331298828125,496,504.6666564941406,504.6666564941406,504.6666564941406,500.6666564941406,490.6666564941406,478,466.6666564941406,442,424.6666564941406,404.6666564941406,382.6666564941406,364,348.6666564941406,343.33331298828125,342,342,342,338.6666564941406,337.33331298828125,336.6666564941406,336.6666564941406,337.33331298828125,339.33331298828125,340.6666564941406,341.33331298828125,343.33331298828125,343.33331298828125,340,328,301.33331298828125,262,191.33331298828125,144,108,70,38,19.33331298828125,8,2,-0.66668701171875,-2.66668701171875,-4,-4.66668701171875,-5.3333740234375,-6,-6,-6,-6,-6,-6,-7.3333740234375,-8,-9.3333740234375,-11.3333740234375,-22,-34.66668701171875,-60,-106,-154.66668701171875,-198.66668701171875,-242,-282,-310.666748046875,-331.3333740234375]","[0,0,0,0,0,0,0,0,0,0,0,0,0,0,0,0,0,0,0,0,0,0,0,0,0,0,0,0,0,0,0,0,0,0,0,0,0,0,0,0,0,0,0,0,0,0,0,0,0,0,0,0,0,0,0,0,0,0,0,0,0,0,0,0,0,0,0,0,0,0,0,0,0,0,0,0,0,0,0,0,0,0,0,0,0,0,0,0,0,0,0,0,0,0,0,0,0,0,0,0,0,0,0,0,0,0,0,0,0,0,0,0,0,0,0,0,0,0,0,0,0,0,0,0,0,0,0,0,0,0,0,0,0,0,0,0,0,0,0,0,0,0]","[0,0,0,0,0,0,0,0,0,0,0,0,0,0,0,0,0,0,0,0,0,0,0,0,0,0,0,0,0,0,0,0,0,0,0,0,0,0,0,0,0,0,0,0,0,0,0,0,0,0,0,0,0,0,0,0,0,0,0,0,0,0,0,0,0,0,0,0,0,0,0,0,0,0,0,0,0,0,0,0,0,0,0,0,0,0,0,0,0,0,0,0,0,0,0,0,0,0,0,0,0,0,0,0,0,0,0,0,0,0,0,0,0,0,0,0,0,0,0,0,0,0,0,0,0,0,0,0,0,0,0,0,0,0,0,0,0,0,0,0,0,0]","[0,0,0,0,0,0,0,0,0,0,0,0,0,0,0,0,0,0,0,0,0,0,0,0,0,0,0,0,0,0,0,0,0,0,0,0,0,0,0,0,0,0,0,0,0,0,0,0,0,0,0,0,0,0,0,0,0,0,0,0,0,0,0,0,0,0,0,0,0,0,0,0,0,0,0,0,0,0,0,0,0,0,0,0,0,0,0,0,0,0,0,0,0,0,0,0,0,0,0,0,0,0,0,0,0,0,0,0,0,0,0,0,0,0,0,0,0,0,0,0,0,0,0,0,0,0,0,0,0,0,0,0,0,0,0,0,0,0,0,0,0,0]","[0.0004999999999997229,0.011699999999255084,0.025500000000000078,0.042399999998510296,0.05989999999851037,0.07579999999702025,0.09289999999850984,0.10889999999850986,0.12559999999776483,0.14250000000000007,0.15889999999850968,0.1757999999970199,0.19229999999701963,0.20879999999702026,0.22550000000000026,0.242,0.2591999999992547,0.2755999999977652,0.2927999999970199,0.3095000000000008,0.32569999999925425,0.34229999999702,0.3590999999977642,0.37569999999925496,0.39289999999850966,0.40929999999702016,0.42559999999776554,0.44279999999702024,0.45919999999925576,0.47589999999850985,0.4925999999977657,0.5093999999985099,0.5257999999970204,0.5424999999999995,0.5590999999977653,0.5757999999970194,0.5926999999992555,0.6093999999985096,0.625699999999255,0.6425999999977643,0.6589999999999998,0.6756999999992557,0.6924999999999999,0.7095999999977645,0.726,0.7423999999985105,0.7592999999970198,0.7757999999970204,0.7926999999992548,0.8095000000000008,0.8255999999977641,0.84229999999702,0.8590000000000009,0.8760999999977654,0.8929999999999998,0.9090999999977649,0.925799999997019,0.942599999997765,0.9592999999970191,0.9757999999970197,0.9925999999977657,1.00939999999851,1.0256999999992553,1.0426999999992548,1.0592999999970205,1.0757999999970194,1.0925000000000002,1.1091999999992543,1.1258999999985102,1.1426999999992544,1.1589999999999998,1.1759999999999993,1.193299999997019,1.2093999999985092,1.2256999999992546,1.2425000000000006,1.2590999999977646,1.2760999999977658,1.2930000000000001,1.309599999997764,1.32629999999702,1.3428999999985107,1.3592999999970194,1.3760999999977654,1.393099999997765,1.4092999999970202,1.4258999999985091,1.442599999997765,1.4590999999977656,1.476,1.4927999999970192,1.5091999999992547,1.5255,1.542199999999256,1.55889999999851,1.5759999999999996,1.5926999999992555,1.6092999999970194,1.62579999999702,1.6425999999977643,1.6593999999985103,1.6758999999985091,1.6923999999985098,1.7090999999977656,1.7256999999992546,1.7425000000000006,1.7590999999977646,1.7758999999985106,1.7931999999992554,1.809599999997764,1.8258999999985095,1.8425000000000002,1.8590999999977642,1.8758999999985102,1.8925999999977643,1.9093999999985103,1.9258999999985091,1.9427999999970202,1.96,1.9758999999985098,1.9928999999985093,2.00929999999702,2.026199999999256,2.042099999997766,2.0590999999977653,2.075599999997764,2.09239999999851,2.1091999999992543,2.1261999999992556,2.142500000000001,2.159,2.1756999999992557,2.1922999999970196,2.2088999999985104,2.2257999999970197,2.2425999999977657,2.25929999999702,2.276099999997766,2.2925999999977646,2.3095000000000008,2.3265000000000002,2.3426999999992555]",return,0.9976,0,0,0,0,1,,,,,,,,,,,,,,,,,,,,,,,,,
,,123,2024-08-05_15h30.14.246,GoFitts,2022.2.4,Win32,59.88023952,,,,,,,,,,,,,,return,0.5491,,,,,,,,,,,,,,,,,,,,,,,
,,123,2024-08-05_15h30.14.246,GoFitts,2022.2.4,Win32,59.88023952,,,,,,,,,,,,,,,,return,0.4172,"[65.3333740234375,-128]","[-99.99999999999996,173.20508075688775]",48,400,0,"[65.3333740234375,62.666748046875,62,61.3333740234375,60,59.3333740234375,59.3333740234375,59.3333740234375,58.666748046875,58.666748046875,58.666748046875,58.666748046875,58.666748046875,58.666748046875,58.666748046875,58.666748046875,58.666748046875,58.666748046875,58.666748046875,58,57.3333740234375,54,44,8,-29.333251953125,-54,-66.6666259765625,-71.333251953125,-75.333251953125,-78,-78,-78,-78,-83.333251953125,-100.6666259765625,-113.333251953125,-120,-121.333251953125,-121.333251953125,-121.333251953125]","[-128,-126.66668701171875,-125.3333740234375,-124.66668701171875,-123.3333740234375,-122.66668701171875,-122.66668701171875,-122.66668701171875,-122,-122,-122,-122,-122,-122,-122,-120.66668701171875,-120.66668701171875,-118.66668701171875,-116.66668701171875,-114.66668701171875,-113.3333740234375,-102.66668701171875,-86.66668701171875,-30.66668701171875,21.33331298828125,59.33331298828125,80.6666259765625,92,98.6666259765625,102,102.6666259765625,102.6666259765625,104,110.6666259765625,135.33331298828125,150,159.33331298828125,161.33331298828125,161.33331298828125,162.6666259765625]","[0,0,0,0,0,0,0,0,0,0,0,0,0,0,0,0,0,0,0,0,0,0,0,0,0,0,0,0,0,0,0,0,0,0,0,0,0,0,0,0]","[0,0,0,0,0,0,0,0,0,0,0,0,0,0,0,0,0,0,0,0,0,0,0,0,0,0,0,0,0,0,0,0,0,0,0,0,0,0,0,0]","[0,0,0,0,0,0,0,0,0,0,0,0,0,0,0,0,0,0,0,0,0,0,0,0,0,0,0,0,0,0,0,0,0,0,0,0,0,0,0,0]","[0.0010999999977645558,0.027300000000744618,0.04399999999999871,0.05139999999850886,0.07699999999999996,0.09369999999925405,0.10839999999850924,0.127099999997764,0.13449999999999918,0.16030000000074374,0.16730000000074519,0.1936999999992537,0.200599999997765,0.22689999999851018,0.23419999999925523,0.2604999999999986,0.2705000000000002,0.2831999999992547,0.3103000000007441,0.3274999999999988,0.3355999999977648,0.36139999999850936,0.3695999999977637,0.3945999999977641,0.41080000000074435,0.4275000000000002,0.44439999999850954,0.4606999999992549,0.47749999999999915,0.4944999999999986,0.5108999999985091,0.5280999999977638,0.5443000000007441,0.5523999999985101,0.5770999999977651,0.5935999999977639,0.6103000000007448,0.6273000000007443,0.6436999999992548,0.6603999999985088]",,0,0,0,0,1,,,,
,,123,2024-08-05_15h30.14.246,GoFitts,2022.2.4,Win32,59.88023952,,,,,,,,,,,,,,,,,,"[-99.99999999999996,173.20508075688775]","[133.82612127177168,-148.6289650954788]",48,400,0,"[-121.333251953125,-119.333251953125,-118,-116.6666259765625,-116,-116,-116,-111.333251953125,-111.333251953125,-96,-81.333251953125,-72,-60.6666259765625,-49.333251953125,-35.333251953125,-24,7.3333740234375,30.666748046875,41.3333740234375,66,89.3333740234375,92.666748046875,93.3333740234375,93.3333740234375,94,94,95.3333740234375,96,98,98.666748046875,100.666748046875,102.666748046875,104.666748046875,106,107.3333740234375,109.3333740234375,112.666748046875,116.666748046875]","[162.6666259765625,165.33331298828125,167.33331298828125,169.33331298828125,171.33331298828125,171.33331298828125,171.33331298828125,172,172,164.6666259765625,156,150,139.33331298828125,118,84,55.33331298828125,-28,-84,-105.3333740234375,-143.3333740234375,-172.66668701171875,-176.66668701171875,-176.66668701171875,-176.66668701171875,-177.3333740234375,-176.66668701171875,-172.66668701171875,-168.66668701171875,-161.3333740234375,-156.66668701171875,-151.3333740234375,-147.3333740234375,-144,-141.3333740234375,-139.3333740234375,-137.3333740234375,-135.3333740234375,-134]","[0,0,0,0,0,0,0,0,0,0,0,0,0,0,0,0,0,0,0,0,0,0,0,0,0,0,0,0,0,0,0,0,0,0,0,0,0,0]","[0,0,0,0,0,0,0,0,0,0,0,0,0,0,0,0,0,0,0,0,0,0,0,0,0,0,0,0,0,0,0,0,0,0,0,0,0,0]","[0,0,0,0,0,0,0,0,0,0,0,0,0,0,0,0,0,0,0,0,0,0,0,0,0,0,0,0,0,0,0,0,0,0,0,0,0,0]","[0.0003000000007453707,0.016500000000000625,0.02370000000298056,0.04980000000074547,0.0663000000007461,0.08290000000223507,0.09010000000148999,0.11630000000074503,0.12310000000148946,0.1443000000007455,0.16650000000000098,0.18299999999999983,0.19950000000000045,0.21690000000223542,0.23090000000223476,0.23980000000074497,0.2664000000022355,0.28370000000298035,0.291500000000001,0.30610000000149107,0.33410000000148976,0.34970000000298107,0.36690000000223577,0.38400000000000034,0.3922000000029797,0.41710000000148995,0.4344000000022348,0.4504000000022348,0.4672000000029808,0.48370000000297964,0.5005000000000006,0.5177000000029803,0.5341000000014908,0.5503000000007461,0.5664999999999996,0.5839999999999996,0.6007000000029805,0.6174999999999997]",,1,0,1,0,1,,,,
,,123,2024-08-05_15h30.14.246,GoFitts,2022.2.4,Win32,59.88023952,,,,,,,,,,,,,,,,,,"[133.82612127177168,-148.6289650954788]","[-161.80339887498945,117.55705045849464]",48,400,0,"[116.666748046875,118.666748046875,120,121.3333740234375,122,126.666748046875,130,134.666748046875,136,136,136,136,136,136,132.666748046875,121.3333740234375,95.3333740234375,59.3333740234375,33.3333740234375,12,-6,-18,-27.333251953125,-32.6666259765625,-36.6666259765625,-43.333251953125,-64,-73.333251953125,-96.6666259765625,-134,-152,-164,-168,-169.333251953125,-170]","[-134,-134,-134,-134,-134.66668701171875,-138,-140,-142,-142.66668701171875,-142.66668701171875,-142.66668701171875,-142.66668701171875,-142.66668701171875,-142.66668701171875,-142.66668701171875,-140.66668701171875,-120.66668701171875,-71.3333740234375,-28,4.6666259765625,22,32.6666259765625,36,38,40,41.33331298828125,45.33331298828125,47.33331298828125,54,67.33331298828125,76,84,88,91.33331298828125,96]","[0,0,0,0,0,0,0,0,0,0,0,0,0,0,0,0,0,0,0,0,0,0,0,0,0,0,0,0,0,0,0,0,0,0,0]","[0,0,0,0,0,0,0,0,0,0,0,0,0,0,0,0,0,0,0,0,0,0,0,0,0,0,0,0,0,0,0,0,0,0,0]","[0,0,0,0,0,0,0,0,0,0,0,0,0,0,0,0,0,0,0,0,0,0,0,0,0,0,0,0,0,0,0,0,0,0,0]","[0.0003000000007453707,0.016300000000745385,0.032899999998509344,0.05000000000000071,0.0583000000007452,0.0835000000000008,0.10009999999776475,0.11639999999851014,0.13280000000074565,0.14949999999999974,0.15719999999925527,0.17130000000074475,0.20030000000074466,0.21659999999776502,0.22559999999776537,0.2386999999992554,0.26689999999850933,0.2831999999992547,0.29969999999925534,0.3163000000007461,0.3326999999992548,0.34919999999925544,0.3661999999992549,0.38280000000074565,0.399699999999255,0.41549999999999976,0.4350000000000005,0.4493999999985103,0.46459999999776436,0.48309999999776565,0.49969999999925463,0.5165999999977657,0.532800000000746,0.5498000000007455,0.5663999999985094]",,2,0,2,0,1,,,,
,,123,2024-08-05_15h30.14.246,GoFitts,2022.2.4,Win32,59.88023952,,,,,,,,,,,,,,,,,,"[-161.80339887498945,117.55705045849464]","[182.7090915285202,-81.34732861516002]",48,400,0,"[-170,-170,-170,-170,-165.333251953125,-162.6666259765625,-148.6666259765625,-141.333251953125,-138,-138,-138,-138,-138,-138,-124,-100,-57.333251953125,-16,5.3333740234375,78.666748046875,102,115.3333740234375,119.3333740234375,120.666748046875,121.3333740234375,122,124,125.3333740234375,128.666748046875,128.666748046875,128.666748046875,130.666748046875,150.666748046875,164.666748046875]","[96,99.33331298828125,99.33331298828125,99.33331298828125,102,102.6666259765625,106,106.6666259765625,108,108,108,108,108,108,94,71.33331298828125,38.6666259765625,9.33331298828125,-4.66668701171875,-36.66668701171875,-44.66668701171875,-50.66668701171875,-52.66668701171875,-54,-54,-54.66668701171875,-55.3333740234375,-56,-57.3333740234375,-57.3333740234375,-57.3333740234375,-58,-67.3333740234375,-74.66668701171875]","[0,0,0,0,0,0,0,0,0,0,0,0,0,0,0,0,0,0,0,0,0,0,0,0,0,0,0,0,0,0,0,0,0,0]","[0,0,0,0,0,0,0,0,0,0,0,0,0,0,0,0,0,0,0,0,0,0,0,0,0,0,0,0,0,0,0,0,0,0]","[0,0,0,0,0,0,0,0,0,0,0,0,0,0,0,0,0,0,0,0,0,0,0,0,0,0,0,0,0,0,0,0,0,0]","[0.00039999999851048074,0.015599999997764513,0.03209999999776514,0.03969999999925555,0.0662999999970193,0.07529999999701964,0.09979999999701938,0.11589999999850953,0.13289999999851076,0.14919999999925437,0.15700000000000003,0.17119999999925462,0.1996999999992557,0.2080999999977653,0.23019999999925567,0.24989999999850987,0.26629999999702036,0.2829999999999995,0.29169999999925444,0.31649999999999956,0.33339999999851067,0.34969999999925605,0.3655000000000008,0.38229999999702,0.3993999999985096,0.4161999999992556,0.43309999999776494,0.44149999999999956,0.4663999999985098,0.4745000000000008,0.49979999999701974,0.508099999997766,0.53339999999851,0.5495999999977652]",,3,0,3,0,1,,,,
,,123,2024-08-05_15h30.14.246,GoFitts,2022.2.4,Win32,59.88023952,,,,,,,,,,,,,,,,,,"[182.7090915285202,-81.34732861516002]","[-195.62952014676114,41.58233816355186]",48,400,0,"[164.666748046875,174,178,180.666748046875,183.3333740234375,186.666748046875,188,189.3333740234375,189.3333740234375,190,195.3333740234375,198.666748046875,199.3333740234375,199.3333740234375,192,176.666748046875,158.666748046875,136.666748046875,101.3333740234375,68.666748046875,19.3333740234375,-24,-50,-71.333251953125,-89.333251953125,-104,-115.333251953125,-125.333251953125,-135.333251953125,-140.6666259765625,-143.333251953125,-145.333251953125,-148,-157.333251953125,-164.6666259765625,-170.6666259765625,-176.6666259765625]","[-74.66668701171875,-80.66668701171875,-82,-84,-86,-88,-88,-89.3333740234375,-89.3333740234375,-89.3333740234375,-90.66668701171875,-92,-92.66668701171875,-92.66668701171875,-92.66668701171875,-90.66668701171875,-86,-77.3333740234375,-64,-50,-34,-24.66668701171875,-20,-16,-12,-10.66668701171875,-8.66668701171875,-8,-7.3333740234375,-7.3333740234375,-6.66668701171875,-6,-4,2.6666259765625,11.33331298828125,18,27.33331298828125]","[0,0,0,0,0,0,0,0,0,0,0,0,0,0,0,0,0,0,0,0,0,0,0,0,0,0,0,0,0,0,0,0,0,0,0,0,0]","[0,0,0,0,0,0,0,0,0,0,0,0,0,0,0,0,0,0,0,0,0,0,0,0,0,0,0,0,0,0,0,0,0,0,0,0,0]","[0,0,0,0,0,0,0,0,0,0,0,0,0,0,0,0,0,0,0,0,0,0,0,0,0,0,0,0,0,0,0,0,0,0,0,0,0]","[0.0003000000007453707,0.015899999998509884,0.03239999999850873,0.04910000000148962,0.06560000000149024,0.08269999999925481,0.09919999999925544,0.11580000000074442,0.13250000000000028,0.14899999999999913,0.1661000000014905,0.18299999999999983,0.1999999999999993,0.21619999999925454,0.23380000000074475,0.2494999999999994,0.2663999999985087,0.2831000000014896,0.3006000000014897,0.3171000000014903,0.32580000000074527,0.3506000000014904,0.36669999999925373,0.38369999999925497,0.40030000000074395,0.4168999999985097,0.43360000000149057,0.45019999999925453,0.4668999999985086,0.4836000000014895,0.5001000000014901,0.5166999999992541,0.5336000000014902,0.5504999999999995,0.5671000000014903,0.5838999999985095,0.6003999999985101]",,4,0,4,0,1,,,,
,,123,2024-08-05_15h30.14.246,GoFitts,2022.2.4,Win32,59.88023952,,,,,,,,,,,,,,,,,,"[-195.62952014676114,41.58233816355186]","[200,0]",48,400,0,"[-176.6666259765625,-183.333251953125,-188,-190.6666259765625,-193.333251953125,-193.333251953125,-193.333251953125,-193.333251953125,-193.333251953125,-193.333251953125,-192,-156.6666259765625,-121.333251953125,-67.333251953125,-10,53.3333740234375,92,114.666748046875,126.666748046875,128.666748046875,132,133.3333740234375,133.3333740234375,134,134,134,134,134,137.3333740234375,158,166.666748046875,178.666748046875]","[27.33331298828125,37.33331298828125,42.6666259765625,45.33331298828125,47.33331298828125,47.33331298828125,47.33331298828125,47.33331298828125,47.33331298828125,47.33331298828125,48,38,32,25.33331298828125,25.33331298828125,22.6666259765625,22.6666259765625,21.33331298828125,21.33331298828125,21.33331298828125,22.6666259765625,23.33331298828125,23.33331298828125,23.33331298828125,23.33331298828125,23.33331298828125,23.33331298828125,23.33331298828125,23.33331298828125,15.33331298828125,12,8]","[0,0,0,0,0,0,0,0,0,0,0,0,0,0,0,0,0,0,0,0,0,0,0,0,0,0,0,0,0,0,0,0]","[0,0,0,0,0,0,0,0,0,0,0,0,0,0,0,0,0,0,0,0,0,0,0,0,0,0,0,0,0,0,0,0]","[0,0,0,0,0,0,0,0,0,0,0,0,0,0,0,0,0,0,0,0,0,0,0,0,0,0,0,0,0,0,0,0]","[0.0003999999985087044,0.01729999999701981,0.033399999998509955,0.049799999997018674,0.06649999999999956,0.08300000000000018,0.09849999999999959,0.10669999999925395,0.12069999999925507,0.1483999999985084,0.15679999999701977,0.1832999999970184,0.1999999999999993,0.21619999999925454,0.23129999999701845,0.24919999999925402,0.2661999999992535,0.28009999999776447,0.3002999999970193,0.3089999999999993,0.33379999999701937,0.35029999999702,0.36469999999925484,0.37349999999999994,0.4001999999992538,0.4146999999992538,0.4231999999992535,0.4475999999977649,0.4554999999999989,0.4813999999985086,0.4898999999985101,0.5169999999999995]",,5,0,5,0,1,,,,
,,123,2024-08-05_15h30.14.246,GoFitts,2022.2.4,Win32,59.88023952,,,,,,,,,,,,,,,,,,"[200,0]","[-195.62952014676114,-41.58233816355181]",48,400,0,"[178.666748046875,182.666748046875,189.3333740234375,194.666748046875,201.3333740234375,204.666748046875,204.666748046875,204.666748046875,204.666748046875,204.666748046875,199.3333740234375,192.666748046875,175.3333740234375,114.666748046875,57.3333740234375,0,-48,-72,-92,-143.333251953125,-155.333251953125,-162,-164.6666259765625,-166.6666259765625,-170.6666259765625,-180]","[8,5.33331298828125,2,-0.66668701171875,-2,-2.66668701171875,-2.66668701171875,-2.66668701171875,-2.66668701171875,-3.3333740234375,-4.66668701171875,-4.66668701171875,-5.3333740234375,-5.3333740234375,-13.3333740234375,-23.3333740234375,-34,-38,-40.66668701171875,-54.66668701171875,-57.3333740234375,-58,-58.66668701171875,-58.66668701171875,-58.66668701171875,-58.66668701171875]","[0,0,0,0,0,0,0,0,0,0,0,0,0,0,0,0,0,0,0,0,0,0,0,0,0,0]","[0,0,0,0,0,0,0,0,0,0,0,0,0,0,0,0,0,0,0,0,0,0,0,0,0,0]","[0,0,0,0,0,0,0,0,0,0,0,0,0,0,0,0,0,0,0,0,0,0,0,0,0,0]","[0.00030000000074359434,0.015699999999254644,0.03230000000074362,0.04889999999850936,0.06610000000148908,0.0826000000014897,0.09899999999999842,0.11580000000074442,0.13230000000074504,0.14089999999850988,0.16449999999999854,0.1833000000007452,0.192499999999999,0.21630000000074467,0.23280000000074352,0.2491000000014889,0.2658000000007448,0.2743999999985096,0.2873000000007444,0.31599999999999895,0.3316999999992536,0.3484999999999996,0.3658000000007444,0.3828000000007439,0.3993000000007427,0.415499999999998]",,6,0,6,0,1,,,,
,,123,2024-08-05_15h30.14.246,GoFitts,2022.2.4,Win32,59.88023952,,,,,,,,,,,,,,,,,,"[-195.62952014676114,-41.58233816355181]","[182.70909152852016,81.34732861516002]",48,400,0,"[-180,-185.333251953125,-190.6666259765625,-196.6666259765625,-200.6666259765625,-201.333251953125,-201.333251953125,-201.333251953125,-201.333251953125,-198.6666259765625,-193.333251953125,-180.6666259765625,-160,-105.333251953125,-54,-7.333251953125,33.3333740234375,58.666748046875,76,86.666748046875,99.3333740234375,115.3333740234375,135.3333740234375,154.666748046875,164.666748046875,167.3333740234375]","[-58.66668701171875,-58.66668701171875,-56.66668701171875,-54.66668701171875,-53.3333740234375,-52.66668701171875,-52.66668701171875,-52.66668701171875,-50.66668701171875,-49.3333740234375,-48,-44,-39.3333740234375,-23.3333740234375,-9.3333740234375,4,23.33331298828125,36,45.33331298828125,51.33331298828125,54,55.33331298828125,57.33331298828125,60.6666259765625,62,64.6666259765625]","[0,0,0,0,0,0,0,0,0,0,0,0,0,0,0,0,0,0,0,0,0,0,0,0,0,0]","[0,0,0,0,0,0,0,0,0,0,0,0,0,0,0,0,0,0,0,0,0,0,0,0,0,0]","[0,0,0,0,0,0,0,0,0,0,0,0,0,0,0,0,0,0,0,0,0,0,0,0,0,0]","[0.0003000000007453707,0.01630000000074716,0.033199999999254715,0.04989999999851236,0.06639999999850943,0.08330000000074733,0.09950000000000259,0.10789999999851219,0.133899999998512,0.1501999999992556,0.16689999999850968,0.1833000000007452,0.1999999999999993,0.21669999999925693,0.23319999999925756,0.25,0.26669999999925764,0.2831999999992547,0.3000000000000007,0.31659999999776645,0.3331999999992554,0.3500000000000014,0.3668000000007474,0.38319999999925614,0.3998000000007451,0.4168999999985097]",,7,0,7,0,1,,,,
,,123,2024-08-05_15h30.14.246,GoFitts,2022.2.4,Win32,59.88023952,,,,,,,,,,,,,,,,,,"[182.70909152852016,81.34732861516002]","[-161.8033988749895,-117.5570504584946]",48,400,0,"[167.3333740234375,168,168,168,168,168.666748046875,170.666748046875,174,175.3333740234375,175.3333740234375,175.3333740234375,175.3333740234375,175.3333740234375,175.3333740234375,175.3333740234375,175.3333740234375,161.3333740234375,94.666748046875,44.666748046875,-5.333251953125,-50.6666259765625,-89.333251953125,-102.6666259765625,-130.6666259765625,-136,-138,-139.333251953125,-141.333251953125,-142.6666259765625,-144.6666259765625,-150.6666259765625,-156.6666259765625]","[64.6666259765625,65.33331298828125,68,68.6666259765625,69.33331298828125,71.33331298828125,73.33331298828125,76,76.6666259765625,77.33331298828125,77.33331298828125,77.33331298828125,77.33331298828125,77.33331298828125,77.33331298828125,77.33331298828125,70,32,-6.66668701171875,-46.66668701171875,-84,-110.66668701171875,-119.3333740234375,-138,-140.66668701171875,-142,-142,-142,-142,-142,-142,-140.66668701171875]","[0,0,0,0,0,0,0,0,0,0,0,0,0,0,0,0,0,0,0,0,0,0,0,0,0,0,0,0,0,0,0,0]","[0,0,0,0,0,0,0,0,0,0,0,0,0,0,0,0,0,0,0,0,0,0,0,0,0,0,0,0,0,0,0,0]","[0,0,0,0,0,0,0,0,0,0,0,0,0,0,0,0,0,0,0,0,0,0,0,0,0,0,0,0,0,0,0,0]","[0.0003000000007453707,0.01530000000074594,0.03260000000149077,0.048899999998511134,0.06580000000074548,0.08280000000074494,0.09950000000000259,0.11639999999851014,0.1333999999985096,0.1501999999992556,0.1664999999999992,0.1816999999992568,0.19699999999999918,0.21680000000074529,0.22560000000149216,0.23839999999851003,0.2543999999985118,0.2813999999985093,0.29969999999925534,0.31610000000149086,0.33289999999851005,0.34969999999925605,0.3583000000007459,0.38319999999925614,0.3993999999985114,0.415899999998512,0.43100000000000094,0.4499999999999993,0.4660000000000011,0.4741999999992572,0.49980000000074654,0.5166000000014925]",,8,0,8,0,1,,,,
,,123,2024-08-05_15h30.14.246,GoFitts,2022.2.4,Win32,59.88023952,,,,,,,,,,,,,,,,,,"[-161.8033988749895,-117.5570504584946]","[133.82612127177165,148.62896509547886]",48,400,0,"[-156.6666259765625,-166,-171.333251953125,-174,-174,-174,-174,-171.333251953125,-170.6666259765625,-169.333251953125,-166,-158.6666259765625,-150,-136,-120,-110.6666259765625,-76.6666259765625,-60,-46,-30,-10,12.666748046875,33.3333740234375,52,57.3333740234375,58.666748046875,60.666748046875,64,70,72,76,78,78.666748046875,79.3333740234375,80,82,89.3333740234375,98.666748046875,109.3333740234375,118]","[-140.66668701171875,-138,-136,-134.66668701171875,-134.66668701171875,-133.3333740234375,-132.66668701171875,-131.3333740234375,-131.3333740234375,-131.3333740234375,-131.3333740234375,-131.3333740234375,-133.3333740234375,-135.3333740234375,-136,-137.3333740234375,-140.66668701171875,-137.3333740234375,-128.66668701171875,-110,-80,-45.3333740234375,-10.66668701171875,26,51.33331298828125,72.6666259765625,81.33331298828125,86,90.6666259765625,92,95.33331298828125,96.6666259765625,97.33331298828125,97.33331298828125,99.33331298828125,102.6666259765625,107.33331298828125,116.6666259765625,124,132.6666259765625]","[0,0,0,0,0,0,0,0,0,0,0,0,0,0,0,0,0,0,0,0,0,0,0,0,0,0,0,0,0,0,0,0,0,0,0,0,0,0,0,0]","[0,0,0,0,0,0,0,0,0,0,0,0,0,0,0,0,0,0,0,0,0,0,0,0,0,0,0,0,0,0,0,0,0,0,0,0,0,0,0,0]","[0,0,0,0,0,0,0,0,0,0,0,0,0,0,0,0,0,0,0,0,0,0,0,0,0,0,0,0,0,0,0,0,0,0,0,0,0,0,0,0]","[0.00039999999851048074,0.01539999999851105,0.0323000000007454,0.04930000000074486,0.06619999999925597,0.07499999999999929,0.09989999999850951,0.11630000000074503,0.1333000000007445,0.14999999999999858,0.16739999999850852,0.1831999999992533,0.19989999999851094,0.21630000000074645,0.23289999999850863,0.2416999999992555,0.2666999999992541,0.28289999999850934,0.29969999999925534,0.31639999999850943,0.33289999999851005,0.3508000000007456,0.3661999999992531,0.38269999999925375,0.398899999998509,0.41580000000074335,0.4325999999977661,0.44959999999776556,0.4660999999977662,0.47509999999776653,0.49980000000074654,0.5163999999985087,0.5324999999999989,0.5493000000007449,0.566199999999256,0.58289999999851,0.599699999999256,0.6161999999992531,0.6330999999977642,0.6420999999977646]",,9,0,9,0,1,,,,
,,123,2024-08-05_15h30.14.246,GoFitts,2022.2.4,Win32,59.88023952,,,,,,,,,,,,,,,,,,"[133.82612127177165,148.62896509547886]","[-100.00000000000009,-173.20508075688767]",48,400,0,"[118,124,124.666748046875,125.3333740234375,126,130,134,138,139.3333740234375,139.3333740234375,139.3333740234375,133.3333740234375,78,32,-8.6666259765625,-44.6666259765625,-74.6666259765625,-96.6666259765625,-108.6666259765625,-112]","[132.6666259765625,139.33331298828125,142,143.33331298828125,145.33331298828125,147.33331298828125,150,151.33331298828125,152,152,152,148.6666259765625,115.33331298828125,84.6666259765625,50.6666259765625,8,-48,-106,-149.3333740234375,-175.3333740234375]","[0,0,0,0,0,0,0,0,0,0,0,0,0,0,0,0,0,0,0,0]","[0,0,0,0,0,0,0,0,0,0,0,0,0,0,0,0,0,0,0,0]","[0,0,0,0,0,0,0,0,0,0,0,0,0,0,0,0,0,0,0,0]","[0.0004999999999988347,0.023800000000743893,0.040400000002236425,0.05680000000074514,0.07390000000223651,0.09069999999925571,0.10719999999925633,0.12410000000149068,0.1406000000014913,0.1573000000007454,0.1739999999999995,0.18290000000223472,0.2073000000007461,0.22380000000074318,0.2403000000007438,0.25690000000223634,0.2740000000000009,0.290699999999255,0.307300000000744,0.32410000000149]",,10,0,10,0,1,,,,
,,123,2024-08-05_15h30.14.246,GoFitts,2022.2.4,Win32,59.88023952,,,,,,,,,,,,,,,,,,"[-100.00000000000009,-173.20508075688767]","[61.80339887498949,190.2113032590307]",48,400,0,"[-112,-112,-112,-112.6666259765625,-113.333251953125,-114,-114,-114,-114,-114,-114,-114,-114,-114,-114,-114,-112.6666259765625,-112.6666259765625,-110,-108,-88.6666259765625,-72.6666259765625,-55.333251953125,-42.6666259765625,-30,-20,-12.6666259765625,-8,-4.6666259765625,2.666748046875,8.666748046875,14,18,24.666748046875,32,40.666748046875,48.666748046875]","[-175.3333740234375,-186.66668701171875,-191.3333740234375,-196.66668701171875,-199.3333740234375,-201.3333740234375,-201.3333740234375,-201.3333740234375,-202,-202,-202,-202,-202,-202,-202,-195.3333740234375,-176,-158.66668701171875,-138.66668701171875,-128,-70,-30,10,51.33331298828125,83.33331298828125,100.6666259765625,114.6666259765625,122,126.6666259765625,134,140.6666259765625,145.33331298828125,150.6666259765625,159.33331298828125,168.6666259765625,175.33331298828125,180]","[0,0,0,0,0,0,0,0,0,0,0,0,0,0,0,0,0,0,0,0,0,0,0,0,0,0,0,0,0,0,0,0,0,0,0,0,0]","[0,0,0,0,0,0,0,0,0,0,0,0,0,0,0,0,0,0,0,0,0,0,0,0,0,0,0,0,0,0,0,0,0,0,0,0,0]","[0,0,0,0,0,0,0,0,0,0,0,0,0,0,0,0,0,0,0,0,0,0,0,0,0,0,0,0,0,0,0,0,0,0,0,0,0]","[0.00029999999701857405,0.016099999997763348,0.03219999999925349,0.04949999999999832,0.06599999999999895,0.07539999999850977,0.09979999999702116,0.10849999999999937,0.1312999999970188,0.14939999999850784,0.1580999999977628,0.18109999999776605,0.1980999999977655,0.20700000000000074,0.22009999999776397,0.23729999999702045,0.2646999999992552,0.2826999999992559,0.2973999999985111,0.30600000000000094,0.33269999999925304,0.34919999999925366,0.3658999999985113,0.3825000000000003,0.3992999999970195,0.41600000000000037,0.43269999999925446,0.4492999999970202,0.46629999999701965,0.4851999999992529,0.4988999999985104,0.5156999999992564,0.5323999999985105,0.549199999999253,0.565999999999999,0.5823999999985112,0.5991999999992537]",,11,0,11,0,1,,,,
,,123,2024-08-05_15h30.14.246,GoFitts,2022.2.4,Win32,59.88023952,,,,,,,,,,,,,,,,,,"[61.80339887498949,190.2113032590307]","[-20.905692653530846,-198.90437907365467]",48,400,0,"[48.666748046875,54,58.666748046875,60.666748046875,61.3333740234375,62,62,62,62,62.666748046875,62.666748046875,55.3333740234375,50.666748046875,46.666748046875,44.666748046875,46,47.3333740234375,48.666748046875,48.666748046875,44.666748046875,40.666748046875,38.666748046875,36,33.3333740234375,31.3333740234375,29.3333740234375,27.3333740234375,22.666748046875,20.666748046875,2,-25.333251953125]","[180,182.6666259765625,184,186,187.33331298828125,188.6666259765625,188.6666259765625,188.6666259765625,188.6666259765625,189.33331298828125,188,160.6666259765625,131.33331298828125,90.6666259765625,63.33331298828125,-16.66668701171875,-66,-110.66668701171875,-148,-162,-170.66668701171875,-176,-184,-190,-196,-198.66668701171875,-200,-202,-203.3333740234375,-208,-212.66668701171875]","[0,0,0,0,0,0,0,0,0,0,0,0,0,0,0,0,0,0,0,0,0,0,0,0,0,0,0,0,0,0,0]","[0,0,0,0,0,0,0,0,0,0,0,0,0,0,0,0,0,0,0,0,0,0,0,0,0,0,0,0,0,0,0]","[0,0,0,0,0,0,0,0,0,0,0,0,0,0,0,0,0,0,0,0,0,0,0,0,0,0,0,0,0,0,0]","[0.0003000000007453707,0.01630000000074716,0.03290000000223614,0.049400000002236766,0.06650000000000134,0.08360000000148915,0.09990000000223631,0.11390000000223566,0.13140000000223395,0.14860000000149043,0.1573000000007454,0.18369999999925568,0.19980000000074583,0.21660000000149182,0.2248000000007444,0.24969999999925463,0.26699999999999946,0.2814000000022361,0.30010000000148906,0.3166000000014897,0.3334000000022357,0.3501999999992549,0.3666999999992555,0.3835000000000015,0.4001000000014905,0.4168000000007446,0.4334000000022371,0.4501999999992563,0.45899999999999963,0.4836999999992564,0.4999000000022349]",,12,0,12,0,1,,,,
,,123,2024-08-05_15h30.14.246,GoFitts,2022.2.4,Win32,59.88023952,,,,,,,,,,,,,,,,,,"[-20.905692653530846,-198.90437907365467]","[-20.905692653530668,198.90437907365467]",48,400,0,"[-25.333251953125,-41.333251953125,-51.333251953125,-53.333251953125,-53.333251953125,-53.333251953125,-50.6666259765625,-48,-47.333251953125,-46.6666259765625,-46,-43.333251953125,-40.6666259765625,-40,-40,-38,-35.333251953125,-28,-23.333251953125,-22,-31.333251953125,-49.333251953125,-65.333251953125,-70,-76,-76,-74.6666259765625,-74,-72.6666259765625,-70.6666259765625,-68.6666259765625,-66,-63.333251953125,-59.333251953125,-58,-56,-48.6666259765625,-40.6666259765625]","[-212.66668701171875,-212.66668701171875,-213.3333740234375,-213.3333740234375,-213.3333740234375,-213.3333740234375,-213.3333740234375,-213.3333740234375,-212.66668701171875,-212.66668701171875,-212.66668701171875,-211.3333740234375,-210.66668701171875,-210.66668701171875,-210.66668701171875,-209.3333740234375,-203.3333740234375,-186,-162,-118.66668701171875,-61.3333740234375,-3.3333740234375,50.6666259765625,80,148,164,170,172.6666259765625,174.6666259765625,177.33331298828125,180,182.6666259765625,185.33331298828125,186.6666259765625,186.6666259765625,187.33331298828125,187.33331298828125,187.33331298828125]","[0,0,0,0,0,0,0,0,0,0,0,0,0,0,0,0,0,0,0,0,0,0,0,0,0,0,0,0,0,0,0,0,0,0,0,0,0,0]","[0,0,0,0,0,0,0,0,0,0,0,0,0,0,0,0,0,0,0,0,0,0,0,0,0,0,0,0,0,0,0,0,0,0,0,0,0,0]","[0,0,0,0,0,0,0,0,0,0,0,0,0,0,0,0,0,0,0,0,0,0,0,0,0,0,0,0,0,0,0,0,0,0,0,0,0,0]","[0.00040000000223372467,0.0162000000029785,0.032800000000744234,0.049700000002978584,0.06630000000074432,0.08299999999999841,0.09990000000223276,0.1164999999999985,0.13310000000148747,0.14980000000074511,0.16690000000223293,0.18310000000148818,0.19970000000297716,0.21649999999999991,0.23290000000223188,0.25020000000298026,0.26690000000223435,0.2835000000000001,0.30010000000148906,0.31670000000297804,0.3339000000022345,0.3498000000007444,0.36599999999999966,0.37420000000297904,0.40020000000297884,0.4168000000007446,0.433600000001487,0.450400000002233,0.46690000000223364,0.48330000000074236,0.5,0.5164999999999971,0.533200000002978,0.5501000000014891,0.5669000000022351,0.5759000000022318,0.6003000000007432,0.6169000000022322]",,13,0,13,0,1,,,,
,,123,2024-08-05_15h30.14.246,GoFitts,2022.2.4,Win32,59.88023952,,,,,,,,,,,,,,,,,,"[-20.905692653530668,198.90437907365467]","[61.80339887498945,-190.21130325903073]",48,400,0,"[-40.6666259765625,-33.333251953125,-28.6666259765625,-26,-26,-26,-26,-26,-26,-26,-18,-13.333251953125,-7.333251953125,-0.6666259765625,12,28.666748046875,46,56.666748046875,62,66.666748046875,70.666748046875]","[187.33331298828125,187.33331298828125,187.33331298828125,187.33331298828125,187.33331298828125,187.33331298828125,187.33331298828125,187.33331298828125,187.33331298828125,187.33331298828125,178.6666259765625,172.6666259765625,160.6666259765625,138,92.6666259765625,36,-31.3333740234375,-84.66668701171875,-123.3333740234375,-156,-183.3333740234375]","[0,0,0,0,0,0,0,0,0,0,0,0,0,0,0,0,0,0,0,0,0]","[0,0,0,0,0,0,0,0,0,0,0,0,0,0,0,0,0,0,0,0,0]","[0,0,0,0,0,0,0,0,0,0,0,0,0,0,0,0,0,0,0,0,0]","[0.0003000000007453707,0.017500000000001847,0.03290000000223614,0.04969999999925534,0.06599999999999895,0.08249999999999957,0.09930000000074557,0.10840000000223426,0.1326000000014922,0.1416999999992541,0.1664999999999992,0.18269999999925446,0.19940000000223534,0.21619999999925454,0.23300000000000054,0.24960000000148952,0.2664000000022355,0.28280000000074423,0.2995000000000019,0.3143000000007454,0.33300000000000196]",,14,0,14,0,1,,,,
,,123,2024-08-05_15h30.14.246,GoFitts,2022.2.4,Win32,59.88023952,,,,,,,,,,,,,,,,,,,,,,0,,,,,,,,,,,,,0,0,0,1
,,123,2024-08-05_15h30.14.246,GoFitts,2022.2.4,Win32,59.88023952,,,,,,,,,,,,,,,,return,0.7164,"[26,-92.66668701171875]","[216.9670461901177,96.59995273050254]",40.5,475,1,"[26,26,26,26,26,26,26,26,26,26,26,26,26,26,26,26,26,26,26,26,26,26,26,26,26,36.666748046875,61.3333740234375,80.666748046875,95.3333740234375,104,110.666748046875,120.666748046875,128.666748046875,137.3333740234375,146.666748046875,154,157.3333740234375,159.3333740234375,169.3333740234375,177.3333740234375,187.3333740234375,201.3333740234375]","[-92.66668701171875,-92.66668701171875,-92.66668701171875,-92.66668701171875,-92.66668701171875,-92.66668701171875,-92.66668701171875,-92.66668701171875,-92.66668701171875,-92.66668701171875,-92.66668701171875,-92.66668701171875,-92.66668701171875,-92.66668701171875,-92.66668701171875,-92.66668701171875,-92.66668701171875,-92.66668701171875,-92.66668701171875,-92.66668701171875,-92.66668701171875,-92.66668701171875,-92.66668701171875,-92.66668701171875,-92.66668701171875,-76.66668701171875,-46.66668701171875,-20.66668701171875,-2,17.33331298828125,28,38.6666259765625,46.6666259765625,54,60.6666259765625,66,68.6666259765625,70,78,84,92,98]","[0,0,0,0,0,0,0,0,0,0,0,0,0,0,0,0,0,0,0,0,0,0,0,0,0,0,0,0,0,0,0,0,0,0,0,0,0,0,0,0,0,0]","[0,0,0,0,0,0,0,0,0,0,0,0,0,0,0,0,0,0,0,0,0,0,0,0,0,0,0,0,0,0,0,0,0,0,0,0,0,0,0,0,0,0]","[0,0,0,0,0,0,0,0,0,0,0,0,0,0,0,0,0,0,0,0,0,0,0,0,0,0,0,0,0,0,0,0,0,0,0,0,0,0,0,0,0,0]","[0.0008000000007442054,0.015599999997764513,0.03259999999776397,0.04100000000000037,0.054300000000743864,0.07139999999850843,0.0884999999999998,0.11489999999851008,0.12369999999925341,0.13799999999999812,0.16699999999999804,0.18289999999850792,0.1911999999992524,0.20469999999925292,0.23289999999850863,0.2414999999999985,0.2545999999977653,0.28289999999850934,0.29939999999850997,0.31299999999999883,0.32139999999850843,0.3468000000007443,0.35530000000074224,0.3716999999992545,0.38809999999776323,0.40489999999850923,0.43189999999851025,0.4486999999992527,0.46609999999776264,0.48259999999776326,0.49930000000074415,0.5166999999992541,0.5324999999999989,0.5490999999977646,0.569599999997763,0.58289999999851,0.5991999999992537,0.6070999999977644,0.6330999999977642,0.6484999999999985,0.6653999999985096,0.6824999999999974]",,0,0,0,0,1,,,,
,,123,2024-08-05_15h30.14.246,GoFitts,2022.2.4,Win32,59.88023952,,,,,,,,,,,,,,,,,,"[216.9670461901177,96.59995273050254]","[-192.14153616405005,-139.59899741946234]",40.5,475,1,"[201.3333740234375,216.666748046875,228.666748046875,232.666748046875,234,234,234,235.3333740234375,235.3333740234375,235.3333740234375,235.3333740234375,234.666748046875,208,171.3333740234375,152,36.666748046875,-20,-62,-86,-101.333251953125,-117.333251953125,-127.333251953125,-140.6666259765625,-154,-165.333251953125,-176,-185.333251953125,-190,-198.6666259765625,-202,-205.333251953125,-208,-209.333251953125,-209.333251953125,-209.333251953125,-209.333251953125,-209.333251953125,-209.333251953125,-206,-204.6666259765625,-202]","[98,103.33331298828125,107.33331298828125,108.6666259765625,109.33331298828125,109.33331298828125,109.33331298828125,110.6666259765625,110.6666259765625,110.6666259765625,110.6666259765625,110.6666259765625,89.33331298828125,61.33331298828125,46.6666259765625,-35.3333740234375,-71.3333740234375,-96,-111.3333740234375,-119.3333740234375,-126.66668701171875,-131.3333740234375,-137.3333740234375,-146,-152,-156.66668701171875,-161.3333740234375,-162.66668701171875,-165.3333740234375,-165.3333740234375,-165.3333740234375,-166,-166,-166,-166,-166,-166,-166,-160,-158.66668701171875,-153.3333740234375]","[0,0,0,0,0,0,0,0,0,0,0,0,0,0,0,0,0,0,0,0,0,0,0,0,0,0,0,0,0,0,0,0,0,0,0,0,0,0,0,0,0]","[0,0,0,0,0,0,0,0,0,0,0,0,0,0,0,0,0,0,0,0,0,0,0,0,0,0,0,0,0,0,0,0,0,0,0,0,0,0,0,0,0]","[0,0,0,0,0,0,0,0,0,0,0,0,0,0,0,0,0,0,0,0,0,0,0,0,0,0,0,0,0,0,0,0,0,0,0,0,0,0,0,0,0]","[0.0004000000022372774,0.015800000000744774,0.032800000000744234,0.04980000000074725,0.06640000000223623,0.08280000000074494,0.09030000000074523,0.1166000000014904,0.13290000000223756,0.14069999999925642,0.16100000000000136,0.1719000000022355,0.2001000000014912,0.21680000000074529,0.2253000000007468,0.250199999999257,0.26610000000149014,0.2833000000007466,0.2999000000022356,0.31650000000000134,0.33280000000074494,0.3465000000000025,0.3666999999992555,0.3833000000007445,0.40000000000000213,0.4166000000014911,0.43310000000149174,0.4414000000022362,0.46669999999925693,0.48340000000223426,0.49969999999925463,0.5164000000022355,0.533400000002235,0.5496999999992553,0.566199999999256,0.5736999999992562,0.5884000000022347,0.6050000000000004,0.6316999999992561,0.6403000000007459,0.6661999999992574]",,1,0,1,0,1,,,,
,,123,2024-08-05_15h30.14.246,GoFitts,2022.2.4,Win32,59.88023952,,,,,,,,,,,,,,,,,,"[-192.14153616405005,-139.59899741946234]","[158.91851901022883,176.49689605088113]",40.5,475,1,"[-202,-200,-198,-195.333251953125,-190.6666259765625,-186.6666259765625,-183.333251953125,-182,-182,-182,-182,-182,-182,-182,-182,-175.333251953125,-155.333251953125,-114.6666259765625,-64,-39.333251953125,22,47.3333740234375,64.666748046875,80.666748046875,88.666748046875,94,98,98.666748046875,98.666748046875,98.666748046875,99.3333740234375,99.3333740234375,99.3333740234375,99.3333740234375,99.3333740234375,100,115.3333740234375,124.666748046875,154.666748046875,172.666748046875,182,184,185.3333740234375,185.3333740234375,186,186,186,186,186,186,186,179.3333740234375,173.3333740234375,169.3333740234375,167.3333740234375,166.666748046875]","[-153.3333740234375,-151.3333740234375,-148,-145.3333740234375,-140.66668701171875,-138,-134.66668701171875,-132.66668701171875,-132.66668701171875,-132.66668701171875,-132.66668701171875,-132.66668701171875,-132.66668701171875,-132.66668701171875,-132.66668701171875,-128.66668701171875,-118,-94.66668701171875,-63.3333740234375,-46.66668701171875,-0.66668701171875,24.6666259765625,46,70.6666259765625,84.6666259765625,102,112,116,120,122,126,130.6666259765625,133.33331298828125,135.33331298828125,135.33331298828125,136.6666259765625,142,144,149.33331298828125,153.33331298828125,156.6666259765625,158,158.6666259765625,159.33331298828125,161.33331298828125,161.33331298828125,161.33331298828125,161.33331298828125,161.33331298828125,161.33331298828125,161.33331298828125,159.33331298828125,158.6666259765625,158,158,158]","[0,0,0,0,0,0,0,0,0,0,0,0,0,0,0,0,0,0,0,0,0,0,0,0,0,0,0,0,0,0,0,0,0,0,0,0,0,0,0,0,0,0,0,0,0,0,0,0,0,0,0,0,0,0,0,0]","[0,0,0,0,0,0,0,0,0,0,0,0,0,0,0,0,0,0,0,0,0,0,0,0,0,0,0,0,0,0,0,0,0,0,0,0,0,0,0,0,0,0,0,0,0,0,0,0,0,0,0,0,0,0,0,0]","[0,0,0,0,0,0,0,0,0,0,0,0,0,0,0,0,0,0,0,0,0,0,0,0,0,0,0,0,0,0,0,0,0,0,0,0,0,0,0,0,0,0,0,0,0,0,0,0,0,0,0,0,0,0,0,0]","[0.00029999999701857405,0.0167999999970192,0.03329999999701627,0.04959999999776343,0.06609999999776406,0.08309999999776352,0.09989999999850951,0.11669999999925196,0.1333999999985096,0.15039999999850906,0.16669999999925267,0.18349999999999866,0.19189999999850826,0.21739999999850923,0.22639999999850957,0.2507999999970174,0.26709999999776457,0.2833999999985082,0.3002999999970193,0.30879999999701724,0.33439999999850656,0.35079999999701883,0.366899999998509,0.38359999999776306,0.3999999999999986,0.41699999999999804,0.4335999999977638,0.45039999999850977,0.46709999999776386,0.4835999999977645,0.5002999999970186,0.5170999999977646,0.5344999999999978,0.5428999999985074,0.5675999999977641,0.5763999999985074,0.6008999999985072,0.6090999999977633,0.6343999999985073,0.6510999999977614,0.667599999997762,0.6840999999977626,0.700999999999997,0.7168999999985068,0.7341999999992517,0.7419999999999973,0.7551999999992525,0.7718999999985066,0.7883999999985072,0.8177999999970176,0.825999999999997,0.8488999999985083,0.8671999999992543,0.8835999999977631,0.9006999999992544,0.9171999999992515]",,2,0,2,0,1,,,,
,,123,2024-08-05_15h30.14.246,GoFitts,2022.2.4,Win32,59.88023952,,,,,,,,,,,,,,,,,,"[158.91851901022883,176.49689605088113]","[-118.7500000000001,-205.68103339880412]",40.5,475,1,"[166.666748046875,166.666748046875,166.666748046875,166.666748046875,166.666748046875,166.666748046875,166.666748046875,166.666748046875,166.666748046875,166.666748046875,167.3333740234375,167.3333740234375,167.3333740234375,167.3333740234375,167.3333740234375,162,129.3333740234375,99.3333740234375,63.3333740234375,31.3333740234375,6,-14.6666259765625,-29.333251953125,-40.6666259765625,-49.333251953125,-56.6666259765625,-60.6666259765625,-67.333251953125,-77.333251953125,-82.6666259765625,-85.333251953125,-87.333251953125,-90,-95.333251953125,-101.333251953125,-108.6666259765625,-110,-114.6666259765625,-115.333251953125,-115.333251953125,-115.333251953125]","[158,158,158,158,158,158,159.33331298828125,159.33331298828125,159.33331298828125,159.33331298828125,161.33331298828125,161.33331298828125,161.33331298828125,161.33331298828125,161.33331298828125,154,106.6666259765625,51.33331298828125,-17.3333740234375,-82.66668701171875,-130,-164.66668701171875,-186,-200.66668701171875,-209.3333740234375,-216.66668701171875,-223.3333740234375,-232.66668701171875,-242.66668701171875,-246,-247.3333740234375,-248.66668701171875,-249.3333740234375,-249.3333740234375,-249.3333740234375,-248,-246.66668701171875,-241.3333740234375,-235.3333740234375,-229.3333740234375,-223.3333740234375]","[0,0,0,0,0,0,0,0,0,0,0,0,0,0,0,0,0,0,0,0,0,0,0,0,0,0,0,0,0,0,0,0,0,0,0,0,0,0,0,0,0]","[0,0,0,0,0,0,0,0,0,0,0,0,0,0,0,0,0,0,0,0,0,0,0,0,0,0,0,0,0,0,0,0,0,0,0,0,0,0,0,0,0]","[0,0,0,0,0,0,0,0,0,0,0,0,0,0,0,0,0,0,0,0,0,0,0,0,0,0,0,0,0,0,0,0,0,0,0,0,0,0,0,0,0]","[0.00039999999851048074,0.016199999999255255,0.02409999999776602,0.04379999999702022,0.0666999999992548,0.0765000000000029,0.1003999999985119,0.11659999999776716,0.1255999999977675,0.13789999999850977,0.15489999999851278,0.18289999999851148,0.19200000000000017,0.21649999999999991,0.22489999999850951,0.23819999999925656,0.26639999999851227,0.2826999999992559,0.29989999999851236,0.31619999999925597,0.3326999999992566,0.3492999999970223,0.3658999999985113,0.3827999999970224,0.39969999999925676,0.4166999999992562,0.4328999999985115,0.4493999999985121,0.46550000000000225,0.482099999997768,0.4992999999970209,0.5158999999985099,0.5323999999985105,0.54939999999851,0.5660999999977676,0.5827999999970217,0.5905999999977674,0.6165999999977672,0.6326999999992573,0.6495999999977649,0.6657999999970201]",,3,0,3,0,1,,,,
,,123,2024-08-05_15h30.14.246,GoFitts,2022.2.4,Win32,59.88023952,,,,,,,,,,,,,,,,,,"[-118.7500000000001,-205.68103339880412]","[73.39153616405002,225.87592262009898]",40.5,475,1,"[-115.333251953125,-115.333251953125,-115.333251953125,-114.6666259765625,-114.6666259765625,-114.6666259765625,-114,-114,-114,-114,-114,-114,-114,-114,-108.6666259765625,-97.333251953125,-57.333251953125,-34,-24,6,22,28,34,35.3333740234375,34.666748046875,34.666748046875,40.666748046875,44.666748046875,49.3333740234375,52,54.666748046875,56.666748046875,58,58.666748046875,59.3333740234375,60,64.666748046875,68.666748046875,72.666748046875,76.666748046875]","[-223.3333740234375,-220.66668701171875,-218.66668701171875,-216,-214.66668701171875,-213.3333740234375,-212,-211.3333740234375,-211.3333740234375,-211.3333740234375,-211.3333740234375,-211.3333740234375,-211.3333740234375,-211.3333740234375,-210.66668701171875,-208.66668701171875,-203.3333740234375,-194.66668701171875,-189.3333740234375,-164.66668701171875,-142,-126.66668701171875,-82,-50.66668701171875,-2,34,61.33331298828125,83.33331298828125,100.6666259765625,113.33331298828125,124,131.33331298828125,135.33331298828125,141.33331298828125,146.6666259765625,154,170,185.33331298828125,198,213.33331298828125]","[0,0,0,0,0,0,0,0,0,0,0,0,0,0,0,0,0,0,0,0,0,0,0,0,0,0,0,0,0,0,0,0,0,0,0,0,0,0,0,0]","[0,0,0,0,0,0,0,0,0,0,0,0,0,0,0,0,0,0,0,0,0,0,0,0,0,0,0,0,0,0,0,0,0,0,0,0,0,0,0,0]","[0,0,0,0,0,0,0,0,0,0,0,0,0,0,0,0,0,0,0,0,0,0,0,0,0,0,0,0,0,0,0,0,0,0,0,0,0,0,0,0]","[0.00019999999925701673,0.016599999997765735,0.0336999999992571,0.05009999999776582,0.06689999999851182,0.08409999999776474,0.10050000000000026,0.11679999999702062,0.13369999999925497,0.1417999999970192,0.16689999999850968,0.1817999999970219,0.1900999999977664,0.20539999999851233,0.22219999999925477,0.23939999999851125,0.26739999999850994,0.28200000000000003,0.2907999999970201,0.3175999999977641,0.3338999999985113,0.34250000000000114,0.3670000000000009,0.3835000000000015,0.4001999999992556,0.4165999999977643,0.4335999999977673,0.45039999999850977,0.46669999999925693,0.4836999999992564,0.500199999999257,0.5168999999985111,0.5336999999992571,0.5504999999999995,0.5671999999992572,0.5837999999970194,0.60029999999702,0.6170000000000009,0.6342999999970225,0.6505999999977661]",,4,0,4,0,1,,,,
,,123,2024-08-05_15h30.14.246,GoFitts,2022.2.4,Win32,59.88023952,,,,,,,,,,,,,,,,,,"[73.39153616405002,225.87592262009898]","[-24.82551002606788,-236.1989501499649]",40.5,475,1,"[76.666748046875,79.3333740234375,80,84,86,86,86,86,86,86,86,86,84,80,78,75.3333740234375,73.3333740234375,72,72,69.3333740234375,64,50.666748046875,43.3333740234375,41.3333740234375,40,34,25.3333740234375,16.666748046875,11.3333740234375,6.666748046875,2,-0.6666259765625,-7.333251953125,-14,-16.6666259765625,-31.333251953125,-36,-38.6666259765625,-40,-41.333251953125,-41.333251953125,-40]","[213.33331298828125,230.66665649414062,240,262,272,276.6666564941406,278.6666564941406,278.6666564941406,278.6666564941406,278.6666564941406,278.6666564941406,278.6666564941406,270.6666564941406,259.33331298828125,249.33331298828125,237.33331298828125,216.66665649414062,191.33331298828125,156.6666259765625,120,84,12.6666259765625,-44,-107.3333740234375,-170.66668701171875,-202,-221.3333740234375,-237.3333740234375,-254,-269.3333740234375,-278.66668701171875,-280.66668701171875,-285.3333740234375,-289.3333740234375,-290,-291.3333740234375,-290.66668701171875,-288,-280.66668701171875,-270.66668701171875,-258.66668701171875,-248.66668701171875]","[0,0,0,0,0,0,0,0,0,0,0,0,0,0,0,0,0,0,0,0,0,0,0,0,0,0,0,0,0,0,0,0,0,0,0,0,0,0,0,0,0,0]","[0,0,0,0,0,0,0,0,0,0,0,0,0,0,0,0,0,0,0,0,0,0,0,0,0,0,0,0,0,0,0,0,0,0,0,0,0,0,0,0,0,0]","[0,0,0,0,0,0,0,0,0,0,0,0,0,0,0,0,0,0,0,0,0,0,0,0,0,0,0,0,0,0,0,0,0,0,0,0,0,0,0,0,0,0]","[0.0003000000007453707,0.016500000000000625,0.02430000000074628,0.04930000000074486,0.06619999999925597,0.08319999999925543,0.10010000000148978,0.11630000000074503,0.12430000000074415,0.13739999999851094,0.16469999999925378,0.18010000000148807,0.18989999999850937,0.21680000000074529,0.2333000000007459,0.24950000000000117,0.26610000000149014,0.2826999999992559,0.29969999999925534,0.31619999999925597,0.3331000000014903,0.34960000000149094,0.366100000001488,0.38280000000074565,0.39939999999850784,0.41619999999925383,0.4331999999992533,0.4498000000007458,0.46619999999925454,0.48289999999850863,0.5,0.508699999999255,0.531800000000743,0.5411999999992538,0.5546999999992543,0.5835000000000008,0.5998999999985095,0.616300000000745,0.633100000001491,0.6496999999992532,0.6664999999999992,0.6833999999985103]",,5,0,5,0,1,,,,
,,123,2024-08-05_15h30.14.246,GoFitts,2022.2.4,Win32,59.88023952,,,,,,,,,,,,,,,,,,"[-24.82551002606788,-236.1989501499649]","[-24.825510026067665,236.19895014996493]",40.5,475,1,"[-40,-35.333251953125,-34,-27.333251953125,-24,-22,-10.6666259765625,-4.6666259765625,-1.333251953125,-0.6666259765625,0,0,0,6,13.3333740234375,19.3333740234375,49.3333740234375,60,65.3333740234375,66,65.3333740234375,37.3333740234375,-4,-42.6666259765625,-61.333251953125,-67.333251953125,-70.6666259765625,-72.6666259765625,-72.6666259765625,-72.6666259765625,-64,-58.6666259765625,-56,-56,-54.6666259765625,-54,-50.6666259765625,-46.6666259765625,-41.333251953125,-37.333251953125,-35.333251953125,-31.333251953125]","[-248.66668701171875,-239.3333740234375,-237.3333740234375,-234,-234,-234,-234,-234,-234,-234,-234,-234,-234,-234,-231.3333740234375,-227.3333740234375,-205.3333740234375,-189.3333740234375,-170,-144.66668701171875,-130,-46.66668701171875,32.6666259765625,106.6666259765625,154,180,204,214.66665649414062,242,247.33331298828125,256,258.6666564941406,259.33331298828125,259.33331298828125,260,260,260,259.33331298828125,257.33331298828125,255.33331298828125,254,250.66665649414062]","[0,0,0,0,0,0,0,0,0,0,0,0,0,0,0,0,0,0,0,0,0,0,0,0,0,0,0,0,0,0,0,0,0,0,0,0,0,0,0,0,0,0]","[0,0,0,0,0,0,0,0,0,0,0,0,0,0,0,0,0,0,0,0,0,0,0,0,0,0,0,0,0,0,0,0,0,0,0,0,0,0,0,0,0,0]","[0,0,0,0,0,0,0,0,0,0,0,0,0,0,0,0,0,0,0,0,0,0,0,0,0,0,0,0,0,0,0,0,0,0,0,0,0,0,0,0,0,0]","[0.0003000000007453707,0.0160999999977669,0.024800000000745115,0.049500000000001876,0.06569999999925713,0.07389999999850971,0.09930000000074557,0.1158999999985113,0.13239999999851193,0.14959999999776485,0.16600000000000037,0.18230000000074398,0.19059999999776522,0.21649999999999991,0.2253000000007468,0.23759999999776582,0.2658000000007448,0.28209999999776514,0.298800000000746,0.31539999999851176,0.3230999999977655,0.34959999999776414,0.3658000000007462,0.38209999999776656,0.399099999997766,0.415899999998512,0.432500000000001,0.44069999999925713,0.46580000000074406,0.4735999999977665,0.4983000000007465,0.5153000000007459,0.532,0.5486999999992541,0.5616999999992558,0.5825999999977647,0.5991999999992537,0.6158999999985113,0.625,0.648899999998509,0.6655000000000015,0.6818999999985103]",,6,0,6,0,1,,,,
,,123,2024-08-05_15h30.14.246,GoFitts,2022.2.4,Win32,59.88023952,,,,,,,,,,,,,,,,,,"[-24.825510026067665,236.19895014996493]","[73.39153616404997,-225.875922620099]",40.5,475,1,"[-31.333251953125,-28,-24,-22.6666259765625,-22,-21.333251953125,-20,-19.333251953125,-18.6666259765625,-18.6666259765625,-18,-15.333251953125,-12,-6,1.3333740234375,14,22.666748046875,32,38,44.666748046875,46.666748046875,48.666748046875,52.666748046875,56,58.666748046875,62,64,66.666748046875,70,73.3333740234375,75.3333740234375]","[250.66665649414062,246.66665649414062,242.66665649414062,239.33331298828125,238,235.33331298828125,232,226.66665649414062,222.66665649414062,217.33331298828125,212,200,186.6666259765625,167.33331298828125,138,94,49.33331298828125,4.6666259765625,-31.3333740234375,-62.66668701171875,-87.3333740234375,-111.3333740234375,-138,-150.66668701171875,-161.3333740234375,-171.3333740234375,-178.66668701171875,-186.66668701171875,-194,-200.66668701171875,-207.3333740234375]","[0,0,0,0,0,0,0,0,0,0,0,0,0,0,0,0,0,0,0,0,0,0,0,0,0,0,0,0,0,0,0]","[0,0,0,0,0,0,0,0,0,0,0,0,0,0,0,0,0,0,0,0,0,0,0,0,0,0,0,0,0,0,0]","[0,0,0,0,0,0,0,0,0,0,0,0,0,0,0,0,0,0,0,0,0,0,0,0,0,0,0,0,0,0,0]","[0.000199999999253464,0.016800000000745996,0.03330000000074662,0.049800000000743694,0.0666999999992548,0.08330000000074378,0.09989999999850951,0.1166000000014904,0.1335000000000015,0.15010000000149049,0.16669999999925622,0.1833999999985103,0.1999999999999993,0.21719999999925577,0.2339999999999982,0.25060000000149074,0.2671999999992565,0.2833999999985082,0.3008000000007449,0.31739999999851065,0.3343999999985101,0.3431000000014883,0.3678999999985102,0.3841999999992538,0.40080000000074634,0.4175000000000004,0.43389999999850914,0.4508999999985086,0.4676000000014895,0.4843999999985087,0.5011999999992547]",,7,0,7,0,1,,,,
,,123,2024-08-05_15h30.14.246,GoFitts,2022.2.4,Win32,59.88023952,,,,,,,,,,,,,,,,,,"[73.39153616404997,-225.875922620099]","[-118.74999999999994,205.6810333988042]",40.5,475,1,"[75.3333740234375,78,78.666748046875,81.3333740234375,81.3333740234375,81.3333740234375,81.3333740234375,81.3333740234375,81.3333740234375,82.666748046875,83.3333740234375,83.3333740234375,83.3333740234375,83.3333740234375,83.3333740234375,85.3333740234375,89.3333740234375,86.666748046875,82.666748046875,50,8.666748046875,-50,-110,-152.6666259765625,-169.333251953125,-174,-174,-172,-162.6666259765625,-160,-159.333251953125,-159.333251953125,-159.333251953125,-159.333251953125,-158.6666259765625,-153.333251953125,-152,-144,-140.6666259765625,-138.6666259765625,-138,-136]","[-207.3333740234375,-214.66668701171875,-218,-224,-224,-224,-224,-224,-225.3333740234375,-227.3333740234375,-228,-228,-228,-228,-228,-224,-201.3333740234375,-178.66668701171875,-161.3333740234375,-89.3333740234375,-27.3333740234375,44.6666259765625,112.6666259765625,156.6666259765625,178.6666259765625,192.6666259765625,204.6666259765625,214.66665649414062,229.33331298828125,232.66665649414062,233.33331298828125,233.33331298828125,233.33331298828125,233.33331298828125,234,230.66665649414062,228.66665649414062,221.33331298828125,218,214.66665649414062,213.33331298828125,210]","[0,0,0,0,0,0,0,0,0,0,0,0,0,0,0,0,0,0,0,0,0,0,0,0,0,0,0,0,0,0,0,0,0,0,0,0,0,0,0,0,0,0]","[0,0,0,0,0,0,0,0,0,0,0,0,0,0,0,0,0,0,0,0,0,0,0,0,0,0,0,0,0,0,0,0,0,0,0,0,0,0,0,0,0,0]","[0,0,0,0,0,0,0,0,0,0,0,0,0,0,0,0,0,0,0,0,0,0,0,0,0,0,0,0,0,0,0,0,0,0,0,0,0,0,0,0,0,0]","[0.00039999999851048074,0.015899999998509884,0.02409999999776602,0.047199999999257614,0.06559999999776522,0.08239999999851122,0.09950000000000259,0.10809999999776565,0.13309999999776778,0.14769999999925787,0.16589999999851202,0.17389999999851113,0.19950000000000045,0.21579999999702082,0.22439999999851068,0.2380000000000031,0.26579999999702153,0.28209999999776514,0.29039999999850963,0.31569999999925713,0.33209999999776585,0.34889999999851184,0.3655000000000008,0.3821999999992549,0.39839999999851017,0.41519999999925616,0.4321999999992556,0.4491999999992551,0.465299999997022,0.48229999999702144,0.49900000000000233,0.515500000000003,0.5322999999970222,0.5470999999977657,0.5656999999992571,0.5820999999977658,0.590299999997022,0.6156999999992578,0.6316999999992561,0.6481999999992567,0.6557999999970221,0.6823999999985126]",,8,0,8,0,1,,,,
,,123,2024-08-05_15h30.14.246,GoFitts,2022.2.4,Win32,59.88023952,,,,,,,,,,,,,,,,,,"[-118.74999999999994,205.6810333988042]","[158.9185190102289,-176.49689605088108]",40.5,475,1,"[-136,-134.6666259765625,-134,-133.333251953125,-132.6666259765625,-132,-131.333251953125,-130,-125.333251953125,-118.6666259765625,-113.333251953125,-107.333251953125,-101.333251953125,-94,-82,-66.6666259765625,-45.333251953125,-14,8.666748046875,26.666748046875,38,42,54.666748046875,70.666748046875,80.666748046875,89.3333740234375,96,100,101.3333740234375,101.3333740234375,102,106.666748046875,111.3333740234375,113.3333740234375,122,123.3333740234375,124,124.666748046875,126.666748046875,130.666748046875,137.3333740234375,144,148.666748046875]","[210,207.33331298828125,206.6666259765625,206,205.33331298828125,205.33331298828125,204.6666259765625,203.33331298828125,200,196.6666259765625,194,189.33331298828125,181.33331298828125,169.33331298828125,150.6666259765625,126,95.33331298828125,51.33331298828125,20.6666259765625,-4.66668701171875,-24.66668701171875,-33.3333740234375,-58.66668701171875,-83.3333740234375,-94,-101.3333740234375,-106.66668701171875,-110.66668701171875,-112,-112,-112.66668701171875,-118.66668701171875,-124.66668701171875,-126.66668701171875,-132,-133.3333740234375,-134,-135.3333740234375,-138,-143.3333740234375,-151.3333740234375,-161.3333740234375,-166.66668701171875]","[0,0,0,0,0,0,0,0,0,0,0,0,0,0,0,0,0,0,0,0,0,0,0,0,0,0,0,0,0,0,0,0,0,0,0,0,0,0,0,0,0,0,0]","[0,0,0,0,0,0,0,0,0,0,0,0,0,0,0,0,0,0,0,0,0,0,0,0,0,0,0,0,0,0,0,0,0,0,0,0,0,0,0,0,0,0,0]","[0,0,0,0,0,0,0,0,0,0,0,0,0,0,0,0,0,0,0,0,0,0,0,0,0,0,0,0,0,0,0,0,0,0,0,0,0,0,0,0,0,0,0]","[0.000300000000741818,0.015999999999998238,0.03269999999925233,0.04939999999850997,0.06449999999999889,0.0800999999977634,0.09949999999999903,0.11630000000074503,0.13319999999925258,0.15019999999925204,0.15899999999999892,0.18309999999776494,0.19969999999925392,0.216399999998508,0.232999999999997,0.2494999999999976,0.26609999999776335,0.28330000000074307,0.2998000000007437,0.3164999999999978,0.3330999999977635,0.3423000000007441,0.3665999999977636,0.38269999999925375,0.39909999999776247,0.4159999999999968,0.43299999999999983,0.449599999997762,0.4663000000007429,0.4810999999977632,0.4895999999977647,0.5164999999999971,0.5331999999992547,0.541999999999998,0.5670000000000002,0.5831999999992519,0.5999999999999979,0.6164999999999985,0.6333000000007445,0.6493000000007427,0.6658999999985085,0.6831999999992533,0.6999999999999993]",,9,0,9,0,1,,,,
,,123,2024-08-05_15h30.14.246,GoFitts,2022.2.4,Win32,59.88023952,,,,,,,,,,,,,,,,,,"[158.9185190102289,-176.49689605088108]","[-192.14153616405,139.5989974194624]",40.5,475,1,"[148.666748046875,152,153.3333740234375,153.3333740234375,154,154,154.666748046875,158.666748046875,161.3333740234375,162,162,162,162,162,162,161.3333740234375,132.666748046875,89.3333740234375,15.3333740234375,-20,-36,-76.6666259765625,-96.6666259765625,-107.333251953125,-138.6666259765625,-152,-158,-161.333251953125,-166,-172.6666259765625,-177.333251953125,-181.333251953125,-186.6666259765625,-190,-191.333251953125]","[-166.66668701171875,-172,-174,-174,-174,-174,-176.66668701171875,-183.3333740234375,-186.66668701171875,-187.3333740234375,-187.3333740234375,-187.3333740234375,-187.3333740234375,-187.3333740234375,-187.3333740234375,-187.3333740234375,-170.66668701171875,-144.66668701171875,-92,-53.3333740234375,-36,17.33331298828125,42,52,76,84,88.6666259765625,92.6666259765625,97.33331298828125,104.6666259765625,108,112,116.6666259765625,119.33331298828125,122.6666259765625]","[0,0,0,0,0,0,0,0,0,0,0,0,0,0,0,0,0,0,0,0,0,0,0,0,0,0,0,0,0,0,0,0,0,0,0]","[0,0,0,0,0,0,0,0,0,0,0,0,0,0,0,0,0,0,0,0,0,0,0,0,0,0,0,0,0,0,0,0,0,0,0]","[0,0,0,0,0,0,0,0,0,0,0,0,0,0,0,0,0,0,0,0,0,0,0,0,0,0,0,0,0,0,0,0,0,0,0]","[0.00039999999851048074,0.01769999999925531,0.033199999999254715,0.04939999999850997,0.05839999999851031,0.08309999999776352,0.0918999999985104,0.11629999999701823,0.13269999999925375,0.14909999999776247,0.16589999999850846,0.18249999999999744,0.1903999999985082,0.20379999999702036,0.23289999999850863,0.24209999999776244,0.2658999999985099,0.27399999999999736,0.29939999999850997,0.31609999999776406,0.3242999999970202,0.3493999999985071,0.36589999999850775,0.3740999999977639,0.39939999999850784,0.41600000000000037,0.43309999999776494,0.4498999999985074,0.45869999999925426,0.4830999999977621,0.49939999999850926,0.5160999999977633,0.5326999999992523,0.5492999999970181,0.5662999999970175]",,10,0,10,0,1,,,,
,,123,2024-08-05_15h30.14.246,GoFitts,2022.2.4,Win32,59.88023952,,,,,,,,,,,,,,,,,,"[-192.14153616405,139.5989974194624]","[216.96704619011774,-96.59995273050254]",40.5,475,1,"[-191.333251953125,-192,-192,-191.333251953125,-191.333251953125,-190.6666259765625,-190.6666259765625,-190,-190,-190,-190,-186,-160.6666259765625,-115.333251953125,-74.6666259765625,-36,-4.6666259765625,24.666748046875,49.3333740234375,82.666748046875,100.666748046875,115.3333740234375,128,141.3333740234375,152,161.3333740234375,166.666748046875,171.3333740234375,176.666748046875,180.666748046875,187.3333740234375,189.3333740234375,191.3333740234375,195.3333740234375,199.3333740234375,204.666748046875]","[122.6666259765625,124,125.33331298828125,128.6666259765625,130.6666259765625,131.33331298828125,134,134.6666259765625,135.33331298828125,135.33331298828125,135.33331298828125,135.33331298828125,123.33331298828125,106,88.6666259765625,70,52,35.33331298828125,20,2,-6,-12.66668701171875,-19.3333740234375,-26.66668701171875,-33.3333740234375,-41.3333740234375,-45.3333740234375,-50.66668701171875,-54.66668701171875,-59.3333740234375,-64,-66,-68.66668701171875,-74.66668701171875,-78.66668701171875,-83.3333740234375]","[0,0,0,0,0,0,0,0,0,0,0,0,0,0,0,0,0,0,0,0,0,0,0,0,0,0,0,0,0,0,0,0,0,0,0,0]","[0,0,0,0,0,0,0,0,0,0,0,0,0,0,0,0,0,0,0,0,0,0,0,0,0,0,0,0,0,0,0,0,0,0,0,0]","[0,0,0,0,0,0,0,0,0,0,0,0,0,0,0,0,0,0,0,0,0,0,0,0,0,0,0,0,0,0,0,0,0,0,0,0]","[0.00039999999851048074,0.016199999999255255,0.03269999999925588,0.049599999997766986,0.0666999999992548,0.07569999999925514,0.09959999999776414,0.10769999999925517,0.1335000000000015,0.14949999999999974,0.157799999997021,0.17089999999851102,0.18779999999702213,0.21629999999701965,0.23259999999776682,0.24950000000000117,0.26619999999925525,0.28339999999851173,0.29969999999925534,0.31619999999925597,0.3325999999977647,0.3495000000000026,0.3661999999992567,0.38289999999851076,0.39969999999925676,0.4166999999992562,0.4328999999985115,0.44969999999925747,0.46669999999925693,0.4805000000000028,0.49979999999701974,0.5160999999977669,0.532799999997021,0.549599999997767,0.5660000000000025,0.5825999999977647]",,11,0,11,0,1,,,,
,,123,2024-08-05_15h30.14.246,GoFitts,2022.2.4,Win32,59.88023952,,,,,,,,,,,,,,,,,,"[216.96704619011774,-96.59995273050254]","[-232.31005517427886,49.379026569217835]",40.5,475,1,"[204.666748046875,208.666748046875,211.3333740234375,212,212.666748046875,213.3333740234375,213.3333740234375,213.3333740234375,213.3333740234375,213.3333740234375,213.3333740234375,213.3333740234375,197.3333740234375,164,119.3333740234375,64,-2,-44.6666259765625,-73.333251953125,-92.6666259765625,-115.333251953125,-130.6666259765625,-148,-162,-178.6666259765625,-194,-207.333251953125,-220,-229.333251953125,-237.333251953125]","[-83.3333740234375,-86.66668701171875,-88,-89.3333740234375,-90,-90,-90,-90,-90,-90,-90,-90,-90.66668701171875,-86.66668701171875,-78,-68.66668701171875,-54.66668701171875,-44.66668701171875,-37.3333740234375,-30.66668701171875,-20.66668701171875,-13.3333740234375,-6,0,6.6666259765625,12.6666259765625,18,22.6666259765625,27.33331298828125,32]","[0,0,0,0,0,0,0,0,0,0,0,0,0,0,0,0,0,0,0,0,0,0,0,0,0,0,0,0,0,0]","[0,0,0,0,0,0,0,0,0,0,0,0,0,0,0,0,0,0,0,0,0,0,0,0,0,0,0,0,0,0]","[0,0,0,0,0,0,0,0,0,0,0,0,0,0,0,0,0,0,0,0,0,0,0,0,0,0,0,0,0,0]","[0.000199999999253464,0.016500000000000625,0.033500000000000085,0.05000000000000071,0.06700000000000017,0.08339999999850889,0.09159999999776502,0.10429999999701778,0.1332999999970177,0.14209999999776457,0.1664999999999992,0.1750000000000007,0.20019999999925275,0.21629999999701965,0.23329999999701911,0.2498999999985081,0.2665000000000006,0.2835000000000001,0.29929999999701806,0.31599999999999895,0.3324999999999996,0.34949999999999903,0.3661999999992531,0.38309999999776423,0.3996999999992532,0.41619999999925383,0.4332999999970184,0.4496999999992539,0.4667999999970185,0.483199999999254]",,12,0,12,0,1,,,,
,,123,2024-08-05_15h30.14.246,GoFitts,2022.2.4,Win32,59.88023952,,,,,,,,,,,,,,,,,,"[-232.31005517427886,49.379026569217835]","[237.5,0]",40.5,475,1,"[-237.333251953125,-245.333251953125,-248.6666259765625,-257.33331298828125,-258.6666259765625,-259.33331298828125,-260,-260,-260,-252.6666259765625,-244.6666259765625,-208,-187.333251953125,-106,-28.6666259765625,8.666748046875,35.3333740234375,47.3333740234375,78,95.3333740234375,107.3333740234375,120,129.3333740234375,138,146,150,153.3333740234375,153.3333740234375,153.3333740234375,154,158,170.666748046875,190,209.3333740234375,224]","[32,35.33331298828125,36.6666259765625,40.6666259765625,41.33331298828125,42,42.6666259765625,42.6666259765625,42.6666259765625,43.33331298828125,43.33331298828125,40.6666259765625,36.6666259765625,24,13.33331298828125,10.6666259765625,8.6666259765625,7.33331298828125,7.33331298828125,7.33331298828125,7.33331298828125,8,8.6666259765625,8.6666259765625,8.6666259765625,8.6666259765625,8.6666259765625,8.6666259765625,8.6666259765625,8.6666259765625,8,5.33331298828125,0.6666259765625,-4.66668701171875,-6.66668701171875]","[0,0,0,0,0,0,0,0,0,0,0,0,0,0,0,0,0,0,0,0,0,0,0,0,0,0,0,0,0,0,0,0,0,0,0]","[0,0,0,0,0,0,0,0,0,0,0,0,0,0,0,0,0,0,0,0,0,0,0,0,0,0,0,0,0,0,0,0,0,0,0]","[0,0,0,0,0,0,0,0,0,0,0,0,0,0,0,0,0,0,0,0,0,0,0,0,0,0,0,0,0,0,0,0,0,0,0]","[0.00040000000223372467,0.01660000000148898,0.025400000002235856,0.04949999999999832,0.06619999999925597,0.08299999999999841,0.09999999999999787,0.11669999999925551,0.1333000000007445,0.14849999999999852,0.15700000000000003,0.18380000000074403,0.19299999999999784,0.21719999999925577,0.23349999999999937,0.2499000000022349,0.266600000001489,0.27540000000223586,0.2998000000007437,0.31490000000223617,0.3331000000014903,0.34750000000000014,0.36400000000000077,0.38140000000223395,0.3996000000014881,0.4146999999992538,0.4331000000014882,0.4496000000014888,0.4646999999992545,0.48160000000148884,0.5003000000007454,0.5166999999992541,0.5338000000007455,0.5500000000000007,0.5669000000022351]",,13,0,13,0,1,,,,
,,123,2024-08-05_15h30.14.246,GoFitts,2022.2.4,Win32,59.88023952,,,,,,,,,,,,,,,,,,"[237.5,0]","[-232.31005517427886,-49.37902656921778]",40.5,475,1,"[224,228.666748046875,228.666748046875,228.666748046875,228.666748046875,228.666748046875,236.666748046875,238,238,238,238,238,238,232.666748046875,208,181.3333740234375,163.3333740234375,48,-20.6666259765625,-88,-144,-184,-214,-238,-260.6666259765625,-277.33331298828125,-284,-298.6666259765625,-308,-318,-321.33331298828125,-323.33331298828125,-323.33331298828125,-323.33331298828125,-323.33331298828125,-320.6666259765625,-302,-280.6666259765625,-262,-251.333251953125,-239.333251953125]","[-6.66668701171875,-6.66668701171875,-6.66668701171875,-6.66668701171875,-6.66668701171875,-6.66668701171875,-6.66668701171875,-6.66668701171875,-6.66668701171875,-6.66668701171875,-6.66668701171875,-6.66668701171875,-6.66668701171875,-7.3333740234375,-11.3333740234375,-13.3333740234375,-16,-27.3333740234375,-39.3333740234375,-54.66668701171875,-67.3333740234375,-76,-80.66668701171875,-80.66668701171875,-80,-77.3333740234375,-76,-73.3333740234375,-72.66668701171875,-72.66668701171875,-72.66668701171875,-72.66668701171875,-72.66668701171875,-72.66668701171875,-72.66668701171875,-72.66668701171875,-70,-68.66668701171875,-68.66668701171875,-68,-66]","[0,0,0,0,0,0,0,0,0,0,0,0,0,0,0,0,0,0,0,0,0,0,0,0,0,0,0,0,0,0,0,0,0,0,0,0,0,0,0,0,0]","[0,0,0,0,0,0,0,0,0,0,0,0,0,0,0,0,0,0,0,0,0,0,0,0,0,0,0,0,0,0,0,0,0,0,0,0,0,0,0,0,0]","[0,0,0,0,0,0,0,0,0,0,0,0,0,0,0,0,0,0,0,0,0,0,0,0,0,0,0,0,0,0,0,0,0,0,0,0,0,0,0,0,0]","[0.0004000000022372774,0.01620000000298205,0.031800000000746564,0.03960000000149222,0.06650000000000134,0.07580000000074705,0.0998000000007444,0.11620000000297992,0.13280000000074565,0.14130000000074716,0.16610000000149228,0.17460000000149023,0.18770000000298026,0.20400000000000063,0.23280000000074708,0.2492000000029826,0.25780000000074565,0.2827000000029827,0.2991000000014914,0.3155000000000001,0.3324999999999996,0.3490000000000002,0.3654000000022357,0.3822000000029817,0.39880000000074745,0.4157000000029818,0.42440000000223677,0.44950000000000045,0.4660000000000011,0.4825000000000017,0.4907000000029811,0.5039000000022362,0.5328000000007442,0.5417000000029795,0.554000000000002,0.5712000000029818,0.5992000000029805,0.6140000000000008,0.633100000001491,0.6422000000029797,0.6660000000000004]",,14,0,14,0,1,,,,
,,123,2024-08-05_15h30.14.246,GoFitts,2022.2.4,Win32,59.88023952,,,,,,,,,,,,,,,,,,,,,,1,,,,,,,,,,,,,1,0,0,1
,,123,2024-08-05_15h30.14.246,GoFitts,2022.2.4,Win32,59.88023952,,,,,,,,,,,,,,,,return,0.734,"[299.3333740234375,74]","[-28.745327398604914,-273.49352122627516]",32.3,550,2,"[299.3333740234375,295.3333740234375,290.666748046875,288.666748046875,278,274,268.666748046875,262.666748046875,254.666748046875,245.3333740234375,239.3333740234375,233.3333740234375,226,218,210,198,190,181.3333740234375,174.666748046875,170,167.3333740234375,164,158.666748046875,152.666748046875,144.666748046875,138.666748046875,135.3333740234375,133.3333740234375,130,126,121.3333740234375,116,111.3333740234375,103.3333740234375,92.666748046875,77.3333740234375,59.3333740234375,40,28.666748046875,22.666748046875,10.666748046875,5.3333740234375,2.666748046875,0.666748046875,-1.333251953125,-1.333251953125,-6,-9.333251953125,-11.333251953125,-11.333251953125,-11.333251953125,-11.333251953125,-11.333251953125,-16.6666259765625]","[74,70.6666259765625,66,63.33331298828125,52.6666259765625,47.33331298828125,40,32,20,6.6666259765625,-4,-19.3333740234375,-34,-47.3333740234375,-59.3333740234375,-74.66668701171875,-82,-88.66668701171875,-92,-94,-96.66668701171875,-98.66668701171875,-101.3333740234375,-105.3333740234375,-113.3333740234375,-126,-146.66668701171875,-178.66668701171875,-192.66668701171875,-199.3333740234375,-207.3333740234375,-218,-228,-238,-246,-252,-257.3333740234375,-261.3333740234375,-264,-265.3333740234375,-268.66668701171875,-271.3333740234375,-272.66668701171875,-273.3333740234375,-274,-274,-276.66668701171875,-278.66668701171875,-280,-280,-280,-280,-280,-280]","[0,0,0,0,0,0,0,0,0,0,0,0,0,0,0,0,0,0,0,0,0,0,0,0,0,0,0,0,0,0,0,0,0,0,0,0,0,0,0,0,0,0,0,0,0,0,0,0,0,0,0,0,0,0]","[0,0,0,0,0,0,0,0,0,0,0,0,0,0,0,0,0,0,0,0,0,0,0,0,0,0,0,0,0,0,0,0,0,0,0,0,0,0,0,0,0,0,0,0,0,0,0,0,0,0,0,0,0,0]","[0,0,0,0,0,0,0,0,0,0,0,0,0,0,0,0,0,0,0,0,0,0,0,0,0,0,0,0,0,0,0,0,0,0,0,0,0,0,0,0,0,0,0,0,0,0,0,0,0,0,0,0,0,0]","[0.0008999999985093154,0.016800000000745996,0.032899999998509344,0.040899999998512016,0.06700000000000017,0.08330000000074733,0.10000000000000142,0.11669999999925551,0.1333000000007445,0.15010000000149049,0.1666000000014911,0.18350000000000222,0.20039999999850977,0.2168999999985104,0.23389999999850986,0.2505000000000024,0.266800000000746,0.283600000001492,0.2983999999985123,0.31730000000074554,0.33380000000074617,0.3501000000014898,0.36650000000000205,0.38289999999851076,0.40000000000000213,0.4166000000014911,0.43360000000149057,0.4501000000014912,0.4668999999985104,0.48389999999850986,0.5008000000007478,0.5176000000014902,0.5341999999992559,0.5508000000007449,0.5673000000007455,0.5850000000000009,0.5995000000000026,0.6159999999999997,0.6328999999985108,0.6418999999985111,0.6666000000014911,0.6848999999985104,0.7011999999992575,0.7173000000007477,0.7341999999992552,0.7423999999985114,0.7676000000014902,0.7840000000000025,0.8011999999992554,0.8173000000007455,0.825800000000747,0.8508999999985107,0.859800000000746,0.8841000000014887]",,0,0,0,0,1,,,,
,,123,2024-08-05_15h30.14.246,GoFitts,2022.2.4,Win32,59.88023952,,,,,,,,,,,,,,,,,,"[-28.745327398604914,-273.49352122627516]","[-28.745327398604665,273.49352122627516]",32.3,550,2,"[-16.6666259765625,-24,-30,-36,-38,-41.333251953125,-43.333251953125,-48,-51.333251953125,-53.333251953125,-54.6666259765625,-54,-49.333251953125,-41.333251953125,-24.6666259765625,3.3333740234375,27.3333740234375,38.666748046875,40.666748046875,34,18.666748046875,-2.6666259765625,-15.333251953125,-26]","[-280,-280,-279.3333740234375,-276.66668701171875,-274,-271.3333740234375,-266,-257.3333740234375,-249.3333740234375,-244,-236.66668701171875,-226.66668701171875,-217.3333740234375,-202.66668701171875,-176.66668701171875,-109.3333740234375,-28,64,134.6666259765625,176.6666259765625,210,240,257.33331298828125,272]","[0,0,0,0,0,0,0,0,0,0,0,0,0,0,0,0,0,0,0,0,0,0,0,0]","[0,0,0,0,0,0,0,0,0,0,0,0,0,0,0,0,0,0,0,0,0,0,0,0]","[0,0,0,0,0,0,0,0,0,0,0,0,0,0,0,0,0,0,0,0,0,0,0,0]","[0.000300000000741818,0.015800000000744774,0.03240000000223375,0.045999999999999375,0.06670000000297449,0.0829000000022333,0.09970000000297574,0.11649999999999494,0.13320000000297938,0.14990000000223347,0.16460000000148511,0.18310000000148818,0.19980000000074227,0.21640000000223125,0.23290000000223188,0.24930000000074415,0.26630000000074006,0.2831000000014896,0.29990000000223205,0.3163000000007443,0.3331000000014832,0.34999999999999076,0.3584999999999958,0.38310000000148037]",,1,0,1,0,1,,,,
,,123,2024-08-05_15h30.14.246,GoFitts,2022.2.4,Win32,59.88023952,,,,,,,,,,,,,,,,,,"[-28.745327398604665,273.49352122627516]","[84.9796734531105,-261.5405419811673]",32.3,550,2,"[-26,-27.333251953125,-28.6666259765625,-29.333251953125,-31.333251953125,-32.6666259765625,-34,-34,-34,-34,-34,-34,-34,-34,-34,-31.333251953125,-27.333251953125,-22,-17.333251953125,-12.6666259765625,-6.6666259765625,2,16.666748046875,40.666748046875,52.666748046875,65.3333740234375,74.666748046875,83.3333740234375,88,91.3333740234375,92,93.3333740234375,94.666748046875,97.3333740234375,100.666748046875,102.666748046875,104,104.666748046875,104,102.666748046875,100,98.666748046875,96,92.666748046875]","[272,275.33331298828125,278,282.6666564941406,290,296,302,305.33331298828125,308,308.6666564941406,308.6666564941406,308.6666564941406,308.6666564941406,308.6666564941406,308.6666564941406,294,278.6666564941406,257.33331298828125,234,202,169.33331298828125,124.6666259765625,70.6666259765625,-14,-57.3333740234375,-96,-124.66668701171875,-144,-156.66668701171875,-164.66668701171875,-170.66668701171875,-176,-182,-190,-196.66668701171875,-201.3333740234375,-206,-210,-215.3333740234375,-221.3333740234375,-229.3333740234375,-236.66668701171875,-244,-250]","[0,0,0,0,0,0,0,0,0,0,0,0,0,0,0,0,0,0,0,0,0,0,0,0,0,0,0,0,0,0,0,0,0,0,0,0,0,0,0,0,0,0,0,0]","[0,0,0,0,0,0,0,0,0,0,0,0,0,0,0,0,0,0,0,0,0,0,0,0,0,0,0,0,0,0,0,0,0,0,0,0,0,0,0,0,0,0,0,0]","[0,0,0,0,0,0,0,0,0,0,0,0,0,0,0,0,0,0,0,0,0,0,0,0,0,0,0,0,0,0,0,0,0,0,0,0,0,0,0,0,0,0,0,0]","[0.000300000000741818,0.016800000000742443,0.03280000000074068,0.049400000002236766,0.0659999999999954,0.08280000000074494,0.09949999999999903,0.11620000000297637,0.13310000000149103,0.1494999999999962,0.16610000000148517,0.1826000000014858,0.19080000000074193,0.2162000000029778,0.22470000000297574,0.25010000000148835,0.26630000000074006,0.28300000000000125,0.29960000000149023,0.3162000000029792,0.3329000000022333,0.34970000000297574,0.3584999999999994,0.38290000000223046,0.3994000000022311,0.41530000000074097,0.43030000000074153,0.44890000000223296,0.46590000000223597,0.48230000000074114,0.49930000000074415,0.5164000000022355,0.5326000000014872,0.5495000000000019,0.5662000000029792,0.5747000000029772,0.5998000000007409,0.616500000000002,0.6329999999999956,0.6498000000007451,0.6663000000007457,0.6833000000007416,0.6998000000007423,0.7166000000014918]",,2,0,2,0,1,,,,
,,123,2024-08-05_15h30.14.246,GoFitts,2022.2.4,Win32,59.88023952,,,,,,,,,,,,,,,,,,"[84.9796734531105,-261.5405419811673]","[-137.49999999999994,238.15698604072065]",32.3,550,2,"[92.666748046875,90.666748046875,90,86,84.666748046875,82,81.3333740234375,79.3333740234375,79.3333740234375,79.3333740234375,79.3333740234375,79.3333740234375,77.3333740234375,72,65.3333740234375,49.3333740234375,12,-44,-74.6666259765625,-84,-108.6666259765625,-116,-116.6666259765625,-116.6666259765625,-114.6666259765625,-114,-116.6666259765625,-120.6666259765625,-123.333251953125,-123.333251953125,-123.333251953125,-123.333251953125,-123.333251953125,-123.333251953125,-124.6666259765625,-128,-130.6666259765625]","[-250,-253.3333740234375,-254.66668701171875,-260.66668701171875,-263.3333740234375,-266,-268,-270.66668701171875,-271.3333740234375,-271.3333740234375,-271.3333740234375,-271.3333740234375,-262.66668701171875,-235.3333740234375,-206,-152,-75.3333740234375,25.33331298828125,74,90,130.6666259765625,147.33331298828125,157.33331298828125,166.6666259765625,176.6666259765625,188,199.33331298828125,208.66665649414062,215.33331298828125,216.66665649414062,216.66665649414062,216.66665649414062,216.66665649414062,216.66665649414062,218.66665649414062,222,224]","[0,0,0,0,0,0,0,0,0,0,0,0,0,0,0,0,0,0,0,0,0,0,0,0,0,0,0,0,0,0,0,0,0,0,0,0,0]","[0,0,0,0,0,0,0,0,0,0,0,0,0,0,0,0,0,0,0,0,0,0,0,0,0,0,0,0,0,0,0,0,0,0,0,0,0]","[0,0,0,0,0,0,0,0,0,0,0,0,0,0,0,0,0,0,0,0,0,0,0,0,0,0,0,0,0,0,0,0,0,0,0,0,0]","[0.0007000000029790954,0.016400000002235515,0.02490000000223347,0.049800000000743694,0.06610000000149086,0.08230000000074256,0.0991000000014921,0.11590000000223455,0.132700000002977,0.14920000000297762,0.16610000000149228,0.17450000000000188,0.18840000000223256,0.2162000000029778,0.23199999999999932,0.24900000000000233,0.257700000002977,0.28330000000074307,0.298800000000746,0.3068000000007416,0.332400000002238,0.34899999999999665,0.36549999999999727,0.3824000000022352,0.3990000000000009,0.41550000000000153,0.4314999999999998,0.4482000000029771,0.4654000000022336,0.4819999999999993,0.4899000000022369,0.5159999999999982,0.5324999999999989,0.5407000000029782,0.5652000000029815,0.5818000000007473,0.5983000000007479]",,3,0,3,0,1,,,,
,,123,2024-08-05_15h30.14.246,GoFitts,2022.2.4,Win32,59.88023952,,,,,,,,,,,,,,,,,,"[-137.49999999999994,238.15698604072065]","[184.01091674868607,-204.36482700628335]",32.3,550,2,"[-130.6666259765625,-134,-135.333251953125,-135.333251953125,-135.333251953125,-134.6666259765625,-130.6666259765625,-128,-122,-114,-108,-81.333251953125,-54.6666259765625,-19.333251953125,23.3333740234375,67.3333740234375,144,189.3333740234375,218,231.3333740234375,236,237.3333740234375,240.666748046875,241.3333740234375,242,242,242.666748046875,242.666748046875,242.666748046875,242.666748046875,242.666748046875,238,232,206,193.3333740234375]","[224,225.33331298828125,225.33331298828125,225.33331298828125,225.33331298828125,221.33331298828125,216.66665649414062,215.33331298828125,210.66665649414062,206.6666259765625,202.6666259765625,185.33331298828125,167.33331298828125,134.6666259765625,92,40.6666259765625,-56,-121.3333740234375,-167.3333740234375,-192.66668701171875,-206.66668701171875,-212,-225.3333740234375,-230.66668701171875,-234,-236.66668701171875,-240.66668701171875,-242.66668701171875,-243.3333740234375,-243.3333740234375,-244,-242.66668701171875,-238.66668701171875,-220.66668701171875,-211.3333740234375]","[0,0,0,0,0,0,0,0,0,0,0,0,0,0,0,0,0,0,0,0,0,0,0,0,0,0,0,0,0,0,0,0,0,0,0]","[0,0,0,0,0,0,0,0,0,0,0,0,0,0,0,0,0,0,0,0,0,0,0,0,0,0,0,0,0,0,0,0,0,0,0]","[0,0,0,0,0,0,0,0,0,0,0,0,0,0,0,0,0,0,0,0,0,0,0,0,0,0,0,0,0,0,0,0,0,0,0]","[0.00010000000148835397,0.017199999999256477,0.033100000001489605,0.05019999999925773,0.057899999998511475,0.08380000000074261,0.10030000000074324,0.1088000000007483,0.13400000000000034,0.15080000000074278,0.15930000000074784,0.1839999999999975,0.20039999999850977,0.21439999999851267,0.23360000000148773,0.2505000000000024,0.2671999999992565,0.2833999999985082,0.3003999999985112,0.3171000000014885,0.33369999999925426,0.3421999999992522,0.36730000000074625,0.3825000000000003,0.4008999999985079,0.4173000000007434,0.4343000000007464,0.45089999999851216,0.46750000000000114,0.4758000000007456,0.5013999999985117,0.5173999999985099,0.5260000000000034,0.5506000000014879,0.5671000000014885]",,4,0,4,0,1,,,,
,,123,2024-08-05_15h30.14.246,GoFitts,2022.2.4,Win32,59.88023952,,,,,,,,,,,,,,,,,,"[184.01091674868607,-204.36482700628335]","[-222.4796734531105,161.64094438043014]",32.3,550,2,"[193.3333740234375,186,182.666748046875,181.3333740234375,181.3333740234375,180.666748046875,180.666748046875,179.3333740234375,179.3333740234375,179.3333740234375,179.3333740234375,179.3333740234375,179.3333740234375,169.3333740234375,154,132.666748046875,108.666748046875,72,18,-81.333251953125,-130.6666259765625,-156,-166.6666259765625,-170.6666259765625,-171.333251953125,-172.6666259765625,-176,-182,-190.6666259765625,-200,-217.333251953125,-223.333251953125,-225.333251953125,-226,-227.333251953125,-229.333251953125,-232.6666259765625,-235.333251953125,-236]","[-211.3333740234375,-206,-203.3333740234375,-202.66668701171875,-202.66668701171875,-201.3333740234375,-200.66668701171875,-200,-200,-200,-200,-200,-199.3333740234375,-192,-182.66668701171875,-167.3333740234375,-144,-108,-59.3333740234375,16,50.6666259765625,69.33331298828125,79.33331298828125,82.6666259765625,84,85.33331298828125,87.33331298828125,90.6666259765625,95.33331298828125,100.6666259765625,112.6666259765625,116.6666259765625,120,122.6666259765625,128.6666259765625,136,144.6666259765625,151.33331298828125,154.6666259765625]","[0,0,0,0,0,0,0,0,0,0,0,0,0,0,0,0,0,0,0,0,0,0,0,0,0,0,0,0,0,0,0,0,0,0,0,0,0,0,0]","[0,0,0,0,0,0,0,0,0,0,0,0,0,0,0,0,0,0,0,0,0,0,0,0,0,0,0,0,0,0,0,0,0,0,0,0,0,0,0]","[0,0,0,0,0,0,0,0,0,0,0,0,0,0,0,0,0,0,0,0,0,0,0,0,0,0,0,0,0,0,0,0,0,0,0,0,0,0,0]","[0.000399999998506928,0.016199999999251702,0.0323000000007454,0.049399999998506416,0.06589999999850704,0.08289999999851005,0.09939999999851068,0.11619999999925312,0.1328000000007421,0.14960000000148455,0.16460000000148511,0.17260000000148779,0.2001000000014912,0.216399999998508,0.2333000000007459,0.24969999999925108,0.2665000000000006,0.2831999999992547,0.29189999999850613,0.31639999999850943,0.33310000000148676,0.3496999999992525,0.366100000001488,0.38269999999925375,0.39969999999924966,0.415699999999255,0.43289999999850437,0.4496000000014888,0.4663000000007429,0.482999999999997,0.49960000000148597,0.5158000000007448,0.5323999999985105,0.5499999999999972,0.5666000000014861,0.5796999999992494,0.599499999999999,0.6133000000007414,0.6333000000007445]",,5,0,5,0,1,,,,
,,123,2024-08-05_15h30.14.246,GoFitts,2022.2.4,Win32,59.88023952,,,,,,,,,,,,,,,,,,"[-222.4796734531105,161.64094438043014]","[251.22500085171527,-111.85257684584504]",32.3,550,2,"[-236,-236,-236,-232.6666259765625,-230,-224.6666259765625,-220.6666259765625,-217.333251953125,-214.6666259765625,-208.6666259765625,-205.333251953125,-188,-180,-176.6666259765625,-161.333251953125,-154.6666259765625,-108.6666259765625,-60.6666259765625,-10.6666259765625,35.3333740234375,72,100.666748046875,126,144,160,164.666748046875,174,183.3333740234375,190.666748046875,200,212,223.3333740234375,226.666748046875,226.666748046875,226.666748046875,226.666748046875,226.666748046875,230.666748046875,240,248.666748046875]","[154.6666259765625,157.33331298828125,158.6666259765625,160.6666259765625,161.33331298828125,162,162,162,162,158.6666259765625,156,147.33331298828125,142.6666259765625,141.33331298828125,130.6666259765625,125.33331298828125,90.6666259765625,60,32.6666259765625,12.6666259765625,0,-9.3333740234375,-18.66668701171875,-27.3333740234375,-36.66668701171875,-39.3333740234375,-47.3333740234375,-53.3333740234375,-59.3333740234375,-66,-76,-87.3333740234375,-90,-90,-90,-90,-90,-93.3333740234375,-99.3333740234375,-102.66668701171875]","[0,0,0,0,0,0,0,0,0,0,0,0,0,0,0,0,0,0,0,0,0,0,0,0,0,0,0,0,0,0,0,0,0,0,0,0,0,0,0,0]","[0,0,0,0,0,0,0,0,0,0,0,0,0,0,0,0,0,0,0,0,0,0,0,0,0,0,0,0,0,0,0,0,0,0,0,0,0,0,0,0]","[0,0,0,0,0,0,0,0,0,0,0,0,0,0,0,0,0,0,0,0,0,0,0,0,0,0,0,0,0,0,0,0,0,0,0,0,0,0,0,0]","[0.00039999999851403345,0.017099999997768123,0.03249999999999886,0.049500000000001876,0.06629999999702108,0.08289999999851005,0.09939999999851068,0.11650000000000205,0.13279999999701886,0.14989999999851022,0.15850000000000364,0.182699999999258,0.19969999999925392,0.20889999999851483,0.2330999999977692,0.2416999999992555,0.2661999999992588,0.2823999999985105,0.29919999999925295,0.31619999999925597,0.3325000000000031,0.34900000000000375,0.36599999999999966,0.3825999999977654,0.3995000000000033,0.4081999999992547,0.4335000000000022,0.4502999999970214,0.46650000000000347,0.48289999999850863,0.4992999999970209,0.5161999999992588,0.5331999999992547,0.5495000000000019,0.5662999999970211,0.5825999999977682,0.5964999999999989,0.6162999999970182,0.6326999999992537,0.6495000000000033]",,6,0,6,0,1,,,,
,,123,2024-08-05_15h30.14.246,GoFitts,2022.2.4,Win32,59.88023952,,,,,,,,,,,,,,,,,,"[251.22500085171527,-111.85257684584504]","[-268.9905902017966,57.17571497488381]",32.3,550,2,"[248.666748046875,254,255.3333740234375,255.3333740234375,255.3333740234375,255.3333740234375,255.3333740234375,255.3333740234375,256.666748046875,260,261.3333740234375,261.3333740234375,260.666748046875,244.666748046875,176.666748046875,116,52,-10.6666259765625,-57.333251953125,-87.333251953125,-110,-130.6666259765625,-154,-177.333251953125,-200.6666259765625,-209.333251953125,-228.6666259765625,-230.6666259765625,-231.333251953125,-231.333251953125,-231.333251953125,-231.333251953125,-232.6666259765625,-236.6666259765625,-237.333251953125,-238.6666259765625,-239.333251953125,-248.6666259765625,-252,-262.6666259765625]","[-102.66668701171875,-103.3333740234375,-103.3333740234375,-103.3333740234375,-103.3333740234375,-103.3333740234375,-103.3333740234375,-103.3333740234375,-103.3333740234375,-103.3333740234375,-103.3333740234375,-103.3333740234375,-103.3333740234375,-99.3333740234375,-84.66668701171875,-71.3333740234375,-60,-50,-42.66668701171875,-35.3333740234375,-28.66668701171875,-21.3333740234375,-11.3333740234375,-1.3333740234375,6.6666259765625,9.33331298828125,16,17.33331298828125,17.33331298828125,17.33331298828125,17.33331298828125,17.33331298828125,19.33331298828125,22.6666259765625,24.6666259765625,26.6666259765625,28.6666259765625,42,44.6666259765625,54]","[0,0,0,0,0,0,0,0,0,0,0,0,0,0,0,0,0,0,0,0,0,0,0,0,0,0,0,0,0,0,0,0,0,0,0,0,0,0,0,0]","[0,0,0,0,0,0,0,0,0,0,0,0,0,0,0,0,0,0,0,0,0,0,0,0,0,0,0,0,0,0,0,0,0,0,0,0,0,0,0,0]","[0,0,0,0,0,0,0,0,0,0,0,0,0,0,0,0,0,0,0,0,0,0,0,0,0,0,0,0,0,0,0,0,0,0,0,0,0,0,0,0]","[0.00020000000297670795,0.015900000002233128,0.032100000001491935,0.049400000002236766,0.06620000000297921,0.08260000000149148,0.09930000000074557,0.1075000000000017,0.12130000000074403,0.14960000000149165,0.1664000000022341,0.18299999999999983,0.1917000000029816,0.20430000000074244,0.23280000000074352,0.2494000000022325,0.2661000000014866,0.2827000000029827,0.29910000000148784,0.31610000000149086,0.3329000000022333,0.3496000000014874,0.3663000000007415,0.383100000001491,0.3994999999999962,0.40800000000000125,0.43220000000297887,0.449300000000747,0.46640000000223125,0.4829000000022319,0.49150000000000205,0.5042000000029816,0.5211000000014891,0.5497000000029786,0.5661000000014909,0.5829000000022333,0.5914000000022313,0.616500000000002,0.6300000000000026,0.64970000000298]",,7,0,7,0,1,,,,
,,123,2024-08-05_15h30.14.246,GoFitts,2022.2.4,Win32,59.88023952,,,,,,,,,,,,,,,,,,"[-268.9905902017966,57.17571497488381]","[275,0]",32.3,550,2,"[-262.6666259765625,-270.6666259765625,-273.33331298828125,-273.33331298828125,-273.33331298828125,-273.33331298828125,-273.33331298828125,-273.33331298828125,-271.33331298828125,-262,-245.333251953125,-204,-186.6666259765625,-104,-45.333251953125,4,46,85.3333740234375,115.3333740234375,144,156,181.3333740234375,192.666748046875,198.666748046875,206,213.3333740234375,220,222,222,222,222,232,248.666748046875,256.666748046875,274,275.3333740234375]","[54,57.33331298828125,58,58,58,58,58,58,58,57.33331298828125,54,47.33331298828125,44.6666259765625,35.33331298828125,32.6666259765625,30.6666259765625,29.33331298828125,26.6666259765625,26.6666259765625,26.6666259765625,26.6666259765625,28,29.33331298828125,29.33331298828125,29.33331298828125,30,30,30.6666259765625,30.6666259765625,30.6666259765625,30.6666259765625,29.33331298828125,26,23.33331298828125,16.6666259765625,16]","[0,0,0,0,0,0,0,0,0,0,0,0,0,0,0,0,0,0,0,0,0,0,0,0,0,0,0,0,0,0,0,0,0,0,0,0]","[0,0,0,0,0,0,0,0,0,0,0,0,0,0,0,0,0,0,0,0,0,0,0,0,0,0,0,0,0,0,0,0,0,0,0,0]","[0,0,0,0,0,0,0,0,0,0,0,0,0,0,0,0,0,0,0,0,0,0,0,0,0,0,0,0,0,0,0,0,0,0,0,0]","[0.000399999998506928,0.01659999999775863,0.03239999999851051,0.048799999997015675,0.06419999999925352,0.08149999999999835,0.08989999999850795,0.10389999999850374,0.13139999999850716,0.14929999999701948,0.15759999999776397,0.1823999999985091,0.1901999999992512,0.21599999999999397,0.23219999999925278,0.24839999999850448,0.2653999999985075,0.282599999997764,0.29919999999925295,0.31619999999924886,0.32499999999999574,0.3501999999992549,0.3661999999992531,0.38299999999999557,0.39939999999850784,0.4160999999977619,0.43299999999999983,0.44929999999701664,0.46579999999701727,0.4824999999999946,0.49909999999776034,0.5160999999977633,0.5326999999992523,0.5413999999985037,0.5661999999992489,0.5829999999999984]",,8,0,8,0,1,,,,
,,123,2024-08-05_15h30.14.246,GoFitts,2022.2.4,Win32,59.88023952,,,,,,,,,,,,,,,,,,"[275,0]","[-268.9905902017966,-57.175714974883746]",32.3,550,2,"[275.3333740234375,275.3333740234375,276,276.666748046875,279.3333740234375,284,292,296,296,296,296,296,296.666748046875,290,275.3333740234375,251.3333740234375,216,162,96.666748046875,31.3333740234375,-28.6666259765625,-74.6666259765625,-111.333251953125,-148.6666259765625,-170,-188,-200.6666259765625,-216,-228,-237.333251953125,-242.6666259765625,-246,-247.333251953125,-248.6666259765625,-249.333251953125,-250,-250,-250,-250,-250.6666259765625,-252,-254]","[16,16,13.33331298828125,11.33331298828125,8.6666259765625,4.6666259765625,0,-2,-2,-2,-2,-2,-3.3333740234375,-5.3333740234375,-6.66668701171875,-7.3333740234375,-8.66668701171875,-8.66668701171875,-8.66668701171875,-8.66668701171875,-8.66668701171875,-14.66668701171875,-21.3333740234375,-25.3333740234375,-28,-32,-36.66668701171875,-40.66668701171875,-44.66668701171875,-45.3333740234375,-45.3333740234375,-46.66668701171875,-46.66668701171875,-46.66668701171875,-47.3333740234375,-49.3333740234375,-50,-50,-50,-51.3333740234375,-54,-56.66668701171875]","[0,0,0,0,0,0,0,0,0,0,0,0,0,0,0,0,0,0,0,0,0,0,0,0,0,0,0,0,0,0,0,0,0,0,0,0,0,0,0,0,0,0]","[0,0,0,0,0,0,0,0,0,0,0,0,0,0,0,0,0,0,0,0,0,0,0,0,0,0,0,0,0,0,0,0,0,0,0,0,0,0,0,0,0,0]","[0,0,0,0,0,0,0,0,0,0,0,0,0,0,0,0,0,0,0,0,0,0,0,0,0,0,0,0,0,0,0,0,0,0,0,0,0,0,0,0,0,0]","[0.00039999999851403345,0.016099999997770453,0.0328999999985129,0.04939999999851352,0.06639999999851653,0.0827999999970217,0.09989999999851307,0.11600000000000676,0.13250000000000028,0.14769999999926142,0.16600000000000392,0.182699999999258,0.19959999999776556,0.2160999999977662,0.2330000000000041,0.24989999999851165,0.26600000000000534,0.2831999999992618,0.299599999997767,0.31619999999925597,0.3330999999977706,0.34989999999851307,0.3663999999985137,0.3830999999977678,0.4000000000000057,0.4166999999992598,0.43250000000000455,0.4490999999977703,0.4658999999985127,0.48239999999851335,0.49900000000000233,0.5156999999992564,0.5322999999970222,0.5491999999992601,0.5657999999970258,0.5822999999970264,0.5990999999977689,0.6155999999977695,0.6322999999970236,0.6400999999977657,0.6661999999992574,0.6830000000000069]",,9,0,9,0,1,,,,
,,123,2024-08-05_15h30.14.246,GoFitts,2022.2.4,Win32,59.88023952,,,,,,,,,,,,,,,,,,"[-268.9905902017966,-57.175714974883746]","[251.22500085171524,111.85257684584504]",32.3,550,2,"[-254,-256,-259.33331298828125,-260,-260,-260,-260,-260,-260,-260,-260.6666259765625,-252.6666259765625,-240.6666259765625,-220,-186.6666259765625,-140,-84.6666259765625,-26,29.3333740234375,96,120.666748046875,138,150.666748046875,163.3333740234375,182.666748046875,205.3333740234375,224,230.666748046875,231.3333740234375,231.3333740234375,232.666748046875,240,245.3333740234375,247.3333740234375,247.3333740234375,248,250,252,252.666748046875]","[-56.66668701171875,-60,-62,-63.3333740234375,-63.3333740234375,-64,-64,-64,-64,-64,-64,-56,-48.66668701171875,-39.3333740234375,-22,1.33331298828125,30,64,96.6666259765625,126.6666259765625,133.33331298828125,136.6666259765625,138.6666259765625,141.33331298828125,143.33331298828125,146,146.6666259765625,148,148,148,148,148,147.33331298828125,146.6666259765625,146.6666259765625,143.33331298828125,137.33331298828125,130.6666259765625,126.6666259765625]","[0,0,0,0,0,0,0,0,0,0,0,0,0,0,0,0,0,0,0,0,0,0,0,0,0,0,0,0,0,0,0,0,0,0,0,0,0,0,0]","[0,0,0,0,0,0,0,0,0,0,0,0,0,0,0,0,0,0,0,0,0,0,0,0,0,0,0,0,0,0,0,0,0,0,0,0,0,0,0]","[0,0,0,0,0,0,0,0,0,0,0,0,0,0,0,0,0,0,0,0,0,0,0,0,0,0,0,0,0,0,0,0,0,0,0,0,0,0,0]","[0.00019999999926056944,0.016400000002235515,0.03280000000074779,0.04960000000149023,0.06580000000074904,0.08260000000149148,0.09930000000074557,0.11630000000074858,0.12369999999926051,0.13710000000149591,0.15430000000074529,0.18160000000149523,0.19810000000149586,0.21480000000074995,0.23180000000074585,0.24819999999925813,0.26500000000000057,0.28160000000149665,0.2984000000022391,0.31480000000075137,0.3316999999992589,0.3491000000014921,0.36619999999926023,0.38290000000223756,0.39969999999925676,0.4164000000022412,0.4331000000014953,0.4496000000014959,0.46630000000075,0.48319999999925756,0.5,0.5163000000007472,0.5333000000007502,0.5499000000022392,0.5661000000014909,0.583199999999259,0.6001000000014969,0.6166999999992555,0.6336999999992585]",,10,0,10,0,1,,,,
,,123,2024-08-05_15h30.14.246,GoFitts,2022.2.4,Win32,59.88023952,,,,,,,,,,,,,,,,,,"[251.22500085171524,111.85257684584504]","[-222.4796734531106,-161.64094438043008]",32.3,550,2,"[252.666748046875,252,250,247.3333740234375,247.3333740234375,247.3333740234375,247.3333740234375,247.3333740234375,247.3333740234375,247.3333740234375,245.3333740234375,232,213.3333740234375,190,166.666748046875,118.666748046875,79.3333740234375,25.3333740234375,-26,-71.333251953125,-96,-114,-126,-132,-135.333251953125,-140,-147.333251953125,-158.6666259765625,-182,-192.6666259765625,-200.6666259765625,-205.333251953125,-208,-214]","[126.6666259765625,122,118.6666259765625,104,100,98,98,98,98,98,96,92,86,76,63.33331298828125,35.33331298828125,13.33331298828125,-11.3333740234375,-33.3333740234375,-58,-80.66668701171875,-92.66668701171875,-98,-102,-106,-110,-115.3333740234375,-120.66668701171875,-132,-139.3333740234375,-144.66668701171875,-148.66668701171875,-152,-156]","[0,0,0,0,0,0,0,0,0,0,0,0,0,0,0,0,0,0,0,0,0,0,0,0,0,0,0,0,0,0,0,0,0,0]","[0,0,0,0,0,0,0,0,0,0,0,0,0,0,0,0,0,0,0,0,0,0,0,0,0,0,0,0,0,0,0,0,0,0]","[0,0,0,0,0,0,0,0,0,0,0,0,0,0,0,0,0,0,0,0,0,0,0,0,0,0,0,0,0,0,0,0,0,0]","[0.00040000000223017196,0.015999999999998238,0.02499999999999858,0.049700000002978584,0.06590000000223029,0.08249999999999602,0.09899999999999665,0.10810000000148534,0.13230000000073971,0.1489000000022358,0.16570000000297824,0.18190000000222994,0.1987000000029795,0.2158000000007405,0.22480000000074085,0.24930000000074415,0.26590000000223313,0.28210000000148483,0.2989000000022344,0.3155000000000001,0.33220000000297745,0.3486000000014897,0.36549999999999727,0.3822000000029746,0.39910000000148926,0.41570000000297824,0.432300000000744,0.4492000000029748,0.465999999999994,0.482999999999997,0.49960000000148597,0.5164000000022355,0.5329999999999941,0.5496000000014902]",,11,0,11,0,1,,,,
,,123,2024-08-05_15h30.14.246,GoFitts,2022.2.4,Win32,59.88023952,,,,,,,,,,,,,,,,,,"[-222.4796734531106,-161.64094438043008]","[184.01091674868601,204.3648270062834]",32.3,550,2,"[-214,-219.333251953125,-224,-227.333251953125,-230,-230.6666259765625,-230.6666259765625,-230.6666259765625,-230.6666259765625,-230.6666259765625,-224.6666259765625,-212.6666259765625,-205.333251953125,-174,-134,-82.6666259765625,-22,30.666748046875,76.666748046875,124,149.3333740234375,171.3333740234375,186.666748046875,197.3333740234375,207.3333740234375,214,216.666748046875,218.666748046875,220,220.666748046875,224,226,227.3333740234375,228,228,228,228,221.3333740234375,212.666748046875,197.3333740234375]","[-156,-159.3333740234375,-162,-165.3333740234375,-167.3333740234375,-168,-168,-168,-168,-168,-164.66668701171875,-158.66668701171875,-154,-130,-96,-52,6.6666259765625,68.6666259765625,139.33331298828125,193.33331298828125,206.6666259765625,216,220.66665649414062,224.66665649414062,228.66665649414062,230.66665649414062,234,236.66665649414062,238,238.66665649414062,240,240.66665649414062,241.33331298828125,241.33331298828125,241.33331298828125,241.33331298828125,239.33331298828125,224.66665649414062,213.33331298828125,200]","[0,0,0,0,0,0,0,0,0,0,0,0,0,0,0,0,0,0,0,0,0,0,0,0,0,0,0,0,0,0,0,0,0,0,0,0,0,0,0,0]","[0,0,0,0,0,0,0,0,0,0,0,0,0,0,0,0,0,0,0,0,0,0,0,0,0,0,0,0,0,0,0,0,0,0,0,0,0,0,0,0]","[0,0,0,0,0,0,0,0,0,0,0,0,0,0,0,0,0,0,0,0,0,0,0,0,0,0,0,0,0,0,0,0,0,0,0,0,0,0,0,0]","[0.0003000000007489234,0.01639999999851227,0.03280000000074779,0.04969999999925534,0.0638999999985117,0.08239999999851477,0.09880000000075029,0.11330000000074847,0.12060000000149529,0.1363000000007446,0.1648999999985108,0.18200000000000216,0.1905000000000001,0.21600000000000108,0.2325000000000017,0.2491999999992558,0.2658999999985099,0.2826000000014943,0.29919999999926006,0.3156999999992536,0.33230000000074966,0.3491999999992572,0.3658999999985113,0.38239999999851193,0.3991999999992544,0.41589999999850846,0.432699999999258,0.449300000000747,0.4658999999985127,0.47489999999851307,0.49930000000074415,0.5158000000007448,0.5324999999999989,0.5493999999985135,0.5653999999985118,0.5818999999985124,0.5898999999985151,0.6158000000007462,0.6321999999992585,0.6488999999985126]",,12,0,12,0,1,,,,
