key_resp_4.keys,key_resp_4.rt,身分證字號,date,expName,psychopyVersion,OS,frameRate,mouse_2.x,mouse_2.y,mouse_2.leftButton,mouse_2.midButton,mouse_2.rightButton,mouse_2.time,cont.keys,cont.rt,retry_testing.thisRepN,retry_testing.thisTrialN,retry_testing.thisN,retry_testing.thisIndex,retry_testing.ran,key_resp.keys,key_resp.rt,key_resp_3.keys,key_resp_3.rt,from,to,w,a,sequence_loop.thisN,mouse.x,mouse.y,mouse.leftButton,mouse.midButton,mouse.rightButton,mouse.time,key_resp_2.keys,trial_loop.thisRepN,trial_loop.thisTrialN,trial_loop.thisN,trial_loop.thisIndex,trial_loop.ran,sequence_loop.thisRepN,sequence_loop.thisTrialN,sequence_loop.thisIndex,sequence_loop.ran
return,9.0767,123,2024-08-05_15h27.35.486,GoFitts,2022.2.4,Win32,60.24096386,,,,,,,,,,,,,,,,,,,,,,,,,,,,,,,,,,,,,,
,,123,2024-08-05_15h27.35.486,GoFitts,2022.2.4,Win32,60.24096386,"[249.3333740234375,249.3333740234375,249.3333740234375,249.3333740234375,249.3333740234375,249.3333740234375,249.3333740234375,249.3333740234375,249.3333740234375,249.3333740234375,249.3333740234375,249.3333740234375,249.3333740234375,249.3333740234375,249.3333740234375,249.3333740234375,249.3333740234375,249.3333740234375,249.3333740234375,249.3333740234375,249.3333740234375,249.3333740234375,249.3333740234375,249.3333740234375,249.3333740234375,249.3333740234375,249.3333740234375,249.3333740234375,249.3333740234375,249.3333740234375,249.3333740234375,249.3333740234375,249.3333740234375,249.3333740234375,249.3333740234375,249.3333740234375,249.3333740234375,249.3333740234375,249.3333740234375,249.3333740234375,249.3333740234375,249.3333740234375,249.3333740234375,249.3333740234375,249.3333740234375,249.3333740234375,249.3333740234375,249.3333740234375,249.3333740234375,249.3333740234375,249.3333740234375,249.3333740234375,249.3333740234375,249.3333740234375,249.3333740234375,249.3333740234375,249.3333740234375,249.3333740234375,249.3333740234375,249.3333740234375,249.3333740234375,249.3333740234375,249.3333740234375,249.3333740234375,249.3333740234375,253.3333740234375,253.3333740234375,253.3333740234375,254,255.3333740234375,259.3333740234375,261.3333740234375,262.666748046875,263.3333740234375,266,270,275.3333740234375,282,286.666748046875,290.666748046875,296.666748046875,300.666748046875,306,312,315.3333740234375,316.666748046875,319.3333740234375,320.666748046875,323.3333740234375,326.666748046875,329.3333740234375,330.666748046875,331.3333740234375,331.3333740234375,331.3333740234375,331.3333740234375,332,335.3333740234375,341.3333740234375,341.3333740234375,341.3333740234375,342,342,342,342,342,342,342,342,342,342,342,342,342,342,342,342,342,342,342,342,342,342,342,342,342,342,342,342,342,342,342,342,342,342,342,342,320.666748046875,302,256,197.3333740234375,127.3333740234375,48.666748046875,-10,-38.6666259765625,-44.6666259765625,-45.333251953125,-46,-46,-46,-46,-46,-46,-46,-46,-46,-46,-46,-36,-18.6666259765625,-4,14,18,19.3333740234375,19.3333740234375,19.3333740234375,19.3333740234375,19.3333740234375,19.3333740234375,19.3333740234375,19.3333740234375,19.3333740234375,19.3333740234375,19.3333740234375,19.3333740234375,19.3333740234375,15.3333740234375,12,8.666748046875,6.666748046875,5.3333740234375,5.3333740234375,5.3333740234375,5.3333740234375,5.3333740234375,-1.333251953125,-10.6666259765625,-22.6666259765625,-38,-56,-80.6666259765625,-110,-144.6666259765625,-176.6666259765625,-208,-232.6666259765625,-254.6666259765625,-277.33331298828125,-283.33331298828125,-284.6666259765625,-284.6666259765625,-284.6666259765625,-284.6666259765625,-284,-284,-284,-284,-284,-284,-288.6666259765625,-296.6666259765625,-307.33331298828125,-321.33331298828125,-326.6666259765625,-329.33331298828125,-330.6666259765625,-330.6666259765625,-330.6666259765625,-330.6666259765625,-330.6666259765625,-330.6666259765625,-330.6666259765625,-330.6666259765625,-330.6666259765625,-330.6666259765625,-336,-340,-345.33331298828125,-346.6666259765625,-346.6666259765625,-346.6666259765625,-346.6666259765625,-346.6666259765625,-346.6666259765625,-341.33331298828125,-325.33331298828125,-297.33331298828125,-250.6666259765625,-184.6666259765625,-118.6666259765625,-69.333251953125,-32,-6.6666259765625]","[-128.66668701171875,-128.66668701171875,-128.66668701171875,-128.66668701171875,-128.66668701171875,-128.66668701171875,-128.66668701171875,-128.66668701171875,-128.66668701171875,-128.66668701171875,-128.66668701171875,-128.66668701171875,-128.66668701171875,-128.66668701171875,-128.66668701171875,-128.66668701171875,-128.66668701171875,-128.66668701171875,-128.66668701171875,-128.66668701171875,-128.66668701171875,-128.66668701171875,-128.66668701171875,-128.66668701171875,-128.66668701171875,-128.66668701171875,-128.66668701171875,-128.66668701171875,-128.66668701171875,-128.66668701171875,-128.66668701171875,-128.66668701171875,-128.66668701171875,-128.66668701171875,-128.66668701171875,-128.66668701171875,-128.66668701171875,-128.66668701171875,-128.66668701171875,-128.66668701171875,-128.66668701171875,-128.66668701171875,-128.66668701171875,-128.66668701171875,-128.66668701171875,-128.66668701171875,-128.66668701171875,-128.66668701171875,-128.66668701171875,-128.66668701171875,-128.66668701171875,-128.66668701171875,-128.66668701171875,-128.66668701171875,-128.66668701171875,-128.66668701171875,-128.66668701171875,-128.66668701171875,-128.66668701171875,-128.66668701171875,-128.66668701171875,-128.66668701171875,-128.66668701171875,-128.66668701171875,-128.66668701171875,-120.66668701171875,-115.3333740234375,-112,-109.3333740234375,-106,-100,-96.66668701171875,-93.3333740234375,-91.3333740234375,-88,-84.66668701171875,-82,-78,-76,-72.66668701171875,-68,-63.3333740234375,-55.3333740234375,-46.66668701171875,-40.66668701171875,-36.66668701171875,-33.3333740234375,-29.3333740234375,-25.3333740234375,-18.66668701171875,-13.3333740234375,-10,-10,-9.3333740234375,-9.3333740234375,-9.3333740234375,-8.66668701171875,-6.66668701171875,-3.3333740234375,-2.66668701171875,-2.66668701171875,-2.66668701171875,-2.66668701171875,-2.66668701171875,-2.66668701171875,-2.66668701171875,-2.66668701171875,-2.66668701171875,-2.66668701171875,-2.66668701171875,-2.66668701171875,-2.66668701171875,-2.66668701171875,-2.66668701171875,-2.66668701171875,-2.66668701171875,-2.66668701171875,-2.66668701171875,-2.66668701171875,-2.66668701171875,-2.66668701171875,-2,-2,-2,-2,-2,-2,-2,-2,-2,-2,-2,-2,-2,-2,-2,-2,22.6666259765625,42,81.33331298828125,129.33331298828125,189.33331298828125,262.6666564941406,324.6666564941406,357.33331298828125,369.33331298828125,375.33331298828125,378,379.33331298828125,379.33331298828125,379.33331298828125,379.33331298828125,379.33331298828125,379.33331298828125,379.33331298828125,379.33331298828125,379.33331298828125,379.33331298828125,374,364,353.33331298828125,342.6666564941406,340,339.33331298828125,338.6666564941406,337.33331298828125,336,334.6666564941406,334.6666564941406,334.6666564941406,334.6666564941406,334.6666564941406,334.6666564941406,334.6666564941406,334.6666564941406,334.6666564941406,336,337.33331298828125,339.33331298828125,341.33331298828125,342,342,342.6666564941406,342.6666564941406,342.6666564941406,336,322,302,276,240,195.33331298828125,154,117.33331298828125,90.6666259765625,66.6666259765625,56.6666259765625,48,40.6666259765625,40,39.33331298828125,39.33331298828125,39.33331298828125,39.33331298828125,39.33331298828125,39.33331298828125,39.33331298828125,39.33331298828125,39.33331298828125,39.33331298828125,32,22,12,2,-0.66668701171875,-1.3333740234375,-2,-2,-2,-2,-2,-2,-2,-2,-2,-2,-2,-2,-2,-2,-2,-2,-2,-2,-2,-8.66668701171875,-20.66668701171875,-42,-87.3333740234375,-150.66668701171875,-219.3333740234375,-273.3333740234375,-312,-337.3333740234375]","[0,0,0,0,0,0,0,0,0,0,0,0,0,0,0,0,0,0,0,0,0,0,0,0,0,0,0,0,0,0,0,0,0,0,0,0,0,0,0,0,0,0,0,0,0,0,0,0,0,0,0,0,0,0,0,0,0,0,0,0,0,0,0,0,0,0,0,0,0,0,0,0,0,0,0,0,0,0,0,0,0,0,0,0,0,0,0,0,0,0,0,0,0,0,0,0,0,0,0,0,0,0,0,0,0,0,0,0,0,0,0,0,0,0,0,0,0,0,0,0,0,1,1,1,1,1,1,1,0,0,0,0,0,0,0,0,0,0,0,0,0,0,0,0,0,0,0,0,0,0,0,0,0,0,0,0,0,0,0,0,0,0,0,0,0,0,0,0,0,0,0,0,0,0,0,0,0,0,0,0,0,0,0,0,0,0,0,0,0,0,0,0,0,0,0,0,0,0,0,0,0,0,0,0,0,0,0,0,0,0,0,0,0,0,0,0,0,0,0,0,0,0,0,0,0,0,0,0,0,0,0,0,0,0,0,0,0,0,0,0,0,0,0]","[0,0,0,0,0,0,0,0,0,0,0,0,0,0,0,0,0,0,0,0,0,0,0,0,0,0,0,0,0,0,0,0,0,0,0,0,0,0,0,0,0,0,0,0,0,0,0,0,0,0,0,0,0,0,0,0,0,0,0,0,0,0,0,0,0,0,0,0,0,0,0,0,0,0,0,0,0,0,0,0,0,0,0,0,0,0,0,0,0,0,0,0,0,0,0,0,0,0,0,0,0,0,0,0,0,0,0,0,0,0,0,0,0,0,0,0,0,0,0,0,0,0,0,0,0,0,0,0,0,0,0,0,0,0,0,0,0,0,0,0,0,0,0,0,0,0,0,0,0,0,0,0,0,0,0,0,0,0,0,0,0,0,0,0,0,0,0,0,0,0,0,0,0,0,0,0,0,0,0,0,0,0,0,0,0,0,0,0,0,0,0,0,0,0,0,0,0,0,0,0,0,0,0,0,0,0,0,0,0,0,0,0,0,0,0,0,0,0,0,0,0,0,0,0,0,0,0,0,0,0,0,0,0,0,0,0,0,0,0,0,0,0,0]","[0,0,0,0,0,0,0,0,0,0,0,0,0,0,0,0,0,0,0,0,0,0,0,0,0,0,0,0,0,0,0,0,0,0,0,0,0,0,0,0,0,0,0,0,0,0,0,0,0,0,0,0,0,0,0,0,0,0,0,0,0,0,0,0,0,0,0,0,0,0,0,0,0,0,0,0,0,0,0,0,0,0,0,0,0,0,0,0,0,0,0,0,0,0,0,0,0,0,0,0,0,0,0,0,0,0,0,0,0,0,0,0,0,0,0,0,0,0,0,0,0,0,0,0,0,0,0,0,0,0,0,0,0,0,0,0,0,0,0,0,0,0,0,0,0,0,0,0,0,0,0,0,0,0,0,0,0,0,0,0,0,0,0,0,0,0,0,0,0,0,0,0,0,0,0,0,0,0,0,0,0,0,0,0,0,0,0,0,0,0,0,0,0,0,0,0,0,0,0,0,0,0,0,0,0,0,0,0,0,0,0,0,0,0,0,0,0,0,0,0,0,0,0,0,0,0,0,0,0,0,0,0,0,0,0,0,0,0,0,0,0,0,0]","[0.0014000000022349468,0.013700000002980772,0.0259999999999998,0.04120000000298063,0.05799999999999983,0.07460000000148881,0.0913000000007429,0.1082000000029808,0.12490000000223489,0.1413000000007436,0.15870000000298035,0.1750000000000007,0.19180000000074315,0.20820000000297867,0.22530000000074324,0.24130000000074503,0.2579999999999991,0.2749999999999986,0.2916000000014911,0.3083000000007452,0.3257000000029784,0.34160000000148827,0.3581000000014889,0.3749000000022349,0.3921000000014878,0.40830000000074307,0.42520000000298097,0.4416000000014897,0.45820000000297867,0.47499999999999787,0.49210000000148924,0.508100000001491,0.5251000000014905,0.5416000000014911,0.5584000000022336,0.5749000000022342,0.5921000000014907,0.6084000000022343,0.624800000000743,0.641600000001489,0.658200000002978,0.6748000000007437,0.690999999999999,0.7079999999999984,0.7255000000000003,0.741300000000745,0.7583000000007445,0.7749000000022335,0.7917000000029795,0.8083000000007452,0.8251000000014876,0.8414000000022348,0.8579000000022354,0.8747000000029779,0.8914000000022355,0.9087000000029803,0.9251000000014891,0.941700000002978,0.9583000000007438,0.9751000000014898,0.9919000000022358,1.008499999999998,1.0256000000014893,1.0417000000029795,1.0586000000014906,1.075400000002233,1.0916000000014883,1.1079000000022354,1.1253000000007454,1.1415000000000006,1.158300000000743,1.1750000000000007,1.1918000000007432,1.2083000000007438,1.2249999999999979,1.2422000000029811,1.2591000000014887,1.2756000000014893,1.2914999999999992,1.3079000000022347,1.3249999999999993,1.3414000000022348,1.3582000000029808,1.374900000002235,1.3917000000029809,1.408400000002235,1.425600000001488,1.4420000000000002,1.4585000000000008,1.4747000000029793,1.491300000000745,1.508100000001491,1.5249000000022335,1.5414999999999992,1.5579999999999998,1.5747000000029807,1.5917000000029802,1.609800000000746,1.624800000000743,1.641600000001489,1.658300000000743,1.675300000000746,1.6914999999999978,1.7081000000014903,1.7249999999999979,1.7414999999999985,1.7579999999999991,1.7749999999999986,1.791400000002234,1.8079000000022347,1.8251000000014876,1.841300000000743,1.8580000000000005,1.8753000000007454,1.8915000000000006,1.908200000002978,1.9249000000022356,1.941700000002978,1.9581000000014903,1.9749000000022328,1.9918000000007439,2.0083000000007445,2.025200000002979,2.0411000000014887,2.058100000001488,2.074900000002234,2.0915,2.1084999999999994,2.124900000002235,2.141600000001489,2.1585,2.1750000000000007,2.191499999999998,2.2082000000029787,2.225200000002978,2.2417000000029788,2.2588000000007433,2.275200000002979,2.291600000001491,2.308300000000745,2.3253000000007447,2.3416000000014883,2.358200000002981,2.3751000000014884,2.3915000000000006,2.408200000002978,2.4249000000022356,2.441900000002235,2.458700000002981,2.4753000000007432,2.4917000000029788,2.5082000000029794,2.525200000002979,2.541900000002233,2.55820000000298,2.5752000000029796,2.5919999999999987,2.6084999999999994,2.625700000002979,2.641800000000746,2.6588000000007455,2.675800000000745,2.6914000000022362,2.7081000000014903,2.724999999999998,2.7416000000014904,2.758400000002233,2.775300000000744,2.791999999999998,2.808300000000745,2.8249999999999993,2.842200000002979,2.858200000002981,2.8754000000022337,2.8914000000022355,2.9086000000014884,2.925300000000746,2.941800000000743,2.958700000002981,2.9753000000007432,2.9916000000014904,3.007999999999999,3.025300000000744,3.0413000000007457,3.058300000000745,3.0752000000029796,3.0916000000014883,3.108100000001489,3.125,3.141800000000746,3.158300000000743,3.175200000002981,3.191800000000743,3.208300000000744,3.2249000000022328,3.242000000000001,3.2589000000022352,3.2749999999999986,3.291600000001491,3.30820000000298,3.324900000002234,3.3418000000007453,3.3587000000029796,3.375800000000744,3.3919999999999995,3.4085,3.425600000001488,3.442,3.4584000000022357,3.4757000000029805,3.491800000000744,3.5083000000007445,3.5251000000014905,3.5417000000029795,3.5586000000014906,3.5753000000007447,3.5926000000014895,3.608200000002981,3.625,3.641700000002981,3.658400000002235,3.6750000000000007,3.691700000002978,3.7081000000014903,3.724999999999998,3.741800000000744,3.75860000000149,3.7751000000014905,3.7917000000029795,3.808,3.8249999999999993,3.842200000002979,3.8584999999999994,3.8754000000022337,3.891800000000746,3.9086000000014884,3.9254999999999995,3.942,3.958700000002981,3.9756000000014886,3.9921000000014892,4.008400000002233,4.025400000002236]",return,7.4302,0,0,0,0,1,,,,,,,,,,,,,,,,,,,,,,,,,
,,123,2024-08-05_15h27.35.486,GoFitts,2022.2.4,Win32,60.24096386,,,,,,,,,,,,,,return,7.1745,,,,,,,,,,,,,,,,,,,,,,,
,,123,2024-08-05_15h27.35.486,GoFitts,2022.2.4,Win32,60.24096386,,,,,,,,,,,,,,,,return,1.9036,"[466,-258.66668701171875]","[-161.80339887498945,117.55705045849464]",48,400,0,"[466,462,460,458,452,448.666748046875,444.666748046875,441.3333740234375,438.666748046875,437.3333740234375,433.3333740234375,431.3333740234375,428,423.3333740234375,418,408.666748046875,391.3333740234375,361.3333740234375,305.3333740234375,236.666748046875,171.3333740234375,113.3333740234375,42.666748046875,12.666748046875,-8,-30,-48.6666259765625,-62,-70,-77.333251953125,-84,-94.6666259765625,-105.333251953125,-110.6666259765625,-122,-122.6666259765625,-124,-126.6666259765625,-129.333251953125,-130,-131.333251953125,-132.6666259765625,-135.333251953125,-135.333251953125,-136,-136.6666259765625,-141.333251953125,-144.6666259765625]","[-258.66668701171875,-258.66668701171875,-258.66668701171875,-258.66668701171875,-258,-256.66668701171875,-254.66668701171875,-253.3333740234375,-251.3333740234375,-250.66668701171875,-247.3333740234375,-245.3333740234375,-243.3333740234375,-240,-236,-229.3333740234375,-218.66668701171875,-200,-178.66668701171875,-156,-135.3333740234375,-115.3333740234375,-89.3333740234375,-76,-66,-56,-46,-38,-32.66668701171875,-25.3333740234375,-13.3333740234375,2.6666259765625,17.33331298828125,24.6666259765625,43.33331298828125,49.33331298828125,58,65.33331298828125,72,77.33331298828125,82.6666259765625,86,89.33331298828125,89.33331298828125,91.33331298828125,93.33331298828125,98.6666259765625,103.33331298828125]","[0,0,0,0,0,0,0,0,0,0,0,0,0,0,0,0,0,0,0,0,0,0,0,0,0,0,0,0,0,0,0,0,0,0,0,0,0,0,0,0,0,0,0,0,0,0,0,0]","[0,0,0,0,0,0,0,0,0,0,0,0,0,0,0,0,0,0,0,0,0,0,0,0,0,0,0,0,0,0,0,0,0,0,0,0,0,0,0,0,0,0,0,0,0,0,0,0]","[0,0,0,0,0,0,0,0,0,0,0,0,0,0,0,0,0,0,0,0,0,0,0,0,0,0,0,0,0,0,0,0,0,0,0,0,0,0,0,0,0,0,0,0,0,0,0,0]","[0.0013000000007465928,0.026499999999998636,0.04289999999851091,0.05069999999925301,0.07669999999925636,0.09299999999999642,0.10959999999776215,0.12609999999776278,0.14289999999851233,0.15119999999925682,0.17659999999776232,0.19309999999776295,0.21000000000000085,0.22639999999850602,0.24319999999925557,0.259999999999998,0.2763999999985103,0.2931999999992527,0.3098999999985068,0.3260000000000005,0.3434999999999988,0.36039999999850636,0.37659999999776517,0.3933000000007425,0.40989999999850824,0.4266999999992507,0.44309999999776295,0.4598999999985054,0.4768000000007433,0.49369999999925085,0.5106999999992539,0.5265999999977637,0.5429999999999993,0.5510000000000019,0.5766999999992564,0.5928999999985081,0.6098999999985111,0.6265000000000001,0.6433000000007425,0.6598999999985082,0.6765999999977623,0.693099999997763,0.709300000000745,0.7261999999992526,0.7435999999977625,0.759999999999998,0.7768000000007405,0.7935000000000016]",,0,0,0,0,1,,,,
,,123,2024-08-05_15h27.35.486,GoFitts,2022.2.4,Win32,60.24096386,,,,,,,,,,,,,,,,,,"[-161.80339887498945,117.55705045849464]","[182.7090915285202,-81.34732861516002]",48,400,0,"[-144.6666259765625,-148.6666259765625,-149.333251953125,-149.333251953125,-150,-150.6666259765625,-150.6666259765625,-152,-152.6666259765625,-152.6666259765625,-152.6666259765625,-152.6666259765625,-152.6666259765625,-152.6666259765625,-152.6666259765625,-152.6666259765625,-152.6666259765625,-152.6666259765625,-152.6666259765625,-152.6666259765625,-152.6666259765625,-152.6666259765625,-152.6666259765625,-152.6666259765625,-152.6666259765625,-152.6666259765625,-152.6666259765625,-152.6666259765625,-152.6666259765625,-152.6666259765625,-152.6666259765625,-152.6666259765625,-152,-145.333251953125,-120.6666259765625,-80.6666259765625,-32.6666259765625,12.666748046875,54,90,120.666748046875,145.3333740234375,162]","[103.33331298828125,107.33331298828125,107.33331298828125,107.33331298828125,108.6666259765625,108.6666259765625,109.33331298828125,110.6666259765625,111.33331298828125,111.33331298828125,111.33331298828125,111.33331298828125,111.33331298828125,111.33331298828125,111.33331298828125,111.33331298828125,111.33331298828125,111.33331298828125,111.33331298828125,111.33331298828125,111.33331298828125,111.33331298828125,111.33331298828125,111.33331298828125,111.33331298828125,111.33331298828125,111.33331298828125,111.33331298828125,111.33331298828125,111.33331298828125,111.33331298828125,111.33331298828125,111.33331298828125,107.33331298828125,91.33331298828125,70,42.6666259765625,16,-14.66668701171875,-38.66668701171875,-62,-78,-91.3333740234375]","[0,0,0,0,0,0,0,0,0,0,0,0,0,0,0,0,0,0,0,0,0,0,0,0,0,0,0,0,0,0,0,0,0,0,0,0,0,0,0,0,0,0,0]","[0,0,0,0,0,0,0,0,0,0,0,0,0,0,0,0,0,0,0,0,0,0,0,0,0,0,0,0,0,0,0,0,0,0,0,0,0,0,0,0,0,0,0]","[0,0,0,0,0,0,0,0,0,0,0,0,0,0,0,0,0,0,0,0,0,0,0,0,0,0,0,0,0,0,0,0,0,0,0,0,0,0,0,0,0,0,0]","[0.0005000000000023874,0.016000000000005343,0.03280000000074779,0.049599999997766986,0.06639999999850943,0.08280000000074494,0.09980000000074796,0.11639999999851369,0.13309999999776778,0.14880000000074745,0.16519999999925972,0.182699999999258,0.1905000000000001,0.20480000000074483,0.23319999999925756,0.24969999999925818,0.26630000000074716,0.2749999999999986,0.2998999999985088,0.30889999999850914,0.333199999999259,0.3418999999985104,0.36650000000000205,0.3833999999985096,0.39969999999925676,0.414599999997769,0.4235999999977693,0.4380000000000024,0.4665999999977686,0.47530000000075034,0.49980000000074654,0.508899999998512,0.5338999999985106,0.5433000000007482,0.5668999999985118,0.5836999999992543,0.6005999999977689,0.6170999999977695,0.6335999999977702,0.6503000000007475,0.6670000000000016,0.6836999999992557,0.7003000000007447]",,1,0,1,0,1,,,,
,,123,2024-08-05_15h27.35.486,GoFitts,2022.2.4,Win32,60.24096386,,,,,,,,,,,,,,,,,,"[182.7090915285202,-81.34732861516002]","[-195.62952014676114,41.58233816355186]",48,400,0,"[162,170,171.3333740234375,172,176,182.666748046875,190,194.666748046875,196,196,196,196,196,196.666748046875,196.666748046875,196.666748046875,196,196,196,196,196,196,196,196,196,196,196,196,188.666748046875,174.666748046875,162.666748046875,150,130.666748046875,112.666748046875,92,71.3333740234375,54.666748046875,38.666748046875,21.3333740234375,3.3333740234375,-27.333251953125,-47.333251953125,-64,-74,-80.6666259765625,-88,-94.6666259765625,-103.333251953125,-115.333251953125,-126.6666259765625,-136,-150.6666259765625,-156,-160.6666259765625,-163.333251953125,-166.6666259765625,-171.333251953125,-178.6666259765625]","[-91.3333740234375,-97.3333740234375,-98.66668701171875,-100,-101.3333740234375,-104.66668701171875,-107.3333740234375,-108,-108.66668701171875,-108.66668701171875,-108.66668701171875,-108.66668701171875,-108.66668701171875,-106,-103.3333740234375,-100,-97.3333740234375,-96.66668701171875,-95.3333740234375,-94.66668701171875,-94.66668701171875,-94.66668701171875,-94.66668701171875,-94.66668701171875,-94.66668701171875,-94.66668701171875,-94.66668701171875,-94.66668701171875,-94,-93.3333740234375,-92,-90,-84.66668701171875,-78.66668701171875,-70.66668701171875,-62,-53.3333740234375,-45.3333740234375,-35.3333740234375,-27.3333740234375,-15.3333740234375,-10.66668701171875,-8.66668701171875,-6.66668701171875,-6,-5.3333740234375,-4,-2,-1.3333740234375,0,0.6666259765625,4,6.6666259765625,10,12,15.33331298828125,19.33331298828125,26.6666259765625]","[0,0,0,0,0,0,0,0,0,0,0,0,0,0,0,0,0,0,0,0,0,0,0,0,0,0,0,0,0,0,0,0,0,0,0,0,0,0,0,0,0,0,0,0,0,0,0,0,0,0,0,0,0,0,0,0,0,0]","[0,0,0,0,0,0,0,0,0,0,0,0,0,0,0,0,0,0,0,0,0,0,0,0,0,0,0,0,0,0,0,0,0,0,0,0,0,0,0,0,0,0,0,0,0,0,0,0,0,0,0,0,0,0,0,0,0,0]","[0,0,0,0,0,0,0,0,0,0,0,0,0,0,0,0,0,0,0,0,0,0,0,0,0,0,0,0,0,0,0,0,0,0,0,0,0,0,0,0,0,0,0,0,0,0,0,0,0,0,0,0,0,0,0,0,0,0]","[0.0006999999992558514,0.01569999999925642,0.0239000000022358,0.04650000000000176,0.06619999999925597,0.08280000000074494,0.09930000000074557,0.11619999999925312,0.13300000000000267,0.14930000000074273,0.15830000000074307,0.18240000000223233,0.19110000000149086,0.21450000000000102,0.23290000000223188,0.24269999999925318,0.26630000000074716,0.28219999999925705,0.2989000000022344,0.3071999999992556,0.33280000000074494,0.34930000000074557,0.3658000000007462,0.3824000000022352,0.3993000000007427,0.4159999999999968,0.4251999999992577,0.449300000000747,0.4585000000000008,0.4829000000022319,0.5001000000014884,0.5158000000007448,0.5329000000022361,0.5494000000022368,0.5661000000014909,0.5828000000007449,0.5996000000014874,0.6161999999992531,0.633100000001491,0.6496000000014917,0.6676000000014923,0.6834000000022371,0.6994000000022353,0.7166000000014918,0.7331999999992576,0.7499000000022349,0.7668000000007424,0.7838000000007455,0.8004000000022344,0.8096999999992534,0.8336000000014891,0.849499999999999,0.8654000000022322,0.8829000000022376,0.8994999999999962,0.9161999999992574,0.9329999999999998,0.9495000000000005]",,2,0,2,0,1,,,,
,,123,2024-08-05_15h27.35.486,GoFitts,2022.2.4,Win32,60.24096386,,,,,,,,,,,,,,,,,,"[-195.62952014676114,41.58233816355186]","[200,0]",48,400,0,"[-178.6666259765625,-184,-190,-191.333251953125,-192,-192,-192,-192,-192,-192,-192,-192,-192,-192,-192,-192,-192,-192,-192,-192,-187.333251953125,-173.333251953125,-147.333251953125,-102.6666259765625,-37.333251953125,46.666748046875,136,206.666748046875,251.3333740234375,279.3333740234375,283.3333740234375,284,284,284,284,284,284,284,284,282.666748046875,275.3333740234375,246.666748046875,213.3333740234375]","[26.6666259765625,32,37.33331298828125,38,38.6666259765625,38.6666259765625,38.6666259765625,38.6666259765625,38.6666259765625,38.6666259765625,38.6666259765625,38.6666259765625,38.6666259765625,38.6666259765625,38.6666259765625,38.6666259765625,38.6666259765625,38.6666259765625,38.6666259765625,38.6666259765625,35.33331298828125,30.6666259765625,24.6666259765625,18,9.33331298828125,-1.3333740234375,-14.66668701171875,-24.66668701171875,-33.3333740234375,-40,-41.3333740234375,-41.3333740234375,-41.3333740234375,-41.3333740234375,-41.3333740234375,-41.3333740234375,-41.3333740234375,-41.3333740234375,-41.3333740234375,-40,-34.66668701171875,-16.66668701171875,-0.66668701171875]","[0,0,0,0,0,0,0,0,0,0,0,0,0,0,0,0,0,0,0,0,0,0,0,0,0,0,0,0,0,0,0,0,0,0,0,0,0,0,0,0,0,0,0]","[0,0,0,0,0,0,0,0,0,0,0,0,0,0,0,0,0,0,0,0,0,0,0,0,0,0,0,0,0,0,0,0,0,0,0,0,0,0,0,0,0,0,0]","[0,0,0,0,0,0,0,0,0,0,0,0,0,0,0,0,0,0,0,0,0,0,0,0,0,0,0,0,0,0,0,0,0,0,0,0,0,0,0,0,0,0,0]","[0.000499999999995282,0.015300000000742386,0.03289999999850579,0.049399999998506416,0.06419999999925352,0.08249999999999602,0.09680000000074074,0.11430000000074614,0.13089999999851187,0.14750000000000085,0.1643000000007433,0.18089999999850903,0.18939999999850698,0.20980000000074028,0.22030000000074068,0.2478000000007441,0.2648999999985051,0.28169999999925466,0.29050000000000153,0.30409999999776005,0.33280000000074494,0.3491999999992501,0.36599999999999966,0.3833999999985096,0.4003000000007404,0.4164999999999992,0.43330000000074165,0.4501999999992563,0.45969999999925193,0.4838000000007412,0.4996999999992511,0.5166999999992541,0.5328999999985058,0.5493000000007413,0.5658000000007419,0.582499999999996,0.5993000000007456,0.6158000000007462,0.6325999999977654,0.6495999999977613,0.6659999999999968,0.6830999999977649,0.6995999999977656]",,3,0,3,0,1,,,,
,,123,2024-08-05_15h27.35.486,GoFitts,2022.2.4,Win32,60.24096386,,,,,,,,,,,,,,,,,,"[200,0]","[-195.62952014676114,-41.58233816355181]",48,400,0,"[213.3333740234375,188.666748046875,169.3333740234375,166,166,166,166,167.3333740234375,169.3333740234375,170.666748046875,172,172,175.3333740234375,179.3333740234375,182.666748046875,184.666748046875,184.666748046875,184.666748046875,184.666748046875,184.666748046875,182.666748046875,169.3333740234375,148.666748046875,123.3333740234375,97.3333740234375,72,33.3333740234375,6.666748046875,-16.6666259765625,-35.333251953125,-49.333251953125,-59.333251953125,-67.333251953125,-72.6666259765625,-76,-94,-120,-133.333251953125,-142.6666259765625,-146.6666259765625,-146.6666259765625,-146.6666259765625,-146.6666259765625,-148,-159.333251953125,-168.6666259765625,-177.333251953125]","[-0.66668701171875,9.33331298828125,15.33331298828125,16.6666259765625,16.6666259765625,16.6666259765625,16.6666259765625,16.6666259765625,14,13.33331298828125,11.33331298828125,10,8,4.6666259765625,2.6666259765625,2,2,2,2,2,0,-6.66668701171875,-12,-15.3333740234375,-19.3333740234375,-22.66668701171875,-27.3333740234375,-30.66668701171875,-37.3333740234375,-41.3333740234375,-44.66668701171875,-46,-48.66668701171875,-50,-52.66668701171875,-57.3333740234375,-59.3333740234375,-60.66668701171875,-60.66668701171875,-61.3333740234375,-61.3333740234375,-61.3333740234375,-61.3333740234375,-61.3333740234375,-52.66668701171875,-48.66668701171875,-46]","[0,0,0,0,0,0,0,0,0,0,0,0,0,0,0,0,0,0,0,0,0,0,0,0,0,0,0,0,0,0,0,0,0,0,0,0,0,0,0,0,0,0,0,0,0,0,0]","[0,0,0,0,0,0,0,0,0,0,0,0,0,0,0,0,0,0,0,0,0,0,0,0,0,0,0,0,0,0,0,0,0,0,0,0,0,0,0,0,0,0,0,0,0,0,0]","[0,0,0,0,0,0,0,0,0,0,0,0,0,0,0,0,0,0,0,0,0,0,0,0,0,0,0,0,0,0,0,0,0,0,0,0,0,0,0,0,0,0,0,0,0,0,0]","[0.000599999997760392,0.01579999999702153,0.0336999999992571,0.0490999999977646,0.06559999999776522,0.07489999999850738,0.09909999999776176,0.1080999999977621,0.13279999999701886,0.1422999999970216,0.16609999999776193,0.17509999999776227,0.1993999999985121,0.21589999999850562,0.23109999999776676,0.2491999999992558,0.26559999999776096,0.2798999999985057,0.2990999999977646,0.30759999999776255,0.321399999998512,0.3491999999992572,0.3655999999977624,0.3750999999977651,0.3987999999970171,0.40729999999702216,0.4323999999985091,0.44919999999925153,0.4660000000000011,0.4825000000000017,0.4992999999970209,0.5139999999999958,0.5308999999985105,0.5493999999985064,0.5585000000000022,0.5827999999970217,0.5990999999977618,0.6157999999970158,0.6326999999992537,0.649099999997766,0.6652999999970177,0.6822999999970207,0.6986999999992562,0.7076999999992566,0.7325000000000017,0.7491999999992558,0.7662999999970168]",,4,0,4,0,1,,,,
,,123,2024-08-05_15h27.35.486,GoFitts,2022.2.4,Win32,60.24096386,,,,,,,,,,,,,,,,,,"[-195.62952014676114,-41.58233816355181]","[182.70909152852016,81.34732861516002]",48,400,0,"[-177.333251953125,-180.6666259765625,-183.333251953125,-185.333251953125,-185.333251953125,-185.333251953125,-185.333251953125,-185.333251953125,-185.333251953125,-185.333251953125,-185.333251953125,-185.333251953125,-185.333251953125,-185.333251953125,-185.333251953125,-185.333251953125,-185.333251953125,-180.6666259765625,-153.333251953125,-124.6666259765625,-72,-9.333251953125,59.3333740234375,121.3333740234375,170,197.3333740234375,209.3333740234375,220.666748046875,224,226.666748046875,228,228.666748046875,229.3333740234375,229.3333740234375,229.3333740234375,228,223.3333740234375,220,207.3333740234375,194.666748046875]","[-46,-45.3333740234375,-44.66668701171875,-44.66668701171875,-44.66668701171875,-44.66668701171875,-44.66668701171875,-44.66668701171875,-44.66668701171875,-44.66668701171875,-44.66668701171875,-44.66668701171875,-44.66668701171875,-44.66668701171875,-44.66668701171875,-44.66668701171875,-44.66668701171875,-44.66668701171875,-42.66668701171875,-38,-28.66668701171875,-20.66668701171875,-8.66668701171875,-0.66668701171875,11.33331298828125,17.33331298828125,21.33331298828125,26,28,31.33331298828125,32,33.33331298828125,34,35.33331298828125,35.33331298828125,38,42,44.6666259765625,54,60.6666259765625]","[0,0,0,0,0,0,0,0,0,0,0,0,0,0,0,0,0,0,0,0,0,0,0,0,0,0,0,0,0,0,0,0,0,0,0,0,0,0,0,0]","[0,0,0,0,0,0,0,0,0,0,0,0,0,0,0,0,0,0,0,0,0,0,0,0,0,0,0,0,0,0,0,0,0,0,0,0,0,0,0,0]","[0,0,0,0,0,0,0,0,0,0,0,0,0,0,0,0,0,0,0,0,0,0,0,0,0,0,0,0,0,0,0,0,0,0,0,0,0,0,0,0]","[0.0005000000000023874,0.015999999999998238,0.0323000000007454,0.048800000000746024,0.06560000000148847,0.08180000000074727,0.09710000000148966,0.11539999999850892,0.12450000000000472,0.13700000000000045,0.15360000000148943,0.17019999999925517,0.19819999999925386,0.21539999999851034,0.2316000000014924,0.23989999999851364,0.25369999999925597,0.27030000000074494,0.29839999999850875,0.31480000000074426,0.3316000000014938,0.3483000000007479,0.36489999999851364,0.38160000000149097,0.3984999999999985,0.4153999999985132,0.4243999999985135,0.44869999999925625,0.46489999999850795,0.48110000000149,0.49849999999999994,0.5150000000000006,0.5318999999985081,0.5483999999985087,0.5651000000014932,0.5803999999985123,0.5988000000007432,0.6084999999999994,0.6323999999985119,0.6486999999992591]",,5,0,5,0,1,,,,
,,123,2024-08-05_15h27.35.486,GoFitts,2022.2.4,Win32,60.24096386,,,,,,,,,,,,,,,,,,"[182.70909152852016,81.34732861516002]","[-161.8033988749895,-117.5570504584946]",48,400,0,"[194.666748046875,190,187.3333740234375,186.666748046875,186.666748046875,186.666748046875,186.666748046875,186.666748046875,186.666748046875,186.666748046875,186.666748046875,186.666748046875,186.666748046875,186.666748046875,186.666748046875,186.666748046875,186.666748046875,184,174.666748046875,158.666748046875,137.3333740234375,96,43.3333740234375,-15.333251953125,-78.6666259765625,-100.6666259765625,-115.333251953125,-128.6666259765625,-144]","[60.6666259765625,64,66,66.6666259765625,67.33331298828125,67.33331298828125,67.33331298828125,67.33331298828125,67.33331298828125,67.33331298828125,67.33331298828125,67.33331298828125,67.33331298828125,67.33331298828125,67.33331298828125,67.33331298828125,67.33331298828125,66,60,48.6666259765625,32,5.33331298828125,-24.66668701171875,-57.3333740234375,-85.3333740234375,-95.3333740234375,-102,-109.3333740234375,-116.66668701171875]","[0,0,0,0,0,0,0,0,0,0,0,0,0,0,0,0,0,0,0,0,0,0,0,0,0,0,0,0,0]","[0,0,0,0,0,0,0,0,0,0,0,0,0,0,0,0,0,0,0,0,0,0,0,0,0,0,0,0,0]","[0,0,0,0,0,0,0,0,0,0,0,0,0,0,0,0,0,0,0,0,0,0,0,0,0,0,0,0,0]","[0.0006999999992558514,0.016500000000000625,0.03269999999925943,0.049400000002236766,0.06590000000223739,0.08250000000000313,0.09930000000074557,0.10769999999925517,0.1206999999992604,0.14919999999925437,0.16580000000075046,0.17419999999926006,0.1875,0.21569999999925926,0.22430000000074557,0.24910000000149068,0.2656000000014913,0.28249999999999886,0.29910000000149495,0.3151000000014932,0.3326000000014915,0.3496000000014945,0.36590000000223455,0.37519999999925346,0.39930000000074983,0.4154000000022364,0.43140000000223466,0.4483000000007493,0.46569999999925926]",,6,0,6,0,1,,,,
,,123,2024-08-05_15h27.35.486,GoFitts,2022.2.4,Win32,60.24096386,,,,,,,,,,,,,,,,,,"[-161.8033988749895,-117.5570504584946]","[133.82612127177165,148.62896509547886]",48,400,0,"[-144,-160.6666259765625,-181.333251953125,-192.6666259765625,-198.6666259765625,-200,-200.6666259765625,-201.333251953125,-201.333251953125,-201.333251953125,-201.333251953125,-201.333251953125,-201.333251953125,-201.333251953125,-201.333251953125,-194,-187.333251953125,-184.6666259765625,-178,-174.6666259765625,-168,-160,-145.333251953125,-126.6666259765625,-100,-70.6666259765625,-48.6666259765625,-32.6666259765625,-20,-7.333251953125,4,26.666748046875,42,57.3333740234375,68.666748046875,78,86,90,92.666748046875,93.3333740234375,96,103.3333740234375,115.3333740234375]","[-116.66668701171875,-122.66668701171875,-127.3333740234375,-129.3333740234375,-130,-130,-130,-130,-130,-130,-130,-130,-130,-130,-130,-130,-128,-127.3333740234375,-126,-124,-120,-114,-103.3333740234375,-88,-65.3333740234375,-34.66668701171875,-10,12,30.6666259765625,52,68,90.6666259765625,108,125.33331298828125,136.6666259765625,142,146,147.33331298828125,147.33331298828125,147.33331298828125,147.33331298828125,146,144.6666259765625]","[0,0,0,0,0,0,0,0,0,0,0,0,0,0,0,0,0,0,0,0,0,0,0,0,0,0,0,0,0,0,0,0,0,0,0,0,0,0,0,0,0,0,0]","[0,0,0,0,0,0,0,0,0,0,0,0,0,0,0,0,0,0,0,0,0,0,0,0,0,0,0,0,0,0,0,0,0,0,0,0,0,0,0,0,0,0,0]","[0,0,0,0,0,0,0,0,0,0,0,0,0,0,0,0,0,0,0,0,0,0,0,0,0,0,0,0,0,0,0,0,0,0,0,0,0,0,0,0,0,0,0]","[0.0003000000007489234,0.016400000002235515,0.03300000000000125,0.05010000000149262,0.0668000000007467,0.0765000000000029,0.09990000000223631,0.1166000000014904,0.13290000000223756,0.14150000000000063,0.16630000000074574,0.18280000000074637,0.1910000000000025,0.21640000000223836,0.23280000000074352,0.25010000000148835,0.2671999999992565,0.27680000000074756,0.30049999999999955,0.3089000000022395,0.3335000000000008,0.3501000000014898,0.3669000000022393,0.3836000000014934,0.4003000000007475,0.41669999999925267,0.43330000000074875,0.4501999999992563,0.46750000000000114,0.4841000000014901,0.49280000000074864,0.5164000000022355,0.5326999999992523,0.5494000000022368,0.5664000000022327,0.5838000000007426,0.6006000000014922,0.6171000000014928,0.6340000000000003,0.6506000000014893,0.6676000000014923,0.6839999999999975,0.7006999999992587]",,7,0,7,0,1,,,,
,,123,2024-08-05_15h27.35.486,GoFitts,2022.2.4,Win32,60.24096386,,,,,,,,,,,,,,,,,,"[133.82612127177165,148.62896509547886]","[-100.00000000000009,-173.20508075688767]",48,400,0,"[115.3333740234375,134.666748046875,142,144.666748046875,145.3333740234375,148,150,152.666748046875,153.3333740234375,153.3333740234375,153.3333740234375,153.3333740234375,153.3333740234375,153.3333740234375,142.666748046875,129.3333740234375,122,88,56.666748046875,26,0.666748046875,-24,-43.333251953125,-64,-71.333251953125,-98,-108]","[144.6666259765625,143.33331298828125,143.33331298828125,143.33331298828125,143.33331298828125,143.33331298828125,144,144.6666259765625,144.6666259765625,144.6666259765625,144.6666259765625,144.6666259765625,144.6666259765625,144.6666259765625,138,131.33331298828125,128,106,76.6666259765625,41.33331298828125,1.33331298828125,-36.66668701171875,-66.66668701171875,-99.3333740234375,-110.66668701171875,-148,-162.66668701171875]","[0,0,0,0,0,0,0,0,0,0,0,0,0,0,0,0,0,0,0,0,0,0,0,0,0,0,0]","[0,0,0,0,0,0,0,0,0,0,0,0,0,0,0,0,0,0,0,0,0,0,0,0,0,0,0]","[0,0,0,0,0,0,0,0,0,0,0,0,0,0,0,0,0,0,0,0,0,0,0,0,0,0,0]","[0.0006000000014907414,0.01720000000297972,0.03249999999999886,0.04930000000074841,0.05799999999999983,0.08280000000074494,0.09920000000298046,0.1158000000007462,0.1327000000029841,0.14750000000000085,0.16570000000298535,0.180400000002237,0.18890000000223495,0.20370000000298205,0.23260000000149006,0.24920000000297904,0.25850000000000506,0.28300000000000125,0.2992000000029833,0.3162000000029792,0.3318000000007473,0.34890000000223864,0.365000000000002,0.3823000000007468,0.3906000000014913,0.41580000000074335,0.43190000000223705]",,8,0,8,0,1,,,,
,,123,2024-08-05_15h27.35.486,GoFitts,2022.2.4,Win32,60.24096386,,,,,,,,,,,,,,,,,,"[-100.00000000000009,-173.20508075688767]","[61.80339887498949,190.2113032590307]",48,400,0,"[-108,-121.333251953125,-130.6666259765625,-135.333251953125,-136.6666259765625,-136.6666259765625,-136.6666259765625,-136.6666259765625,-136.6666259765625,-136.6666259765625,-136.6666259765625,-136,-134.6666259765625,-132.6666259765625,-126.6666259765625,-118.6666259765625,-109.333251953125,-100.6666259765625,-94,-90,-84,-74,-60.6666259765625,-46,-29.333251953125,-19.333251953125,-11.333251953125,-2.6666259765625,9.3333740234375,16,22,26,28.666748046875,31.3333740234375,33.3333740234375,34,34.666748046875,34.666748046875,36,38.666748046875]","[-162.66668701171875,-172,-177.3333740234375,-181.3333740234375,-184.66668701171875,-185.3333740234375,-186,-186,-186,-186,-186,-186,-186,-185.3333740234375,-180.66668701171875,-173.3333740234375,-160.66668701171875,-144,-124.66668701171875,-101.3333740234375,-73.3333740234375,-37.3333740234375,4,50.6666259765625,91.33331298828125,110,122,132.6666259765625,146.6666259765625,159.33331298828125,168.6666259765625,176,179.33331298828125,182,186,187.33331298828125,188.6666259765625,188.6666259765625,190.6666259765625,194]","[0,0,0,0,0,0,0,0,0,0,0,0,0,0,0,0,0,0,0,0,0,0,0,0,0,0,0,0,0,0,0,0,0,0,0,0,0,0,0,0]","[0,0,0,0,0,0,0,0,0,0,0,0,0,0,0,0,0,0,0,0,0,0,0,0,0,0,0,0,0,0,0,0,0,0,0,0,0,0,0,0]","[0,0,0,0,0,0,0,0,0,0,0,0,0,0,0,0,0,0,0,0,0,0,0,0,0,0,0,0,0,0,0,0,0,0,0,0,0,0,0,0]","[0.000499999999995282,0.016500000000000625,0.033099999997759255,0.049800000000743694,0.06649999999999778,0.08319999999925187,0.09980000000074085,0.11639999999850659,0.1333999999985096,0.14730000000074028,0.16659999999776431,0.175699999999253,0.20139999999850744,0.21709999999776386,0.2333000000007459,0.2491999999992558,0.26639999999850517,0.28359999999776164,0.30009999999776227,0.3168999999985047,0.3340999999977612,0.34369999999925227,0.36739999999850426,0.3766999999992535,0.40050000000000097,0.4170999999977596,0.4313999999985043,0.45030000000074466,0.46709999999776386,0.48409999999775977,0.5005999999977604,0.5171999999992494,0.5339999999999989,0.550699999999253,0.5594999999999999,0.5835000000000008,0.5998000000007409,0.61509999999776,0.6238999999985069,0.6503000000007404]",,9,0,9,0,1,,,,
,,123,2024-08-05_15h27.35.486,GoFitts,2022.2.4,Win32,60.24096386,,,,,,,,,,,,,,,,,,"[61.80339887498949,190.2113032590307]","[-20.905692653530846,-198.90437907365467]",48,400,0,"[38.666748046875,40.666748046875,42,42,43.3333740234375,48.666748046875,52.666748046875,64,68.666748046875,74,77.3333740234375,78,78,78,75.3333740234375,67.3333740234375,55.3333740234375,39.3333740234375,21.3333740234375,4.666748046875,-9.333251953125,-15.333251953125,-18.6666259765625,-24.6666259765625,-28.6666259765625,-35.333251953125,-40,-43.333251953125,-43.333251953125,-43.333251953125,-42]","[194,195.33331298828125,197.33331298828125,197.33331298828125,197.33331298828125,198,198,198,198,195.33331298828125,193.33331298828125,192.6666259765625,190,187.33331298828125,182,167.33331298828125,148,119.33331298828125,83.33331298828125,40.6666259765625,-23.3333740234375,-57.3333740234375,-84,-106.66668701171875,-128.66668701171875,-148,-158,-166,-174,-184,-190.66668701171875]","[0,0,0,0,0,0,0,0,0,0,0,0,0,0,0,0,0,0,0,0,0,0,0,0,0,0,0,0,0,0,0]","[0,0,0,0,0,0,0,0,0,0,0,0,0,0,0,0,0,0,0,0,0,0,0,0,0,0,0,0,0,0,0]","[0,0,0,0,0,0,0,0,0,0,0,0,0,0,0,0,0,0,0,0,0,0,0,0,0,0,0,0,0,0,0]","[0.000499999999995282,0.016100000001486592,0.031999999999996476,0.05019999999925062,0.06530000000074665,0.08249999999999602,0.09110000000148943,0.11689999999850897,0.13310000000149103,0.14980000000074511,0.16660000000148756,0.17530000000074608,0.19919999999925153,0.21619999999925454,0.23319999999925045,0.25019999999925346,0.2669999999999959,0.2833999999985082,0.2998999999985088,0.31660000000148614,0.3331999999992519,0.34980000000074085,0.3663000000007415,0.3833000000007445,0.3999999999999986,0.41639999999851085,0.4326999999992509,0.44950000000000045,0.4668000000007453,0.483399999998511,0.5001000000014884]",,10,0,10,0,1,,,,
,,123,2024-08-05_15h27.35.486,GoFitts,2022.2.4,Win32,60.24096386,,,,,,,,,,,,,,,,,,"[-20.905692653530846,-198.90437907365467]","[-20.905692653530668,198.90437907365467]",48,400,0,"[-42,-40.6666259765625,-40,-40,-40,-40,-40,-40,-40,-37.333251953125,-34.6666259765625,-34,-32.6666259765625,-32.6666259765625,-32.6666259765625,-31.333251953125,-29.333251953125,-28.6666259765625,-28.6666259765625,-31.333251953125,-33.333251953125,-32.6666259765625,-30,-19.333251953125,-8,2,8.666748046875,10,10,9.3333740234375,10,10,11.3333740234375,11.3333740234375,11.3333740234375,11.3333740234375,11.3333740234375,11.3333740234375,11.3333740234375,6.666748046875,2,-9.333251953125]","[-190.66668701171875,-193.3333740234375,-196,-196,-196,-196,-196,-196,-196,-196,-196,-196,-196,-196,-196,-192,-184,-170,-151.3333740234375,-128.66668701171875,-102,-68.66668701171875,-24,24,64.6666259765625,96,136,160,178.6666259765625,192,198,202.6666259765625,206.6666259765625,210,210.66665649414062,211.33331298828125,211.33331298828125,211.33331298828125,211.33331298828125,211.33331298828125,210.66665649414062,208.66665649414062]","[0,0,0,0,0,0,0,0,0,0,0,0,0,0,0,0,0,0,0,0,0,0,0,0,0,0,0,0,0,0,0,0,0,0,0,0,0,0,0,0,0,0]","[0,0,0,0,0,0,0,0,0,0,0,0,0,0,0,0,0,0,0,0,0,0,0,0,0,0,0,0,0,0,0,0,0,0,0,0,0,0,0,0,0,0]","[0,0,0,0,0,0,0,0,0,0,0,0,0,0,0,0,0,0,0,0,0,0,0,0,0,0,0,0,0,0,0,0,0,0,0,0,0,0,0,0,0,0]","[0.0005000000000023874,0.015899999998509884,0.03269999999925943,0.048500000000004206,0.05539999999851375,0.08139999999851,0.09769999999925716,0.10469999999925506,0.11980000000075108,0.14930000000074983,0.16600000000000392,0.18210000000149051,0.199300000000747,0.21569999999925926,0.2321999999992599,0.24900000000000233,0.2658000000007448,0.28250000000000597,0.29889999999851113,0.31580000000074904,0.3326000000014915,0.3491000000014921,0.36599999999999966,0.3828000000007492,0.39230000000074483,0.41589999999851557,0.43250000000000455,0.44919999999925864,0.46569999999925926,0.48269999999925517,0.4991000000014907,0.5151999999992611,0.5323000000007454,0.549100000001495,0.5658999999985141,0.5828000000007449,0.5988000000007503,0.6156000000014927,0.6241000000014907,0.6493000000007498,0.6641999999992549,0.6733000000007507]",,11,0,11,0,1,,,,
,,123,2024-08-05_15h27.35.486,GoFitts,2022.2.4,Win32,60.24096386,,,,,,,,,,,,,,,,,,"[-20.905692653530668,198.90437907365467]","[61.80339887498945,-190.21130325903073]",48,400,0,"[-9.333251953125,-28.6666259765625,-34.6666259765625,-36.6666259765625,-37.333251953125,-37.333251953125,-37.333251953125,-37.333251953125,-37.333251953125,-37.333251953125,-37.333251953125,-37.333251953125,-37.333251953125,-37.333251953125,-34.6666259765625,-28,-24.6666259765625,-11.333251953125,0.666748046875,14.666748046875,25.3333740234375,41.3333740234375,60,70,72.666748046875,73.3333740234375,73.3333740234375]","[208.66665649414062,206.6666259765625,205.33331298828125,204,204,204,204,204,204,204,204,204,204,204,198.6666259765625,192.6666259765625,188,167.33331298828125,140.6666259765625,98.6666259765625,48,-36,-98.66668701171875,-138.66668701171875,-155.3333740234375,-160.66668701171875,-173.3333740234375]","[0,0,0,0,0,0,0,0,0,0,0,0,0,0,0,0,0,0,0,0,0,0,0,0,0,0,0]","[0,0,0,0,0,0,0,0,0,0,0,0,0,0,0,0,0,0,0,0,0,0,0,0,0,0,0]","[0,0,0,0,0,0,0,0,0,0,0,0,0,0,0,0,0,0,0,0,0,0,0,0,0,0,0]","[0.00039999999851403345,0.02569999999925443,0.04230000000074341,0.059000000000004604,0.0756999999992587,0.08980000000074995,0.09809999999776409,0.11309999999776466,0.12969999999925363,0.14630000000074972,0.17380000000074602,0.18209999999776727,0.20539999999851233,0.22230000000075023,0.23239999999851335,0.25850000000000506,0.26730000000074483,0.2918000000007481,0.3086999999992557,0.32369999999925625,0.3418999999985104,0.3584999999999994,0.37519999999925346,0.3920999999977681,0.40909999999776403,0.41809999999776437,0.4418999999985118]",,12,0,12,0,1,,,,
,,123,2024-08-05_15h27.35.486,GoFitts,2022.2.4,Win32,60.24096386,,,,,,,,,,,,,,,,,,"[61.80339887498945,-190.21130325903073]","[-99.99999999999996,173.20508075688775]",48,400,0,"[73.3333740234375,73.3333740234375,72.666748046875,69.3333740234375,68,66.666748046875,65.3333740234375,63.3333740234375,63.3333740234375,63.3333740234375,63.3333740234375,63.3333740234375,63.3333740234375,63.3333740234375,64,65.3333740234375,66,67.3333740234375,67.3333740234375,64,60,50,36.666748046875,18.666748046875,5.3333740234375,-18.6666259765625,-40.6666259765625,-71.333251953125,-98,-113.333251953125,-120,-122,-122,-122,-122]","[-173.3333740234375,-177.3333740234375,-180,-186.66668701171875,-191.3333740234375,-196.66668701171875,-202,-208.66668701171875,-211.3333740234375,-211.3333740234375,-212,-212,-212,-212,-211.3333740234375,-210.66668701171875,-209.3333740234375,-205.3333740234375,-200,-184.66668701171875,-168,-144.66668701171875,-114,-78,-43.3333740234375,6,54.6666259765625,100.6666259765625,134.6666259765625,151.33331298828125,158.6666259765625,161.33331298828125,162.6666259765625,163.33331298828125,166]","[0,0,0,0,0,0,0,0,0,0,0,0,0,0,0,0,0,0,0,0,0,0,0,0,0,0,0,0,0,0,0,0,0,0,0]","[0,0,0,0,0,0,0,0,0,0,0,0,0,0,0,0,0,0,0,0,0,0,0,0,0,0,0,0,0,0,0,0,0,0,0]","[0,0,0,0,0,0,0,0,0,0,0,0,0,0,0,0,0,0,0,0,0,0,0,0,0,0,0,0,0,0,0,0,0,0,0]","[0.00019999999926056944,0.015500000000002956,0.023199999999256704,0.05010000000149262,0.06660000000149324,0.0835000000000008,0.10039999999851545,0.1166000000014904,0.1333000000007516,0.14980000000074511,0.16680000000074813,0.1831000000014953,0.1923000000007491,0.21489999999851506,0.22439999999851068,0.25,0.25930000000074926,0.2833999999985153,0.2923000000007505,0.3165000000000049,0.33289999999851005,0.34810000000149444,0.36680000000075097,0.3838000000007469,0.4003000000007475,0.41689999999851324,0.43330000000074875,0.45030000000074466,0.4673000000007477,0.48360000000149483,0.5015000000000001,0.5203000000007449,0.5330000000000013,0.5491999999992601,0.5656999999992607]",,13,0,13,0,1,,,,
,,123,2024-08-05_15h27.35.486,GoFitts,2022.2.4,Win32,60.24096386,,,,,,,,,,,,,,,,,,"[-99.99999999999996,173.20508075688775]","[133.82612127177168,-148.6289650954788]",48,400,0,"[-122,-122.6666259765625,-123.333251953125,-123.333251953125,-121.333251953125,-119.333251953125,-118.6666259765625,-118,-118,-115.333251953125,-111.333251953125,-108,-103.333251953125,-100.6666259765625,-100,-100,-98,-96.6666259765625,-92.6666259765625,-86,-76,-56.6666259765625,-39.333251953125,-22,-4,12.666748046875,21.3333740234375,32,44,57.3333740234375,68.666748046875,72.666748046875,81.3333740234375,82.666748046875,83.3333740234375,84,84,86,90,96.666748046875,102.666748046875,108.666748046875,111.3333740234375,112,113.3333740234375,117.3333740234375]","[166,167.33331298828125,168.6666259765625,171.33331298828125,173.33331298828125,174.6666259765625,174.6666259765625,175.33331298828125,175.33331298828125,175.33331298828125,175.33331298828125,174.6666259765625,172,170.6666259765625,170,170,168,165.33331298828125,160.6666259765625,150.6666259765625,137.33331298828125,114,92,68.6666259765625,40,8.6666259765625,-16,-42,-64.66668701171875,-83.3333740234375,-98,-102.66668701171875,-112,-114.66668701171875,-118,-119.3333740234375,-120,-122.66668701171875,-126,-128.66668701171875,-130.66668701171875,-131.3333740234375,-132,-132.66668701171875,-132.66668701171875,-133.3333740234375]","[0,0,0,0,0,0,0,0,0,0,0,0,0,0,0,0,0,0,0,0,0,0,0,0,0,0,0,0,0,0,0,0,0,0,0,0,0,0,0,0,0,0,0,0,0,0]","[0,0,0,0,0,0,0,0,0,0,0,0,0,0,0,0,0,0,0,0,0,0,0,0,0,0,0,0,0,0,0,0,0,0,0,0,0,0,0,0,0,0,0,0,0,0]","[0,0,0,0,0,0,0,0,0,0,0,0,0,0,0,0,0,0,0,0,0,0,0,0,0,0,0,0,0,0,0,0,0,0,0,0,0,0,0,0,0,0,0,0,0,0]","[0.000199999999253464,0.01639999999851227,0.03399999999999892,0.0506000000014879,0.0673999999985071,0.08410000000149154,0.09369999999925227,0.11769999999925318,0.13369999999925852,0.15050000000000097,0.16710000000148995,0.18410000000149296,0.20080000000074705,0.2168999999985104,0.2338999999985134,0.25039999999851403,0.2671999999992565,0.2841000000014873,0.3008999999985136,0.3173000000007491,0.32669999999925636,0.3509999999999991,0.36739999999851136,0.3841999999992538,0.4008000000007428,0.41719999999925506,0.43410000000149296,0.4506999999992587,0.4673999999985128,0.48400000000000176,0.5008999999985093,0.5103000000007469,0.5345000000000013,0.5508000000007485,0.5675000000000026,0.5841000000014915,0.6008000000007456,0.6176999999992532,0.633899999998512,0.6506999999992544,0.6673000000007434,0.6841999999992581,0.7011000000014889,0.7103000000007427,0.7231000000014873,0.750399999998514]",,14,0,14,0,1,,,,
,,123,2024-08-05_15h27.35.486,GoFitts,2022.2.4,Win32,60.24096386,,,,,,,,,,,,,,,,,,,,,,0,,,,,,,,,,,,,0,0,0,1
,,123,2024-08-05_15h27.35.486,GoFitts,2022.2.4,Win32,60.24096386,,,,,,,,,,,,,,,,return,2.8326,"[76,-91.3333740234375]","[108.73372353331446,120.76103414007656]",60.5,325,1,"[76,76,76,76,76,76,76,76,76,76,76,76,76,76,76,76,76,76,76,76,76,76,76,76,76,76,76,76,76,76,76,76,76,76,76,76,76,76,76,76,76,76,76,76,76,76,76,76,76,77.3333740234375,77.3333740234375,77.3333740234375,77.3333740234375,77.3333740234375,77.3333740234375,77.3333740234375,77.3333740234375,77.3333740234375,77.3333740234375,77.3333740234375,77.3333740234375,72.666748046875,63.3333740234375,50.666748046875,35.3333740234375,22.666748046875,15.3333740234375,12.666748046875,12.666748046875,12.666748046875,12.666748046875,12.666748046875,14,15.3333740234375,16.666748046875,18.666748046875,20.666748046875,23.3333740234375,25.3333740234375,28.666748046875,32.666748046875,38,43.3333740234375,47.3333740234375,51.3333740234375,56.666748046875,60,63.3333740234375,64,64.666748046875,65.3333740234375,66.666748046875,67.3333740234375,69.3333740234375,70,72,74.666748046875,79.3333740234375,86.666748046875]","[-91.3333740234375,-91.3333740234375,-91.3333740234375,-91.3333740234375,-91.3333740234375,-91.3333740234375,-91.3333740234375,-91.3333740234375,-91.3333740234375,-91.3333740234375,-91.3333740234375,-91.3333740234375,-91.3333740234375,-91.3333740234375,-91.3333740234375,-91.3333740234375,-91.3333740234375,-91.3333740234375,-91.3333740234375,-91.3333740234375,-91.3333740234375,-91.3333740234375,-91.3333740234375,-91.3333740234375,-91.3333740234375,-91.3333740234375,-91.3333740234375,-91.3333740234375,-91.3333740234375,-91.3333740234375,-91.3333740234375,-91.3333740234375,-91.3333740234375,-91.3333740234375,-91.3333740234375,-91.3333740234375,-91.3333740234375,-91.3333740234375,-91.3333740234375,-91.3333740234375,-91.3333740234375,-91.3333740234375,-91.3333740234375,-91.3333740234375,-91.3333740234375,-91.3333740234375,-91.3333740234375,-91.3333740234375,-90.66668701171875,-89.3333740234375,-89.3333740234375,-89.3333740234375,-89.3333740234375,-89.3333740234375,-89.3333740234375,-89.3333740234375,-89.3333740234375,-89.3333740234375,-89.3333740234375,-89.3333740234375,-89.3333740234375,-89.3333740234375,-84,-66.66668701171875,-43.3333740234375,-28.66668701171875,-20,-17.3333740234375,-16.66668701171875,-16.66668701171875,-16.66668701171875,-10.66668701171875,-6.66668701171875,-2.66668701171875,0.6666259765625,5.33331298828125,10,16.6666259765625,21.33331298828125,26.6666259765625,32,38.6666259765625,44.6666259765625,49.33331298828125,54,60,65.33331298828125,74,80.6666259765625,84,86.6666259765625,90,92.6666259765625,95.33331298828125,96.6666259765625,98.6666259765625,100.6666259765625,104,108.6666259765625]","[0,0,0,0,0,0,0,0,0,0,0,0,0,0,0,0,0,0,0,0,0,0,0,0,0,0,0,0,0,0,0,0,0,0,0,0,0,0,0,0,0,0,0,0,0,0,0,0,0,0,0,0,0,0,0,0,0,0,0,0,0,0,0,0,0,0,0,0,0,0,0,0,0,0,0,0,0,0,0,0,0,0,0,0,0,0,0,0,0,0,0,0,0,0,0,0,0,0,0]","[0,0,0,0,0,0,0,0,0,0,0,0,0,0,0,0,0,0,0,0,0,0,0,0,0,0,0,0,0,0,0,0,0,0,0,0,0,0,0,0,0,0,0,0,0,0,0,0,0,0,0,0,0,0,0,0,0,0,0,0,0,0,0,0,0,0,0,0,0,0,0,0,0,0,0,0,0,0,0,0,0,0,0,0,0,0,0,0,0,0,0,0,0,0,0,0,0,0,0]","[0,0,0,0,0,0,0,0,0,0,0,0,0,0,0,0,0,0,0,0,0,0,0,0,0,0,0,0,0,0,0,0,0,0,0,0,0,0,0,0,0,0,0,0,0,0,0,0,0,0,0,0,0,0,0,0,0,0,0,0,0,0,0,0,0,0,0,0,0,0,0,0,0,0,0,0,0,0,0,0,0,0,0,0,0,0,0,0,0,0,0,0,0,0,0,0,0,0,0]","[0.0011999999992511334,0.02660000000148699,0.034800000000743125,0.048699999999250565,0.07639999999850744,0.09360000000148716,0.10980000000073886,0.1263999999985046,0.13399999999999324,0.1481999999992496,0.17649999999999721,0.18460000000148824,0.19860000000148403,0.22649999999999437,0.23530000000074125,0.24880000000074176,0.2656999999992493,0.28169999999925466,0.2984999999999971,0.3208999999985096,0.33180000000074017,0.35949999999999704,0.3674999999999997,0.38189999999850954,0.40969999999925477,0.41719999999925506,0.4313999999985043,0.4596000000014868,0.46749999999999403,0.4824999999999946,0.509600000001484,0.5233999999985031,0.5318999999985081,0.5581000000014882,0.5766000000014841,0.5901000000014847,0.5986000000014897,0.6153000000007438,0.6431999999992541,0.6578000000007407,0.6658000000007434,0.6903999999985047,0.6988000000007446,0.7261999999992526,0.7343000000007436,0.7581000000014839,0.7659999999999982,0.7818999999985081,0.8083000000007416,0.8266000000014841,0.842800000000743,0.8511999999992526,0.8746999999992511,0.8831000000014839,0.9096000000014897,0.9261000000014832,0.9346999999992534,0.9596999999992519,0.9761000000014874,0.9841000000014901,0.9986000000014883,1.0263999999985032,1.0428999999985038,1.0598999999985068,1.0766999999992493,1.0931999999992499,1.1101000000014878,1.1266999999992535,1.1431999999992541,1.1596000000014897,1.1763000000007438,1.1931000000014862,1.2098000000007403,1.226699999999255,1.2431999999992485,1.2598000000007445,1.276699999999252,1.2931999999992527,1.3098999999985068,1.3268999999985098,1.3353999999985078,1.359899999998504,1.3766000000014884,1.393499999999996,1.4098999999985082,1.4266000000014856,1.442699999999249,1.4596000000014868,1.4768000000007433,1.4931999999992485,1.510399999998505,1.5271999999992545,1.5364999999999966,1.5603999999985092,1.5769999999999982,1.5938999999985057,1.6103000000007412,1.6269999999999953,1.6436000000014843]",,0,0,0,0,1,,,,
,,123,2024-08-05_15h27.35.486,GoFitts,2022.2.4,Win32,60.24096386,,,,,,,,,,,,,,,,,,"[108.73372353331446,120.76103414007656]","[-81.25000000000007,-140.72912811497125]",60.5,325,1,"[86.666748046875,91.3333740234375,94.666748046875,95.3333740234375,96,98,100.666748046875,101.3333740234375,101.3333740234375,102,104,106,106,106,106,106,106,106,106,106,106,106,106,106,106,106,106,106,106,106,101.3333740234375,77.3333740234375,54,16.666748046875,-14.6666259765625,-36.6666259765625,-49.333251953125,-62,-69.333251953125]","[108.6666259765625,112,113.33331298828125,114,114,114.6666259765625,116,116.6666259765625,116.6666259765625,116.6666259765625,116.6666259765625,117.33331298828125,117.33331298828125,117.33331298828125,117.33331298828125,117.33331298828125,117.33331298828125,117.33331298828125,117.33331298828125,117.33331298828125,117.33331298828125,117.33331298828125,117.33331298828125,117.33331298828125,117.33331298828125,117.33331298828125,117.33331298828125,117.33331298828125,117.33331298828125,117.33331298828125,112.6666259765625,85.33331298828125,58.6666259765625,20,-17.3333740234375,-50,-78,-97.3333740234375,-113.3333740234375]","[0,0,0,0,0,0,0,0,0,0,0,0,0,0,0,0,0,0,0,0,0,0,0,0,0,0,0,0,0,0,0,0,0,0,0,0,0,0,0]","[0,0,0,0,0,0,0,0,0,0,0,0,0,0,0,0,0,0,0,0,0,0,0,0,0,0,0,0,0,0,0,0,0,0,0,0,0,0,0]","[0,0,0,0,0,0,0,0,0,0,0,0,0,0,0,0,0,0,0,0,0,0,0,0,0,0,0,0,0,0,0,0,0,0,0,0,0,0,0]","[0.0006000000014907414,0.017199999999256477,0.03250000000000597,0.04939999999851352,0.0660000000000025,0.07539999999850977,0.09810000000149444,0.1158999999985113,0.12460000000149307,0.14960000000149165,0.16580000000075046,0.1826000000014929,0.19900000000000517,0.21269999999925915,0.23069999999925983,0.23930000000074614,0.25410000000149324,0.27089999999851244,0.28730000000074796,0.3098000000007488,0.32069999999925614,0.3378000000007475,0.3658999999985113,0.3825000000000003,0.3991999999992544,0.41580000000075046,0.4239999999999995,0.4375,0.46569999999925926,0.4741999999992572,0.4881999999992601,0.5161000000014937,0.5328999999985129,0.5493000000007484,0.5660000000000025,0.5828000000007449,0.5993000000007456,0.6159999999999997,0.6328000000007492]",,1,0,1,0,1,,,,
,,123,2024-08-05_15h27.35.486,GoFitts,2022.2.4,Win32,60.24096386,,,,,,,,,,,,,,,,,,"[-81.25000000000007,-140.72912811497125]","[50.215261585928964,154.54668389796245]",60.5,325,1,"[-69.333251953125,-76,-78,-83.333251953125,-89.333251953125,-90.6666259765625,-92.6666259765625,-92.6666259765625,-92.6666259765625,-92.6666259765625,-94,-94,-94,-94,-94,-94,-94,-87.333251953125,-84.6666259765625,-64,-50.6666259765625,-39.333251953125,-28,-18,-8.6666259765625,0,4.666748046875,13.3333740234375,22,22,22,22.666748046875,24,24.666748046875,26,27.3333740234375,27.3333740234375,28,28.666748046875,30,34.666748046875]","[-113.3333740234375,-126.66668701171875,-130.66668701171875,-147.3333740234375,-157.3333740234375,-161.3333740234375,-166.66668701171875,-172.66668701171875,-176,-178.66668701171875,-181.3333740234375,-182,-183.3333740234375,-184,-184,-184,-184,-177.3333740234375,-174,-146.66668701171875,-124.66668701171875,-99.3333740234375,-72.66668701171875,-44,-16,10,21.33331298828125,43.33331298828125,76.6666259765625,94,102,109.33331298828125,114.6666259765625,118,120,121.33331298828125,121.33331298828125,122.6666259765625,125.33331298828125,127.33331298828125,132]","[0,0,0,0,0,0,0,0,0,0,0,0,0,0,0,0,0,0,0,0,0,0,0,0,0,0,0,0,0,0,0,0,0,0,0,0,0,0,0,0,0]","[0,0,0,0,0,0,0,0,0,0,0,0,0,0,0,0,0,0,0,0,0,0,0,0,0,0,0,0,0,0,0,0,0,0,0,0,0,0,0,0,0]","[0,0,0,0,0,0,0,0,0,0,0,0,0,0,0,0,0,0,0,0,0,0,0,0,0,0,0,0,0,0,0,0,0,0,0,0,0,0,0,0,0]","[0.0006000000014907414,0.016100000001493697,0.024800000000745115,0.049800000000743694,0.06630000000074432,0.08280000000074494,0.09949999999999903,0.11619999999926023,0.13300000000000267,0.1495000000000033,0.1661999999992574,0.18280000000074637,0.1915000000000049,0.21590000000223597,0.23260000000149006,0.24660000000149296,0.2548000000007491,0.2806000000014919,0.28950000000000387,0.3164000000022398,0.33330000000074733,0.34949999999999903,0.36650000000000205,0.3828000000007492,0.3995000000000033,0.4164000000022341,0.4253000000007461,0.43810000000149074,0.46619999999925454,0.48260000000149006,0.4994000000022396,0.5159999999999982,0.5326000000014943,0.5494000000022368,0.566199999999256,0.5828000000007449,0.5990000000000038,0.607900000002239,0.6321999999992585,0.6483000000007451,0.6648000000007457]",,2,0,2,0,1,,,,
,,123,2024-08-05_15h27.35.486,GoFitts,2022.2.4,Win32,60.24096386,,,,,,,,,,,,,,,,,,"[50.215261585928964,154.54668389796245]","[-16.985875280993813,-161.6098079973444]",60.5,325,1,"[34.666748046875,37.3333740234375,40,41.3333740234375,42,42,42,42,42,42,42,43.3333740234375,43.3333740234375,43.3333740234375,43.3333740234375,42.666748046875,36,26.666748046875,15.3333740234375,5.3333740234375,0,-1.333251953125,-0.6666259765625,0]","[132,134.6666259765625,138,138.6666259765625,139.33331298828125,139.33331298828125,139.33331298828125,139.33331298828125,139.33331298828125,139.33331298828125,139.33331298828125,140.6666259765625,140.6666259765625,140.6666259765625,135.33331298828125,118,93.33331298828125,58,17.33331298828125,-25.3333740234375,-69.3333740234375,-100,-121.3333740234375,-138.66668701171875]","[0,0,0,0,0,0,0,0,0,0,0,0,0,0,0,0,0,0,0,0,0,0,0,0]","[0,0,0,0,0,0,0,0,0,0,0,0,0,0,0,0,0,0,0,0,0,0,0,0]","[0,0,0,0,0,0,0,0,0,0,0,0,0,0,0,0,0,0,0,0,0,0,0,0]","[0.00009999999776511004,0.01719999999924937,0.034199999999252384,0.05089999999850647,0.06749999999999545,0.08409999999776119,0.0975999999977617,0.11719999999925079,0.12530000000074182,0.15019999999925204,0.16689999999850613,0.17580000000074136,0.2006999999992516,0.20969999999925193,0.23430000000074358,0.2513000000007395,0.2678999999985052,0.28439999999850585,0.3011999999992554,0.3178000000007444,0.33449999999999847,0.351399999998506,0.367999999999995,0.3774999999999977]",,3,0,3,0,1,,,,
,,123,2024-08-05_15h27.35.486,GoFitts,2022.2.4,Win32,60.24096386,,,,,,,,,,,,,,,,,,"[-16.985875280993813,-161.6098079973444]","[-16.985875280993668,161.60980799734443]",60.5,325,1,"[0,-0.6666259765625,-3.333251953125,-4.6666259765625,-5.333251953125,-5.333251953125,-5.333251953125,-6,-6,-6,-6,-6,-6,-6,-6,-6,-6,-6,-6,-3.333251953125,0.666748046875,4.666748046875,6,5.3333740234375,-0.6666259765625,-16,-24.6666259765625,-29.333251953125,-30.6666259765625,-32,-32,-32,-32]","[-138.66668701171875,-158,-165.3333740234375,-170,-172.66668701171875,-173.3333740234375,-173.3333740234375,-174,-174,-174,-174,-174,-174,-174,-174,-170.66668701171875,-166,-148.66668701171875,-132.66668701171875,-111.3333740234375,-85.3333740234375,-48.66668701171875,-12,18.6666259765625,47.33331298828125,88.6666259765625,106.6666259765625,117.33331298828125,122.6666259765625,126.6666259765625,129.33331298828125,132.6666259765625,138]","[0,0,0,0,0,0,0,0,0,0,0,0,0,0,0,0,0,0,0,0,0,0,0,0,0,0,0,0,0,0,0,0,0]","[0,0,0,0,0,0,0,0,0,0,0,0,0,0,0,0,0,0,0,0,0,0,0,0,0,0,0,0,0,0,0,0,0]","[0,0,0,0,0,0,0,0,0,0,0,0,0,0,0,0,0,0,0,0,0,0,0,0,0,0,0,0,0,0,0,0,0]","[0.0005000000000023874,0.02369999999925909,0.04019999999925972,0.05700000000000216,0.07339999999851443,0.09039999999851034,0.0988999999985154,0.12379999999702562,0.14009999999776568,0.14939999999851494,0.17359999999776932,0.18209999999776727,0.19539999999851432,0.223399999998513,0.23189999999851096,0.2570999999977701,0.26639999999851227,0.2907999999970201,0.30729999999702073,0.3235999999977679,0.34039999999851034,0.3567999999970226,0.3736999999992605,0.39029999999701914,0.3991999999992544,0.4235999999977693,0.44009999999776994,0.4568999999985124,0.4735999999977665,0.4905000000000044,0.5070999999977701,0.5236999999992591,0.5405000000000015]",,4,0,4,0,1,,,,
,,123,2024-08-05_15h27.35.486,GoFitts,2022.2.4,Win32,60.24096386,,,,,,,,,,,,,,,,,,"[-16.985875280993668,161.60980799734443]","[50.21526158592892,-154.54668389796245]",60.5,325,1,"[-32,-32,-32,-32,-32,-32,-32,-32,-32,-32,-32,-28.6666259765625,-26,-24.6666259765625,-21.333251953125,-18.6666259765625,-9.333251953125,-6.6666259765625,-3.333251953125,2,2,6.666748046875,10,13.3333740234375,15.3333740234375,16.666748046875,19.3333740234375,20,28]","[138,141.33331298828125,144.6666259765625,146,147.33331298828125,147.33331298828125,147.33331298828125,147.33331298828125,147.33331298828125,147.33331298828125,147.33331298828125,148,147.33331298828125,145.33331298828125,140,135.33331298828125,102,89.33331298828125,72,-7.3333740234375,-20.66668701171875,-63.3333740234375,-89.3333740234375,-108,-122,-128,-132.66668701171875,-134.66668701171875,-144]","[0,0,0,0,0,0,0,0,0,0,0,0,0,0,0,0,0,0,0,0,0,0,0,0,0,0,0,0,0]","[0,0,0,0,0,0,0,0,0,0,0,0,0,0,0,0,0,0,0,0,0,0,0,0,0,0,0,0,0]","[0,0,0,0,0,0,0,0,0,0,0,0,0,0,0,0,0,0,0,0,0,0,0,0,0,0,0,0,0]","[0.000399999998506928,0.016100000001486592,0.03269999999925233,0.042100000001489946,0.06630000000074432,0.08249999999999602,0.09019999999924977,0.10339999999850846,0.12969999999925363,0.13780000000074466,0.153899999998508,0.18080000000074392,0.19919999999925153,0.21589999999850562,0.23269999999925517,0.24199999999999733,0.2661999999992517,0.2809999999999988,0.2901000000014875,0.31639999999850943,0.3256000000014865,0.3496999999992525,0.3661999999992531,0.3831000000014839,0.39969999999924966,0.4161999999992503,0.43299999999999983,0.44139999999850943,0.4654999999999987]",,5,0,5,0,1,,,,
,,123,2024-08-05_15h27.35.486,GoFitts,2022.2.4,Win32,60.24096386,,,,,,,,,,,,,,,,,,"[50.21526158592892,-154.54668389796245]","[-81.24999999999996,140.7291281149713]",60.5,325,1,"[28,31.3333740234375,33.3333740234375,34,35.3333740234375,36.666748046875,40,45.3333740234375,50,56,59.3333740234375,60.666748046875,60.666748046875,60.666748046875,61.3333740234375,61.3333740234375,61.3333740234375,61.3333740234375,61.3333740234375,57.3333740234375,45.3333740234375,31.3333740234375,17.3333740234375,10.666748046875,-4,-20,-34.6666259765625,-51.333251953125,-68.6666259765625,-84,-94,-99.333251953125,-100.6666259765625,-101.333251953125,-101.333251953125,-101.333251953125,-101.333251953125,-101.333251953125,-100.6666259765625,-100.6666259765625,-100,-96.6666259765625,-93.333251953125]","[-144,-148,-150.66668701171875,-152,-154,-156,-158,-159.3333740234375,-161.3333740234375,-162,-162.66668701171875,-162.66668701171875,-162.66668701171875,-162.66668701171875,-162.66668701171875,-162.66668701171875,-162.66668701171875,-162.66668701171875,-162.66668701171875,-156.66668701171875,-140,-124.66668701171875,-103.3333740234375,-92.66668701171875,-59.3333740234375,-18.66668701171875,10,34.6666259765625,57.33331298828125,74.6666259765625,87.33331298828125,94,97.33331298828125,100,102,102.6666259765625,105.33331298828125,108.6666259765625,110.6666259765625,111.33331298828125,111.33331298828125,111.33331298828125,113.33331298828125]","[0,0,0,0,0,0,0,0,0,0,0,0,0,0,0,0,0,0,0,0,0,0,0,0,0,0,0,0,0,0,0,0,0,0,0,0,0,0,0,0,0,0,0]","[0,0,0,0,0,0,0,0,0,0,0,0,0,0,0,0,0,0,0,0,0,0,0,0,0,0,0,0,0,0,0,0,0,0,0,0,0,0,0,0,0,0,0]","[0,0,0,0,0,0,0,0,0,0,0,0,0,0,0,0,0,0,0,0,0,0,0,0,0,0,0,0,0,0,0,0,0,0,0,0,0,0,0,0,0,0,0]","[0.000199999999253464,0.017000000000003013,0.03290000000223614,0.04960000000149023,0.05700000000000216,0.08310000000148676,0.09940000000223392,0.11610000000148801,0.1328000000007421,0.15040000000223586,0.16740000000223176,0.1839999999999975,0.2006999999992516,0.20969999999925193,0.23449999999999704,0.25060000000149074,0.25930000000074216,0.2841000000014873,0.29299999999999926,0.30669999999925324,0.3318000000007473,0.3501999999992549,0.36680000000074386,0.3753000000007418,0.40040000000223586,0.4164999999999992,0.4335000000000022,0.4501000000014912,0.4671000000014871,0.4838000000007483,0.5001999999992535,0.517000000000003,0.5334000000022385,0.5496000000014902,0.5668000000007467,0.5759000000022354,0.6006999999992573,0.6169999999999973,0.6336999999992514,0.6504000000022359,0.6671999999992551,0.683800000000744,0.700400000002233]",,6,0,6,0,1,,,,
,,123,2024-08-05_15h27.35.486,GoFitts,2022.2.4,Win32,60.24096386,,,,,,,,,,,,,,,,,,"[-81.24999999999996,140.7291281149713]","[108.7337235333145,-120.76103414007653]",60.5,325,1,"[-93.333251953125,-88,-83.333251953125,-80,-78,-78,-77.333251953125,-77.333251953125,-77.333251953125,-77.333251953125,-77.333251953125,-77.333251953125,-77.333251953125,-77.333251953125,-76,-69.333251953125,-55.333251953125,-29.333251953125,14.666748046875,62,80,94,100.666748046875]","[113.33331298828125,114,115.33331298828125,116.6666259765625,118,118,119.33331298828125,119.33331298828125,119.33331298828125,120.6666259765625,120.6666259765625,120.6666259765625,120.6666259765625,120.6666259765625,118,106.6666259765625,88,62,22,-26.66668701171875,-52,-76,-96.66668701171875]","[0,0,0,0,0,0,0,0,0,0,0,0,0,0,0,0,0,0,0,0,0,0,0]","[0,0,0,0,0,0,0,0,0,0,0,0,0,0,0,0,0,0,0,0,0,0,0]","[0,0,0,0,0,0,0,0,0,0,0,0,0,0,0,0,0,0,0,0,0,0,0]","[0.000399999998506928,0.016099999997763348,0.03279999999701744,0.049500000000001876,0.06619999999925597,0.08309999999776352,0.09989999999851307,0.11599999999999966,0.12459999999776272,0.14979999999702187,0.16589999999850846,0.17459999999776699,0.19950000000000045,0.20829999999701698,0.22979999999702017,0.24959999999776272,0.2662999999970168,0.28300000000000125,0.29189999999850613,0.3162999999970211,0.33289999999851005,0.3496999999992525,0.3663999999985066]",,7,0,7,0,1,,,,
,,123,2024-08-05_15h27.35.486,GoFitts,2022.2.4,Win32,60.24096386,,,,,,,,,,,,,,,,,,"[108.7337235333145,-120.76103414007653]","[-131.46526158592894,95.51510349752691]",60.5,325,1,"[100.666748046875,105.3333740234375,107.3333740234375,108,110,111.3333740234375,114,114.666748046875,115.3333740234375,115.3333740234375,115.3333740234375,116,116,116,116,116,116,108,101.3333740234375,52.666748046875,-30.6666259765625,-66,-84.6666259765625,-98,-110,-118.6666259765625,-126.6666259765625,-130.6666259765625,-133.333251953125]","[-96.66668701171875,-113.3333740234375,-120.66668701171875,-122,-124,-125.3333740234375,-126.66668701171875,-127.3333740234375,-128,-128,-128,-128,-128,-128,-128,-128,-128,-118.66668701171875,-112,-81.3333740234375,-30,-7.3333740234375,8,21.33331298828125,35.33331298828125,47.33331298828125,56.6666259765625,62.6666259765625,66]","[0,0,0,0,0,0,0,0,0,0,0,0,0,0,0,0,0,0,0,0,0,0,0,0,0,0,0,0,0]","[0,0,0,0,0,0,0,0,0,0,0,0,0,0,0,0,0,0,0,0,0,0,0,0,0,0,0,0,0]","[0,0,0,0,0,0,0,0,0,0,0,0,0,0,0,0,0,0,0,0,0,0,0,0,0,0,0,0,0]","[0.000399999998506928,0.01569999999925642,0.03260000000148722,0.041499999999999204,0.06610000000149086,0.08260000000149148,0.09930000000074557,0.11410000000149267,0.13260000000148864,0.1490000000000009,0.16419999999925494,0.17319999999925528,0.19919999999925864,0.20819999999925898,0.23230000000074824,0.24910000000149068,0.2578999999985072,0.2828999999985129,0.2920000000000016,0.31610000000149086,0.3329999999999984,0.3493999999985107,0.3661999999992531,0.383100000001491,0.39960000000149165,0.41630000000074574,0.4331999999992533,0.4496999999992539,0.46610000000148943]",,8,0,8,0,1,,,,
,,123,2024-08-05_15h27.35.486,GoFitts,2022.2.4,Win32,60.24096386,,,,,,,,,,,,,,,,,,"[-131.46526158592894,95.51510349752691]","[148.45113686692267,-66.09470449981752]",60.5,325,1,"[-133.333251953125,-134.6666259765625,-136.6666259765625,-138.6666259765625,-141.333251953125,-142,-142,-142,-142,-142,-142,-142,-142,-142,-142,-142,-130.6666259765625,-107.333251953125,-100.6666259765625,-86.6666259765625,-84.6666259765625,-84.6666259765625,-87.333251953125,-88.6666259765625,-98.6666259765625,-110.6666259765625,-124.6666259765625,-134.6666259765625,-140,-141.333251953125,-141.333251953125,-142,-142.6666259765625,-142.6666259765625,-142.6666259765625,-142,-130,-106,-88.6666259765625,-29.333251953125,13.3333740234375,28.666748046875,52.666748046875,76,80.666748046875,85.3333740234375,92,98,103.3333740234375,108,110,112.666748046875,118.666748046875,128.666748046875]","[66,68.6666259765625,70.6666259765625,73.33331298828125,78,80.6666259765625,81.33331298828125,81.33331298828125,81.33331298828125,81.33331298828125,81.33331298828125,81.33331298828125,81.33331298828125,81.33331298828125,81.33331298828125,81.33331298828125,72.6666259765625,52,44.6666259765625,28.6666259765625,21.33331298828125,16.6666259765625,14,13.33331298828125,12,12,12,14,15.33331298828125,16,16,16.6666259765625,18,18,18.6666259765625,19.33331298828125,19.33331298828125,16.6666259765625,13.33331298828125,4,-4.66668701171875,-7.3333740234375,-12.66668701171875,-20,-23.3333740234375,-28,-34,-39.3333740234375,-43.3333740234375,-45.3333740234375,-46,-47.3333740234375,-49.3333740234375,-54.66668701171875]","[0,0,0,0,0,0,0,0,0,0,0,0,0,0,0,0,0,0,0,0,0,0,0,0,0,0,0,0,0,0,0,0,0,0,0,0,0,0,0,0,0,0,0,0,0,0,0,0,0,0,0,0,0,0]","[0,0,0,0,0,0,0,0,0,0,0,0,0,0,0,0,0,0,0,0,0,0,0,0,0,0,0,0,0,0,0,0,0,0,0,0,0,0,0,0,0,0,0,0,0,0,0,0,0,0,0,0,0,0]","[0,0,0,0,0,0,0,0,0,0,0,0,0,0,0,0,0,0,0,0,0,0,0,0,0,0,0,0,0,0,0,0,0,0,0,0,0,0,0,0,0,0,0,0,0,0,0,0,0,0,0,0,0,0]","[0.0008000000007442054,0.016399999998505166,0.025300000000740397,0.03819999999925017,0.06649999999999778,0.08269999999924948,0.09939999999850357,0.11610000000148801,0.13210000000148625,0.14889999999850545,0.15699999999999648,0.170499999999997,0.18719999999925108,0.21449999999999392,0.22299999999999898,0.24939999999850926,0.2586000000014863,0.2828999999985058,0.2914999999999992,0.31639999999850943,0.33280000000074494,0.3493999999985036,0.3661999999992531,0.37519999999925346,0.39969999999924966,0.4159999999999968,0.4331000000014882,0.4496999999992539,0.4584999999999937,0.48310000000148534,0.4991999999992487,0.5146000000014865,0.5329999999999941,0.5493000000007413,0.5644999999999953,0.5831000000014868,0.5996000000014874,0.6163000000007415,0.6253999999985069,0.6496999999992497,0.6644999999999968,0.6734999999999971,0.6875,0.7161999999992545,0.7328000000007435,0.7491999999992487,0.7661000000014866,0.7833000000007431,0.7996999999992553,0.8163999999985094,0.8254999999999981,0.8383000000007428,0.8663000000007415,0.8823000000007397]",,9,0,9,0,1,,,,
,,123,2024-08-05_15h27.35.486,GoFitts,2022.2.4,Win32,60.24096386,,,,,,,,,,,,,,,,,,"[148.45113686692267,-66.09470449981752]","[-158.94898511924342,33.78564975788589]",60.5,325,1,"[128.666748046875,135.3333740234375,142,144.666748046875,146,146,147.3333740234375,147.3333740234375,147.3333740234375,147.3333740234375,147.3333740234375,147.3333740234375,127.3333740234375,106.666748046875,72.666748046875,23.3333740234375,-33.333251953125,-79.333251953125,-123.333251953125,-152.6666259765625]","[-54.66668701171875,-58.66668701171875,-62,-64,-64,-64,-64.66668701171875,-64.66668701171875,-64.66668701171875,-64.66668701171875,-64.66668701171875,-64.66668701171875,-64,-60,-52.66668701171875,-35.3333740234375,-12,8,29.33331298828125,41.33331298828125]","[0,0,0,0,0,0,0,0,0,0,0,0,0,0,0,0,0,0,0,0]","[0,0,0,0,0,0,0,0,0,0,0,0,0,0,0,0,0,0,0,0]","[0,0,0,0,0,0,0,0,0,0,0,0,0,0,0,0,0,0,0,0]","[0.0006000000014907414,0.016300000000740056,0.03300000000000125,0.049800000000743694,0.06649999999999778,0.08260000000149148,0.10000000000000142,0.11590000000223455,0.1328000000007421,0.14360000000149142,0.16580000000074335,0.17319999999925528,0.19980000000074227,0.2163000000007429,0.23280000000074352,0.24960000000148597,0.26630000000074006,0.2831000000014896,0.29969999999925534,0.3164999999999978]",,10,0,10,0,1,,,,
,,123,2024-08-05_15h27.35.486,GoFitts,2022.2.4,Win32,60.24096386,,,,,,,,,,,,,,,,,,"[-158.94898511924342,33.78564975788589]","[162.5,0]",60.5,325,1,"[-152.6666259765625,-172,-179.333251953125,-180.6666259765625,-181.333251953125,-181.333251953125,-181.333251953125,-181.333251953125,-181.333251953125,-181.333251953125,-181.333251953125,-181.333251953125,-181.333251953125,-181.333251953125,-181.333251953125,-180,-163.333251953125,-140,-67.333251953125,-31.333251953125,-1.333251953125,23.3333740234375,45.3333740234375,62.666748046875,76.666748046875,94,106.666748046875,115.3333740234375,117.3333740234375,120,121.3333740234375,124,130,135.3333740234375,139.3333740234375]","[41.33331298828125,48,50,50,50,50,50,50,50,50,50,50,50,50,50,49.33331298828125,44.6666259765625,41.33331298828125,38,38,38,38,36,34,32,27.33331298828125,26,24,23.33331298828125,22.6666259765625,22.6666259765625,21.33331298828125,18.6666259765625,17.33331298828125,16]","[0,0,0,0,0,0,0,0,0,0,0,0,0,0,0,0,0,0,0,0,0,0,0,0,0,0,0,0,0,0,0,0,0,0,0]","[0,0,0,0,0,0,0,0,0,0,0,0,0,0,0,0,0,0,0,0,0,0,0,0,0,0,0,0,0,0,0,0,0,0,0]","[0,0,0,0,0,0,0,0,0,0,0,0,0,0,0,0,0,0,0,0,0,0,0,0,0,0,0,0,0,0,0,0,0,0,0]","[0.0007999999970209615,0.015999999999998238,0.03289999999850579,0.04269999999925034,0.06629999999702108,0.08269999999925659,0.09919999999925011,0.1158999999985113,0.12519999999925346,0.1494999999999962,0.16589999999850846,0.1826999999992509,0.19929999999701664,0.21589999999850562,0.23289999999850863,0.24209999999776244,0.2548999999985071,0.2714999999999961,0.29999999999999716,0.3162999999970211,0.3329999999999984,0.3496999999992525,0.36649999999999494,0.3828999999985072,0.3995999999977613,0.4161999999992503,0.43309999999776494,0.44959999999776556,0.4580999999977635,0.4830999999977621,0.4995999999977627,0.5165999999977657,0.5331999999992547,0.5499999999999972,0.5666999999992512]",,11,0,11,0,1,,,,
,,123,2024-08-05_15h27.35.486,GoFitts,2022.2.4,Win32,60.24096386,,,,,,,,,,,,,,,,,,"[162.5,0]","[-158.94898511924342,-33.78564975788585]",60.5,325,1,"[139.3333740234375,141.3333740234375,141.3333740234375,141.3333740234375,142.666748046875,144.666748046875,145.3333740234375,146,146.666748046875,148,148,148.666748046875,147.3333740234375,140,130.666748046875,112.666748046875,100.666748046875,28.666748046875,-69.333251953125,-119.333251953125,-150]","[16,15.33331298828125,15.33331298828125,14.6666259765625,14,13.33331298828125,12.6666259765625,12.6666259765625,12,11.33331298828125,11.33331298828125,10.6666259765625,8.6666259765625,6,2,-2.66668701171875,-4.66668701171875,-8.66668701171875,-8.66668701171875,-10,-10]","[0,0,0,0,0,0,0,0,0,0,0,0,0,0,0,0,0,0,0,0,0]","[0,0,0,0,0,0,0,0,0,0,0,0,0,0,0,0,0,0,0,0,0]","[0,0,0,0,0,0,0,0,0,0,0,0,0,0,0,0,0,0,0,0,0]","[0.0008000000007442054,0.016100000001486592,0.03240000000223375,0.0471000000014854,0.06640000000223267,0.08299999999999841,0.0921000000014871,0.11460000000148796,0.13299999999999557,0.14960000000148455,0.1659000000022317,0.1813000000007463,0.1979000000022353,0.21649999999999636,0.23310000000148534,0.2494999999999976,0.25890000000223523,0.2831999999992547,0.29969999999925534,0.3164000000022327,0.3329000000022333]",,12,0,12,0,1,,,,
,,123,2024-08-05_15h27.35.486,GoFitts,2022.2.4,Win32,60.24096386,,,,,,,,,,,,,,,,,,"[-158.94898511924342,-33.78564975788585]","[148.45113686692264,66.09470449981752]",60.5,325,1,"[-150,-172.6666259765625,-192,-204,-212,-216,-218.6666259765625,-219.333251953125,-220,-220.6666259765625,-220.6666259765625,-220.6666259765625,-220,-214.6666259765625,-206.6666259765625,-198.6666259765625,-170,-145.333251953125,-114,-74,-35.333251953125,8.666748046875,52.666748046875,68.666748046875,78,84.666748046875,91.3333740234375,103.3333740234375,118.666748046875,131.3333740234375]","[-10,-8.66668701171875,-6.66668701171875,-6.66668701171875,-6.66668701171875,-6.66668701171875,-8.66668701171875,-9.3333740234375,-10,-10.66668701171875,-10.66668701171875,-11.3333740234375,-14,-18,-20,-23.3333740234375,-26.66668701171875,-26.66668701171875,-24.66668701171875,-19.3333740234375,-14.66668701171875,-1.3333740234375,13.33331298828125,22,27.33331298828125,32.6666259765625,36.6666259765625,40.6666259765625,44.6666259765625,48.6666259765625]","[0,0,0,0,0,0,0,0,0,0,0,0,0,0,0,0,0,0,0,0,0,0,0,0,0,0,0,0,0,0]","[0,0,0,0,0,0,0,0,0,0,0,0,0,0,0,0,0,0,0,0,0,0,0,0,0,0,0,0,0,0]","[0,0,0,0,0,0,0,0,0,0,0,0,0,0,0,0,0,0,0,0,0,0,0,0,0,0,0,0,0,0]","[0.0006000000014907414,0.016199999999258807,0.03280000000074779,0.048899999998511134,0.06539999999851176,0.08230000000074966,0.0996000000014945,0.11610000000149512,0.12530000000074892,0.15000000000000568,0.16630000000074574,0.18089999999851614,0.20000000000000284,0.21669999999925693,0.2330000000000041,0.24130000000074858,0.26689999999851466,0.2811999999992594,0.3001000000014926,0.31639999999850943,0.33330000000074733,0.3423999999985128,0.3666000000014904,0.3833000000007445,0.3998999999985102,0.41660000000149466,0.43330000000074875,0.4498000000007494,0.46650000000000347,0.483399999998511]",,13,0,13,0,1,,,,
,,123,2024-08-05_15h27.35.486,GoFitts,2022.2.4,Win32,60.24096386,,,,,,,,,,,,,,,,,,"[148.45113686692264,66.09470449981752]","[-131.46526158592897,-95.51510349752687]",60.5,325,1,"[131.3333740234375,140.666748046875,146.666748046875,152,155.3333740234375,156,156,156,156,162,164.666748046875,164.666748046875,164.666748046875,164.666748046875,159.3333740234375,156,132.666748046875,102.666748046875,68.666748046875,24.666748046875,-16,-49.333251953125,-67.333251953125,-75.333251953125,-83.333251953125,-90,-96,-117.333251953125]","[48.6666259765625,52,54,55.33331298828125,56,56.6666259765625,56.6666259765625,56.6666259765625,56.6666259765625,58,58,58.6666259765625,58.6666259765625,58.6666259765625,56.6666259765625,52.6666259765625,40,20,0.6666259765625,-20,-31.3333740234375,-41.3333740234375,-49.3333740234375,-54.66668701171875,-58.66668701171875,-62,-64,-73.3333740234375]","[0,0,0,0,0,0,0,0,0,0,0,0,0,0,0,0,0,0,0,0,0,0,0,0,0,0,0,0]","[0,0,0,0,0,0,0,0,0,0,0,0,0,0,0,0,0,0,0,0,0,0,0,0,0,0,0,0]","[0,0,0,0,0,0,0,0,0,0,0,0,0,0,0,0,0,0,0,0,0,0,0,0,0,0,0,0]","[0.0005999999977674975,0.016199999999251702,0.03180000000074301,0.04859999999776221,0.06569999999925358,0.08269999999925659,0.09949999999999903,0.11599999999999966,0.12480000000074654,0.14980000000074511,0.16630000000074574,0.18289999999851148,0.1993999999985121,0.20889999999850772,0.23280000000074352,0.24239999999851136,0.26609999999776335,0.28309999999776636,0.30059999999776466,0.31639999999850943,0.3329999999999984,0.3496999999992525,0.3661999999992531,0.38300000000000267,0.39969999999925676,0.41630000000074574,0.425699999999253,0.4498999999985074]",,14,0,14,0,1,,,,
,,123,2024-08-05_15h27.35.486,GoFitts,2022.2.4,Win32,60.24096386,,,,,,,,,,,,,,,,,,,,,,1,,,,,,,,,,,,,1,0,0,1
,,123,2024-08-05_15h27.35.486,GoFitts,2022.2.4,Win32,60.24096386,,,,,,,,,,,,,,,,return,1.5821,"[2.666748046875,-3.3333740234375]","[-83.14254606237348,-17.67249371950952]",77.8,170,2,"[2.666748046875,2.666748046875,2.666748046875,2.666748046875,2.666748046875,2.666748046875,2.666748046875,2.666748046875,2.666748046875,2.666748046875,2.666748046875,2.666748046875,2.666748046875,2.666748046875,2.666748046875,2.666748046875,2.666748046875,2.666748046875,2.666748046875,2.666748046875,2.666748046875,2.666748046875,2.666748046875,2.666748046875,2.666748046875,2.666748046875,2.666748046875,2.666748046875,2.666748046875,2.666748046875,2.666748046875,2.666748046875,2.666748046875,2.666748046875,2.666748046875,2.666748046875,2.666748046875,2.666748046875,2.666748046875,2.666748046875,2.666748046875,2.666748046875,2.666748046875,2.666748046875,2.666748046875,2.666748046875,2.666748046875,2.666748046875,2.666748046875,2.666748046875,2.666748046875,2.666748046875,2.666748046875,-35.333251953125,-41.333251953125,-43.333251953125,-43.333251953125,-43.333251953125,-50]","[-3.3333740234375,-3.3333740234375,-3.3333740234375,-3.3333740234375,-3.3333740234375,-3.3333740234375,-3.3333740234375,-3.3333740234375,-3.3333740234375,-3.3333740234375,-3.3333740234375,-3.3333740234375,-3.3333740234375,-3.3333740234375,-3.3333740234375,-3.3333740234375,-3.3333740234375,-3.3333740234375,-3.3333740234375,-3.3333740234375,-3.3333740234375,-3.3333740234375,-3.3333740234375,-3.3333740234375,-3.3333740234375,-3.3333740234375,-3.3333740234375,-3.3333740234375,-3.3333740234375,-3.3333740234375,-3.3333740234375,-3.3333740234375,-3.3333740234375,-3.3333740234375,-3.3333740234375,-3.3333740234375,-3.3333740234375,-3.3333740234375,-3.3333740234375,-3.3333740234375,-3.3333740234375,-3.3333740234375,-3.3333740234375,-3.3333740234375,-3.3333740234375,-3.3333740234375,-3.3333740234375,-3.3333740234375,-3.3333740234375,-3.3333740234375,-3.3333740234375,-3.3333740234375,-3.3333740234375,10.6666259765625,10.6666259765625,10.6666259765625,10.6666259765625,10.6666259765625,2.6666259765625]","[0,0,0,0,0,0,0,0,0,0,0,0,0,0,0,0,0,0,0,0,0,0,0,0,0,0,0,0,0,0,0,0,0,0,0,0,0,0,0,0,0,0,0,0,0,0,0,0,0,0,0,0,0,0,0,0,0,0,0]","[0,0,0,0,0,0,0,0,0,0,0,0,0,0,0,0,0,0,0,0,0,0,0,0,0,0,0,0,0,0,0,0,0,0,0,0,0,0,0,0,0,0,0,0,0,0,0,0,0,0,0,0,0,0,0,0,0,0,0]","[0,0,0,0,0,0,0,0,0,0,0,0,0,0,0,0,0,0,0,0,0,0,0,0,0,0,0,0,0,0,0,0,0,0,0,0,0,0,0,0,0,0,0,0,0,0,0,0,0,0,0,0,0,0,0,0,0,0,0]","[0.0015000000000000568,0.01540000000223074,0.02270000000297756,0.03730000000074085,0.06430000000074187,0.07680000000074472,0.08849999999999625,0.10410000000148756,0.13070000000297455,0.1389999999999958,0.16549999999999443,0.17370000000298091,0.19699999999999562,0.2057000000029774,0.22960000000148995,0.24620000000297892,0.2653000000007424,0.2804000000022313,0.2882000000029805,0.315400000002235,0.3234999999999957,0.34970000000297574,0.36549999999999727,0.37380000000074176,0.39740000000223574,0.4054000000022313,0.4308000000007439,0.4391000000014884,0.454100000001489,0.4806000000014876,0.49880000000074176,0.5152000000029773,0.5317000000029779,0.5444000000022342,0.5653000000007395,0.5818000000007402,0.5894000000022359,0.6154999999999973,0.6237000000029767,0.6488000000007403,0.6654000000022293,0.6738000000007389,0.6989999999999981,0.7073000000007426,0.7321000000014877,0.7402000000029787,0.7542000000029745,0.7713000000007426,0.7988000000007389,0.8155000000000001,0.8239999999999981,0.8374999999999986,0.8542000000029759,0.8826000000014886,0.8992000000029776,0.9161000000014852,0.9322000000029789,0.9407000000029768,0.9647000000029777]",,0,0,0,0,1,,,,
,,123,2024-08-05_15h27.35.486,GoFitts,2022.2.4,Win32,60.24096386,,,,,,,,,,,,,,,,,,"[-83.14254606237348,-17.67249371950952]","[77.65136389962107,34.57261466144301]",77.8,170,2,"[-50,-52,-52,-52,-52,-52,-52,-52,-52,-52,-52,-52,-52,-52,-53.333251953125,-55.333251953125,-55.333251953125,-55.333251953125,-55.333251953125,-55.333251953125,-55.333251953125,-55.333251953125,-55.333251953125,-55.333251953125,-55.333251953125,-55.333251953125,-55.333251953125,-55.333251953125,-52.6666259765625,-26,-12,0,11.3333740234375,20,24,28.666748046875,31.3333740234375,36,41.3333740234375]","[2.6666259765625,0,0,0,0,0,0,0,0,0,0,0,0,0,-0.66668701171875,-0.66668701171875,-0.66668701171875,-0.66668701171875,-0.66668701171875,-0.66668701171875,-0.66668701171875,-0.66668701171875,-0.66668701171875,-0.66668701171875,-0.66668701171875,-0.66668701171875,-0.66668701171875,-0.66668701171875,2,9.33331298828125,11.33331298828125,12,13.33331298828125,14.6666259765625,15.33331298828125,16.6666259765625,18.6666259765625,20,22]","[0,0,0,0,0,0,0,0,0,0,0,0,0,0,0,0,0,0,0,0,0,0,0,0,0,0,0,0,0,0,0,0,0,0,0,0,0,0,0]","[0,0,0,0,0,0,0,0,0,0,0,0,0,0,0,0,0,0,0,0,0,0,0,0,0,0,0,0,0,0,0,0,0,0,0,0,0,0,0]","[0,0,0,0,0,0,0,0,0,0,0,0,0,0,0,0,0,0,0,0,0,0,0,0,0,0,0,0,0,0,0,0,0,0,0,0,0,0,0]","[0.000499999999995282,0.01729999999701448,0.03369999999925,0.050399999998504086,0.06700000000000017,0.0764999999999958,0.09869999999925483,0.10659999999776204,0.12249999999999517,0.13939999999850983,0.15559999999776153,0.18119999999925085,0.19419999999924897,0.20529999999701687,0.22229999999701988,0.25079999999701386,0.2594999999999956,0.27250000000000085,0.297799999997018,0.30589999999850903,0.32239999999850966,0.34899999999999665,0.36549999999999727,0.3737999999970185,0.394999999999996,0.4060999999977639,0.4323999999985091,0.44599999999999795,0.45619999999924943,0.48449999999999704,0.5010999999977628,0.5175999999977634,0.5343999999985058,0.5510999999977599,0.5676999999992489,0.5844999999999985,0.6008999999985107,0.6172999999970159,0.633499999999998]",,1,0,1,0,1,,,,
,,123,2024-08-05_15h27.35.486,GoFitts,2022.2.4,Win32,60.24096386,,,,,,,,,,,,,,,,,,"[77.65136389962107,34.57261466144301]","[-68.76644452187054,-49.96174644486021]",77.8,170,2,"[41.3333740234375,45.3333740234375,46.666748046875,47.3333740234375,47.3333740234375,47.3333740234375,50,54,56.666748046875,62,64.666748046875,66,67.3333740234375,67.3333740234375,67.3333740234375,67.3333740234375,66,63.3333740234375,60.666748046875,43.3333740234375,26.666748046875,7.3333740234375,-10.6666259765625,-27.333251953125,-36.6666259765625,-42.6666259765625]","[22,23.33331298828125,23.33331298828125,24,24,24,24.6666259765625,26,26.6666259765625,29.33331298828125,30,30,30,30,30,30,30,29.33331298828125,28.6666259765625,24.6666259765625,19.33331298828125,12,1.33331298828125,-10.66668701171875,-18.66668701171875,-23.3333740234375]","[0,0,0,0,0,0,0,0,0,0,0,0,0,0,0,0,0,0,0,0,0,0,0,0,0,0]","[0,0,0,0,0,0,0,0,0,0,0,0,0,0,0,0,0,0,0,0,0,0,0,0,0,0]","[0,0,0,0,0,0,0,0,0,0,0,0,0,0,0,0,0,0,0,0,0,0,0,0,0,0]","[0.00009999999776511004,0.016599999997765735,0.02509999999776369,0.05080000000074847,0.06700000000000017,0.07619999999925398,0.10059999999776892,0.11709999999776244,0.1255000000000024,0.1508999999985079,0.16739999999850852,0.18330000000074165,0.2001999999992563,0.2168999999985175,0.22530000000074324,0.24739999999850681,0.2670999999977681,0.284000000000006,0.2928000000007529,0.31749999999999545,0.3338999999985077,0.3504999999999967,0.3671999999992579,0.38409999999777256,0.4008000000007428,0.41669999999925267]",,2,0,2,0,1,,,,
,,123,2024-08-05_15h27.35.486,GoFitts,2022.2.4,Win32,60.24096386,,,,,,,,,,,,,,,,,,"[-68.76644452187054,-49.96174644486021]","[56.87610154050295,63.16731016557851]",77.8,170,2,"[-42.6666259765625,-46.6666259765625,-50.6666259765625,-51.333251953125,-51.333251953125,-51.333251953125,-51.333251953125,-51.333251953125,-51.333251953125,-51.333251953125,-51.333251953125,-51.333251953125,-51.333251953125,-51.333251953125,-51.333251953125,-41.333251953125,-32.6666259765625,-22.6666259765625,-11.333251953125,-2.6666259765625,5.3333740234375,9.3333740234375,24,29.3333740234375]","[-23.3333740234375,-27.3333740234375,-32,-34.66668701171875,-36,-38,-38,-40,-40,-41.3333740234375,-41.3333740234375,-41.3333740234375,-42,-42,-42,-36.66668701171875,-31.3333740234375,-25.3333740234375,-17.3333740234375,-8.66668701171875,4.6666259765625,11.33331298828125,33.33331298828125,40]","[0,0,0,0,0,0,0,0,0,0,0,0,0,0,0,0,0,0,0,0,0,0,0,0]","[0,0,0,0,0,0,0,0,0,0,0,0,0,0,0,0,0,0,0,0,0,0,0,0]","[0,0,0,0,0,0,0,0,0,0,0,0,0,0,0,0,0,0,0,0,0,0,0,0]","[0.0004000000022443828,0.016800000000756654,0.0336999999992571,0.05030000000074608,0.06700000000000728,0.08390000000224518,0.10000000000000853,0.11700000000000443,0.13310000000149103,0.14219999999926358,0.16660000000149466,0.17500000000001137,0.2009000000022354,0.21660000000149182,0.22510000000148978,0.2508000000007513,0.2670000000000101,0.2836999999992571,0.30040000000224154,0.31719999999926074,0.3338000000007497,0.3426999999992546,0.3671999999992579,0.3766999999992606]",,3,0,3,0,1,,,,
,,123,2024-08-05_15h27.35.486,GoFitts,2022.2.4,Win32,60.24096386,,,,,,,,,,,,,,,,,,"[56.87610154050295,63.16731016557851]","[-42.500000000000036,-73.61215932167727]",77.8,170,2,"[29.3333740234375,42.666748046875,50,54,58,60,60.666748046875,61.3333740234375,61.3333740234375,61.3333740234375,61.3333740234375,61.3333740234375,61.3333740234375,61.3333740234375,61.3333740234375,61.3333740234375,54.666748046875,46.666748046875,35.3333740234375,21.3333740234375,9.3333740234375,-2.6666259765625,-13.333251953125,-20,-22,-24]","[40,52,61.33331298828125,65.33331298828125,68,70,71.33331298828125,72,72,72,72,72,72,72,72,72,66,56.6666259765625,42,25.33331298828125,7.33331298828125,-10,-24,-34.66668701171875,-38.66668701171875,-44.66668701171875]","[0,0,0,0,0,0,0,0,0,0,0,0,0,0,0,0,0,0,0,0,0,0,0,0,0,0]","[0,0,0,0,0,0,0,0,0,0,0,0,0,0,0,0,0,0,0,0,0,0,0,0,0,0]","[0,0,0,0,0,0,0,0,0,0,0,0,0,0,0,0,0,0,0,0,0,0,0,0,0,0]","[0.0005000000000023874,0.02360000000147977,0.03990000000223404,0.05670000000297648,0.07340000000223768,0.09000000000000341,0.10670000000297364,0.12380000000074176,0.14010000000148182,0.15510000000148239,0.1708000000007388,0.17920000000297875,0.20080000000073994,0.21120000000297523,0.23850000000000193,0.24710000000148113,0.27380000000074745,0.2884999999999991,0.30690000000222994,0.32170000000297705,0.34010000000148466,0.3566000000014924,0.37349999999999284,0.3902000000029773,0.3989000000022287,0.41199999999999193]",,4,0,4,0,1,,,,
,,123,2024-08-05_15h27.35.486,GoFitts,2022.2.4,Win32,60.24096386,,,,,,,,,,,,,,,,,,"[-42.500000000000036,-73.61215932167727]","[26.266444521870532,80.83980388508805]",77.8,170,2,"[-24,-28.6666259765625,-30.6666259765625,-32.6666259765625,-33.333251953125,-33.333251953125,-33.333251953125,-33.333251953125,-33.333251953125,-33.333251953125,-33.333251953125,-32.6666259765625,-32.6666259765625,-32,-27.333251953125,-22,-16.6666259765625,-12,-8,-5.333251953125,-0.6666259765625,4,9.3333740234375,13.3333740234375,15.3333740234375]","[-44.66668701171875,-52.66668701171875,-58.66668701171875,-64,-67.3333740234375,-69.3333740234375,-70.66668701171875,-71.3333740234375,-72,-72,-72,-73.3333740234375,-73.3333740234375,-73.3333740234375,-70,-63.3333740234375,-56,-46.66668701171875,-34,-18.66668701171875,-2.66668701171875,15.33331298828125,31.33331298828125,41.33331298828125,50.6666259765625]","[0,0,0,0,0,0,0,0,0,0,0,0,0,0,0,0,0,0,0,0,0,0,0,0,0]","[0,0,0,0,0,0,0,0,0,0,0,0,0,0,0,0,0,0,0,0,0,0,0,0,0]","[0,0,0,0,0,0,0,0,0,0,0,0,0,0,0,0,0,0,0,0,0,0,0,0,0]","[0.0005000000000023874,0.028000000000005798,0.04460000000149478,0.06140000000223722,0.07810000000149842,0.09460000000149194,0.1115000000000066,0.12810000000149557,0.14490000000223802,0.16120000000297807,0.17010000000149716,0.1944000000022328,0.21080000000074506,0.21949999999999648,0.24450000000000216,0.2609999999999957,0.2779000000022336,0.2944000000022413,0.3111000000014883,0.32800000000000296,0.3448000000007454,0.3618000000007413,0.37160000000149296,0.394900000002238,0.4116000000014992]",,5,0,5,0,1,,,,
,,123,2024-08-05_15h27.35.486,GoFitts,2022.2.4,Win32,60.24096386,,,,,,,,,,,,,,,,,,"[26.266444521870532,80.83980388508805]","[-8.88491937775061,-84.53436110630322]",77.8,170,2,"[15.3333740234375,18,20.666748046875,24.666748046875,28,30.666748046875,31.3333740234375,31.3333740234375,31.3333740234375,31.3333740234375,31.3333740234375,31.3333740234375,31.3333740234375,30,27.3333740234375,25.3333740234375,24,24,24,24,24,23.3333740234375]","[50.6666259765625,55.33331298828125,59.33331298828125,62.6666259765625,67.33331298828125,70,74,74.6666259765625,74.6666259765625,74.6666259765625,74.6666259765625,74.6666259765625,74.6666259765625,72,63.33331298828125,52,38.6666259765625,30.6666259765625,0,-24,-45.3333740234375,-65.3333740234375]","[0,0,0,0,0,0,0,0,0,0,0,0,0,0,0,0,0,0,0,0,0,0]","[0,0,0,0,0,0,0,0,0,0,0,0,0,0,0,0,0,0,0,0,0,0]","[0,0,0,0,0,0,0,0,0,0,0,0,0,0,0,0,0,0,0,0,0,0]","[0.0007000000029790954,0.016300000000740056,0.03280000000074779,0.0492000000029833,0.06630000000073721,0.08290000000222619,0.09949999999999193,0.11630000000073437,0.13249999999999318,0.1490000000000009,0.16570000000297114,0.1826000000014858,0.19160000000148614,0.21640000000223836,0.23310000000148534,0.24970000000297432,0.2664999999999935,0.2761000000014917,0.29999999999999716,0.3162000000029792,0.33280000000074494,0.34970000000298285]",,6,0,6,0,1,,,,
,,123,2024-08-05_15h27.35.486,GoFitts,2022.2.4,Win32,60.24096386,,,,,,,,,,,,,,,,,,"[-8.88491937775061,-84.53436110630322]","[-8.884919377750533,84.53436110630324]",77.8,170,2,"[23.3333740234375,22,22,21.3333740234375,21.3333740234375,21.3333740234375,21.3333740234375,21.3333740234375,21.3333740234375,21.3333740234375,21.3333740234375,21.3333740234375,21.3333740234375,21.3333740234375,21.3333740234375,21.3333740234375,22.666748046875,24,24,23.3333740234375,21.3333740234375,19.3333740234375,17.3333740234375,15.3333740234375]","[-65.3333740234375,-82.66668701171875,-89.3333740234375,-100.66668701171875,-103.3333740234375,-104,-105.3333740234375,-106,-106,-106,-106,-106,-106,-106,-103.3333740234375,-90.66668701171875,-66.66668701171875,-46.66668701171875,-25.3333740234375,-5.3333740234375,14,32.6666259765625,50,62.6666259765625]","[0,0,0,0,0,0,0,0,0,0,0,0,0,0,0,0,0,0,0,0,0,0,0,0]","[0,0,0,0,0,0,0,0,0,0,0,0,0,0,0,0,0,0,0,0,0,0,0,0]","[0,0,0,0,0,0,0,0,0,0,0,0,0,0,0,0,0,0,0,0,0,0,0,0]","[0.0005000000000023874,0.015899999998509884,0.024500000000003297,0.04919999999926006,0.06500000000001194,0.08129999999702875,0.09850000000000136,0.11519999999926256,0.13189999999850954,0.14019999999925403,0.1656999999992621,0.17439999999851352,0.1958999999985167,0.21039999999851489,0.22029999999702454,0.24950000000001182,0.2658999999985099,0.28249999999999886,0.2992999999970323,0.3162999999970282,0.33209999999776585,0.3488999999985083,0.36529999999702056,0.3817999999970283]",,7,0,7,0,1,,,,
,,123,2024-08-05_15h27.35.486,GoFitts,2022.2.4,Win32,60.24096386,,,,,,,,,,,,,,,,,,"[-8.884919377750533,84.53436110630324]","[26.266444521870515,-80.83980388508806]",77.8,170,2,"[15.3333740234375,12.666748046875,10,8.666748046875,8,7.3333740234375,7.3333740234375,6.666748046875,6.666748046875,6.666748046875,6.666748046875,6.666748046875,6.666748046875,6.666748046875,3.3333740234375,2.666748046875,3.3333740234375,6.666748046875,12,16,21.3333740234375,28,37.3333740234375,50.666748046875,66,78.666748046875,80.666748046875,81.3333740234375,81.3333740234375,79.3333740234375,78.666748046875,77.3333740234375,77.3333740234375,77.3333740234375,77.3333740234375,76.666748046875,76,74,73.3333740234375,64]","[62.6666259765625,72.6666259765625,80.6666259765625,85.33331298828125,86.6666259765625,89.33331298828125,91.33331298828125,92.6666259765625,93.33331298828125,93.33331298828125,93.33331298828125,93.33331298828125,93.33331298828125,93.33331298828125,89.33331298828125,87.33331298828125,78.6666259765625,72.6666259765625,63.33331298828125,53.33331298828125,38,22,1.33331298828125,-30,-60.66668701171875,-83.3333740234375,-92,-98.66668701171875,-100.66668701171875,-105.3333740234375,-106.66668701171875,-107.3333740234375,-108,-108,-108,-108,-102.66668701171875,-98,-94,-77.3333740234375]","[0,0,0,0,0,0,0,0,0,0,0,0,0,0,0,0,0,0,0,0,0,0,0,0,0,0,0,0,0,0,0,0,0,0,0,0,0,0,0,0]","[0,0,0,0,0,0,0,0,0,0,0,0,0,0,0,0,0,0,0,0,0,0,0,0,0,0,0,0,0,0,0,0,0,0,0,0,0,0,0,0]","[0,0,0,0,0,0,0,0,0,0,0,0,0,0,0,0,0,0,0,0,0,0,0,0,0,0,0,0,0,0,0,0,0,0,0,0,0,0,0,0]","[0.0002999999970256795,0.016699999999261195,0.0336999999992571,0.050399999998504086,0.0589999999999975,0.08419999999925665,0.10089999999850363,0.1171999999992579,0.13400000000000034,0.15029999999701715,0.1670999999977596,0.1834999999999951,0.19189999999851182,0.2050999999977705,0.23209999999777153,0.24049999999999727,0.2669999999999959,0.28350000000000364,0.29999999999999716,0.31669999999925835,0.3335000000000008,0.3499999999999943,0.36659999999776005,0.38319999999924903,0.4003999999985126,0.41719999999925506,0.4265000000000043,0.4506999999992587,0.4598999999985125,0.48379999999701795,0.5003999999985069,0.5171999999992494,0.534000000000006,0.5502999999970228,0.5670000000000073,0.5758999999985122,0.6004999999999967,0.6171999999992579,0.6265999999977652,0.6507999999970195]",,8,0,8,0,1,,,,
,,123,2024-08-05_15h27.35.486,GoFitts,2022.2.4,Win32,60.24096386,,,,,,,,,,,,,,,,,,"[26.266444521870515,-80.83980388508806]","[-42.49999999999998,73.6121593216773]",77.8,170,2,"[64,58.666748046875,56.666748046875,54.666748046875,53.3333740234375,50.666748046875,47.3333740234375,44,42.666748046875,41.3333740234375,40.666748046875,40.666748046875,38.666748046875,38.666748046875,38.666748046875,38.666748046875,38.666748046875,38.666748046875,37.3333740234375,32,25.3333740234375,18.666748046875,12,4,-8.6666259765625,-30]","[-77.3333740234375,-64,-60.66668701171875,-56.66668701171875,-56,-55.3333740234375,-55.3333740234375,-55.3333740234375,-55.3333740234375,-56,-56.66668701171875,-56.66668701171875,-58,-58,-58,-58,-56.66668701171875,-55.3333740234375,-44.66668701171875,-32,-18.66668701171875,-4.66668701171875,6,18,33.33331298828125,54.6666259765625]","[0,0,0,0,0,0,0,0,0,0,0,0,0,0,0,0,0,0,0,0,0,0,0,0,0,0]","[0,0,0,0,0,0,0,0,0,0,0,0,0,0,0,0,0,0,0,0,0,0,0,0,0,0]","[0,0,0,0,0,0,0,0,0,0,0,0,0,0,0,0,0,0,0,0,0,0,0,0,0,0]","[0.000600000001483636,0.014999999999986358,0.031999999999996476,0.04910000000148784,0.06610000000148375,0.08269999999924948,0.09949999999999193,0.11599999999999966,0.13249999999999318,0.14939999999850784,0.16599999999999682,0.1748999999985017,0.19919999999925153,0.21519999999924266,0.2236000000014826,0.24889999999849977,0.2653000000007353,0.27410000000148216,0.2993999999984993,0.3154999999999859,0.33239999999850056,0.3496000000014803,0.366199999999246,0.382899999998493,0.3924999999999912,0.4161999999992432]",,9,0,9,0,1,,,,
,,123,2024-08-05_15h27.35.486,GoFitts,2022.2.4,Win32,60.24096386,,,,,,,,,,,,,,,,,,"[-42.49999999999998,73.6121593216773]","[56.87610154050297,-63.16731016557849]",77.8,170,2,"[-30,-40.6666259765625,-46,-46,-46,-46,-46,-46,-46,-46,-46,-46,-46,-39.333251953125,-29.333251953125,-16.6666259765625,-1.333251953125,13.3333740234375,26.666748046875,36.666748046875]","[54.6666259765625,62,66,67.33331298828125,67.33331298828125,67.33331298828125,67.33331298828125,67.33331298828125,67.33331298828125,67.33331298828125,67.33331298828125,67.33331298828125,66.6666259765625,55.33331298828125,46,33.33331298828125,16.6666259765625,0.6666259765625,-20.66668701171875,-38.66668701171875]","[0,0,0,0,0,0,0,0,0,0,0,0,0,0,0,0,0,0,0,0]","[0,0,0,0,0,0,0,0,0,0,0,0,0,0,0,0,0,0,0,0]","[0,0,0,0,0,0,0,0,0,0,0,0,0,0,0,0,0,0,0,0]","[0.0005000000000023874,0.01850000000000307,0.03259999999777108,0.04950000000000898,0.06559999999777233,0.07469999999925392,0.08729999999702898,0.1150999999977671,0.12319999999925813,0.1454999999999984,0.1648999999985108,0.1788999999985066,0.1958999999985167,0.21519999999925687,0.232299999997025,0.2486999999992605,0.26550000000000296,0.2802999999970268,0.2990999999977646,0.31369999999925824]",,10,0,10,0,1,,,,
