指定代號,date,expName,psychopyVersion,OS,frameRate,retry_testing.thisRepN,retry_testing.thisTrialN,retry_testing.thisN,retry_testing.thisIndex,retry_testing.ran,from,to,w,a,id,sequence_loop.thisN,enter_time,leave_time,mouse.x,mouse.y,mouse.leftButton,mouse.midButton,mouse.rightButton,mouse.time,trial_loop.thisRepN,trial_loop.thisTrialN,trial_loop.thisN,trial_loop.thisIndex,trial_loop.ran,sequence_loop.thisRepN,sequence_loop.thisTrialN,sequence_loop.thisIndex,sequence_loop.ran
1QaZ-4,2025-06-18_15h06.59.790,GoFitts,2023.2.3,Win32,60.24096386,,,,,,,,,,,,,,,,,,,,,,,,,,,,
1QaZ-4,2025-06-18_15h06.59.790,GoFitts,2023.2.3,Win32,60.24096386,0,0,0,0,1,,,,,,,,,,,,,,,,,,,,,,,
1QaZ-4,2025-06-18_15h06.59.790,GoFitts,2023.2.3,Win32,60.24096386,,,,,,,,,,,,,,,,,,,,,,,,,,,,
1QaZ-4,2025-06-18_15h06.59.790,GoFitts,2023.2.3,Win32,60.24096386,,,,,,"[193,-204]","[289.50641384728766,128.89656002561685]",24,633.8084469,5.75,0,0.9449,0.7487,"[193,193,193,193,193,193,193,193,193,193,193,193,193,193,193,193,193,193,193,193,193,193,193,193,193,193,193,207,229,235,243,255,265,269,270,271,271,271,271,271,271,271,279,297,297,306,310,310,310,310,310,310,309,306,304,298,293,289,286,286,285,285,285,285,285,285,285,285,285,285,285,285,285,285,285,285,285,285,285,285,285,285,285,285,285,285,285,285,285,285,285,285,285,285,285,285,283,270,214,214]","[-204,-204,-204,-204,-204,-204,-204,-204,-204,-204,-204,-204,-204,-204,-204,-204,-204,-204,-204,-204,-204,-204,-204,-204,-204,-204,-204,-170,-79,-55,-7,54,108,124,126,127,127,127,127,127,127,127,128,134,134,138,139,139,139,139,139,139,139,139,139,139,137,135,133,133,133,133,133,133,133,133,133,133,133,133,133,133,133,133,133,133,133,133,133,133,133,133,133,133,133,133,133,133,133,133,133,133,133,133,133,133,131,124,91,91]","[0,0,0,0,0,0,0,0,0,0,0,0,0,0,0,0,0,0,0,0,0,0,0,0,0,0,0,0,0,0,0,0,0,0,0,0,0,0,0,0,0,0,0,0,0,0,0,0,0,0,0,0,0,0,0,0,0,0,0,0,0,0,0,0,0,0,0,0,0,0,0,0,0,0,0,0,0,0,0,0,0,0,0,0,0,0,0,0,0,0,0,0,0,0,0,0,0,0,0,0]","[0,0,0,0,0,0,0,0,0,0,0,0,0,0,0,0,0,0,0,0,0,0,0,0,0,0,0,0,0,0,0,0,0,0,0,0,0,0,0,0,0,0,0,0,0,0,0,0,0,0,0,0,0,0,0,0,0,0,0,0,0,0,0,0,0,0,0,0,0,0,0,0,0,0,0,0,0,0,0,0,0,0,0,0,0,0,0,0,0,0,0,0,0,0,0,0,0,0,0,0]","[0,0,0,0,0,0,0,0,0,0,0,0,0,0,0,0,0,0,0,0,0,0,0,0,0,0,0,0,0,0,0,0,0,0,0,0,0,0,0,0,0,0,0,0,0,0,0,0,0,0,0,0,0,0,0,0,0,0,0,0,0,0,0,0,0,0,0,0,0,0,0,0,0,0,0,0,0,0,0,0,0,0,0,0,0,0,0,0,0,0,0,0,0,0,0,0,0,0,0,0]","[0.00010000002382071216,0.028899999976147228,0.03369999998807316,0.048300000011920474,0.06519999998806725,0.08139999997615632,0.09819999998808271,0.11489999997615996,0.13139999997613927,0.14819999998806566,0.18430000001191615,0.19549999999998136,0.21169999998807043,0.21649999999999636,0.23169999998808066,0.24849999999997863,0.2648999999761372,0.28139999997614495,0.29819999998807134,0.3149999999999977,0.33149999999997704,0.34839999997615223,0.3649999999999807,0.3814999999999884,0.3983999999761352,0.4151000000238412,0.4316000000238205,0.44830000001189774,0.47819999998807816,0.48280000001190615,0.5116999999880818,0.5254999999999939,0.5451000000238366,0.5618000000119139,0.5784999999999911,0.5949999999999989,0.5996000000238269,0.614699999988062,0.6313999999761393,0.6483999999761352,0.6648000000119225,0.6814999999999998,0.6986999999880652,0.7283999999761477,0.7328000000119061,0.7488000000119257,0.7783000000119102,0.7828000000119175,0.7981000000238225,0.8151000000238184,0.8318000000119241,0.8483999999761522,0.8649999999999807,0.8948000000119123,0.8993000000119196,0.9281999999880668,0.9449999999999932,0.9615000000000009,0.9783000000118989,0.982699999988057,0.99819999998806,1.0151999999880559,1.031499999999994,1.0483999999761409,1.0648999999761486,1.081499999999977,1.0983000000119034,1.1151000000238298,1.1314999999999884,1.1484999999999843,1.1651000000238412,1.1814999999999998,1.1981000000238282,1.2148000000119055,1.2316000000238319,1.248300000011909,1.2651000000238355,1.281499999999994,1.2983999999761409,1.3148000000118998,1.331499999999977,1.3483999999761522,1.3651999999880786,1.381699999988058,1.3983999999761352,1.414899999976143,1.4314999999999998,1.448199999988077,1.4651000000238241,1.4814999999999827,1.4984999999999786,1.5151000000238355,1.5316999999880636,1.5483999999761409,1.5653000000119164,1.581499999999977,1.5983000000119034,1.6149999999999807,1.644899999976161,1.6493000000119196]",0,0,0,0,1,,,,
1QaZ-4,2025-06-18_15h06.59.790,GoFitts,2023.2.3,Win32,60.24096386,,,,,,"[289.50641384728766,128.89656002561685]","[-256.38090236625385,-186.27162893747362]",24,633.8084469,5.75,0,0.8653,,"[214,92,48,48,11,-21,-88,-96,-96,-121,-129,-130,-137,-139,-146,-154,-173,-182,-190,-195,-207,-207,-222,-224,-225,-225,-225,-225,-225,-225,-226,-229,-244,-266,-281,-292,-293,-293,-293,-293,-293,-293,-293,-290,-281,-277,-272,-270,-270,-270,-270,-269,-264,-257,-257,-257,-257,-257,-257,-257,-257,-257,-256,-256,-256,-256,-256,-256,-256,-256,-256,-256,-256,-256,-256,-256,-256,-256,-256,-256,-256,-256,-256,-256,-256,-256,-256,-256,-256,-256,-256,-256,-256,-256,-256,-256,-256]","[91,23,-4,-4,-36,-62,-120,-125,-125,-141,-146,-147,-153,-153,-158,-164,-175,-179,-184,-187,-193,-193,-200,-200,-201,-201,-201,-201,-201,-201,-199,-193,-184,-178,-178,-178,-178,-178,-178,-178,-178,-178,-178,-178,-179,-181,-183,-184,-185,-185,-185,-185,-185,-185,-185,-185,-185,-185,-185,-185,-185,-185,-185,-185,-185,-185,-185,-185,-185,-185,-185,-185,-185,-185,-185,-185,-185,-185,-185,-185,-185,-185,-185,-185,-185,-185,-185,-185,-185,-185,-185,-185,-185,-185,-185,-185,-185]","[0,0,0,0,0,0,0,0,0,0,0,0,0,0,0,0,0,0,0,0,0,0,0,0,0,0,0,0,0,0,0,0,0,0,0,0,0,0,0,0,0,0,0,0,0,0,0,0,0,0,0,0,0,0,0,0,0,0,0,0,0,0,0,0,0,0,0,0,0,0,0,0,0,0,0,0,0,0,0,0,0,0,0,0,0,0,0,0,0,0,0,0,0,0,0,0,0]","[0,0,0,0,0,0,0,0,0,0,0,0,0,0,0,0,0,0,0,0,0,0,0,0,0,0,0,0,0,0,0,0,0,0,0,0,0,0,0,0,0,0,0,0,0,0,0,0,0,0,0,0,0,0,0,0,0,0,0,0,0,0,0,0,0,0,0,0,0,0,0,0,0,0,0,0,0,0,0,0,0,0,0,0,0,0,0,0,0,0,0,0,0,0,0,0,0]","[0,0,0,0,0,0,0,0,0,0,0,0,0,0,0,0,0,0,0,0,0,0,0,0,0,0,0,0,0,0,0,0,0,0,0,0,0,0,0,0,0,0,0,0,0,0,0,0,0,0,0,0,0,0,0,0,0,0,0,0,0,0,0,0,0,0,0,0,0,0,0,0,0,0,0,0,0,0,0,0,0,0,0,0,0,0,0,0,0,0,0,0,0,0,0,0,0]","[0,0.02860000002385732,0.045000000000015916,0.04940000003577438,0.06499999999999773,0.08180000001192411,0.11200000000002319,0.1290000000000191,0.14540000003577802,0.15000000000000568,0.178600000023863,0.18290000003577234,0.2120000000000175,0.2289000000357646,0.2423000000119373,0.24840000003578666,0.2785000000000082,0.29530000001193457,0.311900000035763,0.3288000000119382,0.3451999999880968,0.34940000003578575,0.3651999999880786,0.39510000002385937,0.4123000000119248,0.4170000000000016,0.43180000001191843,0.4484000000357753,0.46530000001192207,0.4818000000119298,0.49850000000000705,0.5151999999880843,0.545100000023865,0.5620000000000118,0.5783000000119216,0.5953000000119459,0.6134000000357673,0.6296000000238564,0.6358000000119262,0.6486000000238619,0.6651000000238412,0.6818000000119184,0.6986000000238448,0.7154000000357712,0.7426999999880763,0.7486000000238562,0.7654000000357826,0.7821000000238598,0.8124000000357796,0.8176000000238446,0.8319000000357732,0.8486000000238505,0.8653000000119278,0.8950000000000102,0.9121999999881041,0.9166000000238625,0.9316000000238489,0.9488000000119428,0.9654000000357712,0.9816000000238603,0.9983000000119375,1.0150000000000148,1.0320000000000107,1.0486000000238391,1.0653000000119448,1.0816999999881034,1.098400000035781,1.1151999999880786,1.1318000000119355,1.1488000000119314,1.1653000000119391,1.1818000000119184,1.1986999999880936,1.2151000000238525,1.231900000035779,1.2488000000119257,1.265100000023864,1.281699999988092,1.298699999988088,1.3151999999880957,1.3316999999881034,1.3485000000000014,1.3651000000238582,1.382000000000005,1.3986999999880823,1.4151000000238412,1.4318000000119184,1.4488000000119428,1.4650000000000034,1.4819999999999993,1.4988000000119257,1.5151999999880843,1.531699999988092,1.5484000000357696,1.5649000000357773,1.5816999999881034,1.598400000035781]",1,0,1,0,1,,,,
1QaZ-4,2025-06-18_15h06.59.790,GoFitts,2023.2.3,Win32,60.24096386,,,,,,"[-256.38090236625385,-186.27162893747362]","[212.05031519975083,235.50573383431828]",24,633.8084469,5.75,0,0.4834,0.0665,"[-256,-256,-256,-256,-246,-215,-215,-186,-96,-58,-23,60,110,124,134,155,161,172,174,187,199,203,206,206,206,206,206,206,206,206,206,206,207,207,207,207,207,207,207,207,207,207,207,207,207,207,207,207,207,207,207,207,207,207,207,207,207,207,207,207,207,207,207,207,207,207,207,207,207,207,207,207,207]","[-185,-185,-185,-185,-170,-135,-135,-106,-17,27,64,141,178,186,196,211,216,225,227,237,248,251,254,254,254,254,254,254,254,243,232,232,232,232,232,232,232,232,232,232,232,232,232,232,232,232,232,232,232,232,232,232,232,232,232,232,232,232,232,232,232,232,232,232,232,232,232,232,232,232,232,232,232]","[0,0,0,0,0,0,0,0,0,0,0,0,0,0,0,0,0,0,0,0,0,0,0,0,0,0,0,0,0,0,0,0,0,0,0,0,0,0,0,0,0,0,0,0,0,0,0,0,0,0,0,0,0,0,0,0,0,0,0,0,0,0,0,0,0,0,0,0,0,0,0,0,0]","[0,0,0,0,0,0,0,0,0,0,0,0,0,0,0,0,0,0,0,0,0,0,0,0,0,0,0,0,0,0,0,0,0,0,0,0,0,0,0,0,0,0,0,0,0,0,0,0,0,0,0,0,0,0,0,0,0,0,0,0,0,0,0,0,0,0,0,0,0,0,0,0,0]","[0,0,0,0,0,0,0,0,0,0,0,0,0,0,0,0,0,0,0,0,0,0,0,0,0,0,0,0,0,0,0,0,0,0,0,0,0,0,0,0,0,0,0,0,0,0,0,0,0,0,0,0,0,0,0,0,0,0,0,0,0,0,0,0,0,0,0,0,0,0,0,0,0]","[0,0.030000000000001137,0.034699999988077934,0.04969999998809271,0.0665000000000191,0.09719999998807793,0.10310000002385777,0.1168000000119207,0.1441999999881034,0.15010000002385482,0.16680000001193207,0.194500000000005,0.21410000002384777,0.22980000001192025,0.24660000002384663,0.26400000000001,0.2698000000119407,0.297199999988095,0.3031999999880952,0.31680000001193775,0.3333999999761659,0.3498999999761736,0.3800000000000239,0.3848000000119214,0.39989999997615655,0.4163999999761643,0.43310000002384186,0.4496999999880984,0.46630000001192684,0.48339999997617156,0.5131000000238544,0.517699999988082,0.5331000000238646,0.5496999999880927,0.5665000000000191,0.5829999999999984,0.5998000000119248,0.616500000000002,0.6331000000238589,0.649699999988087,0.6665000000000134,0.6830000000000211,0.6996999999880984,0.7163000000119268,0.7330000000000041,0.75,0.7666000000238569,0.7830000000000155,0.7998000000119418,0.8165000000000191,0.8331000000238475,0.8498999999761736,0.8663999999761813,0.8831000000238589,0.8998999999761566,0.9163999999761643,0.9331000000238419,0.9496999999880984,0.9665000000000248,0.9828999999761834,0.9996999999880813,1.0165000000000077,1.0330000000000155,1.0498999999761622,1.0666000000238398,1.0831000000238475,1.1000000000000227,1.1166000000238512,1.1330000000000098,1.1498999999761566,1.1666000000238625,1.1830000000000211,1.199800000011919]",2,0,2,0,1,,,,
1QaZ-4,2025-06-18_15h06.59.790,GoFitts,2023.2.3,Win32,60.24096386,,,,,,"[212.05031519975083,235.50573383431828]","[-158.45211172871333,-274.4471080807116]",24,633.8084469,5.75,0,0.6463,0.1828,"[207,207,207,207,207,207,207,207,207,207,207,203,147,147,110,24,11,-15,-20,-55,-88,-116,-137,-145,-149,-150,-151,-152,-152,-152,-152,-153,-154,-156,-157,-157,-157,-158,-158,-158,-158,-157,-157,-157,-157,-157,-157,-157,-157,-157,-157,-157,-157,-157,-157,-157,-157,-157,-157,-157,-157,-157,-157,-157,-157,-157,-157,-157,-157,-157,-157,-157,-157,-157,-157,-157,-157,-157,-157,-154,-125,-116]","[232,232,232,232,232,232,232,232,232,232,232,224,144,144,83,-57,-80,-123,-132,-182,-224,-254,-278,-287,-290,-292,-293,-293,-293,-293,-293,-293,-293,-293,-293,-293,-293,-293,-282,-277,-273,-271,-271,-271,-271,-271,-271,-271,-271,-271,-271,-271,-271,-271,-271,-271,-271,-271,-271,-271,-271,-271,-271,-271,-271,-271,-271,-271,-271,-271,-271,-271,-271,-271,-271,-271,-271,-271,-271,-261,-164,-124]","[0,0,0,0,0,0,0,0,0,0,0,0,0,0,0,0,0,0,0,0,0,0,0,0,0,0,0,0,0,0,0,0,0,0,0,0,0,0,0,0,0,0,0,0,0,0,0,0,0,0,0,0,0,0,0,0,0,0,0,0,0,0,0,0,0,0,0,0,0,0,0,0,0,0,0,0,0,0,0,0,0,0]","[0,0,0,0,0,0,0,0,0,0,0,0,0,0,0,0,0,0,0,0,0,0,0,0,0,0,0,0,0,0,0,0,0,0,0,0,0,0,0,0,0,0,0,0,0,0,0,0,0,0,0,0,0,0,0,0,0,0,0,0,0,0,0,0,0,0,0,0,0,0,0,0,0,0,0,0,0,0,0,0,0,0]","[0,0,0,0,0,0,0,0,0,0,0,0,0,0,0,0,0,0,0,0,0,0,0,0,0,0,0,0,0,0,0,0,0,0,0,0,0,0,0,0,0,0,0,0,0,0,0,0,0,0,0,0,0,0,0,0,0,0,0,0,0,0,0,0,0,0,0,0,0,0,0,0,0,0,0,0,0,0,0,0,0,0]","[0,0.02950000000001296,0.03419999998808976,0.049199999988076115,0.0660000000000025,0.08250000000001023,0.099399999976157,0.11580000001191593,0.13269999998809112,0.14919999998809885,0.16630000001191547,0.1828000000119232,0.21260000002385482,0.21719999998808248,0.23260000002383663,0.26260000002383777,0.2675000000000125,0.2961000000238414,0.300899999976167,0.3294999999999959,0.34619999998807316,0.36280000001193,0.3795000000000073,0.396000000000015,0.4128000000119414,0.4176999999880877,0.43269999998807407,0.44930000001193093,0.46589999997615905,0.48280000001193457,0.4993000000119139,0.5160000000000196,0.5328000000119175,0.5493000000119252,0.5798999999761634,0.5961000000238528,0.6008999999761784,0.6163000000119325,0.6463000000119337,0.6628000000119414,0.6795000000000186,0.6961000000238471,0.7008999999761727,0.715899999976159,0.7326999999880854,0.7495000000000118,0.7658999999761704,0.782600000023848,0.7993999999761741,0.8160000000000025,0.8323999999761611,0.849399999976157,0.8661000000238346,0.8823999999761725,0.89910000002385,0.9156999999880782,0.9331000000238419,0.9491999999880818,0.9658000000119387,0.9823999999761668,0.9993000000119139,1.0160000000000196,1.0326999999880968,1.049399999976174,1.0660000000000025,1.0826000000238594,1.099399999976157,1.1161000000238346,1.1324999999999932,1.1491999999880989,1.1658000000119273,1.1825000000000045,1.1991999999880818,1.2160000000000082,1.2323999999761668,1.2491000000238444,1.2661000000238403,1.2824999999999989,1.2991000000238557,1.316199999988072,1.3461000000238528,1.350999999999999]",3,0,3,0,1,,,,
1QaZ-4,2025-06-18_15h06.59.790,GoFitts,2023.2.3,Win32,60.24096386,,,,,,"[-158.45211172871333,-274.4471080807116]","[97.92879063754062,301.3938267606408]",24,633.8084469,5.75,0,0.4645,,"[-116,-72,-34,-17,-17,35,57,70,76,82,87,92,94,95,95,95,95,95,95,95,95,95,96,99,100,103,104,104,104,101,100,100,100,100,100,100,100,100,100,100,100,100,100,100,100,100,100,100,100,100,100,100,100,100,100,99,99,99,99,99,99,99,99,99,99,99,99,99,99,99,99,99]","[-124,-9,75,112,112,208,250,279,289,302,310,318,321,323,323,323,323,323,323,323,323,323,323,323,323,322,320,315,307,296,294,292,292,292,292,292,292,292,292,292,292,292,292,292,292,292,292,292,292,292,292,292,292,292,295,296,296,296,296,296,296,296,296,296,296,296,296,296,296,296,296,296]","[0,0,0,0,0,0,0,0,0,0,0,0,0,0,0,0,0,0,0,0,0,0,0,0,0,0,0,0,0,0,0,0,0,0,0,0,0,0,0,0,0,0,0,0,0,0,0,0,0,0,0,0,0,0,0,0,0,0,0,0,0,0,0,0,0,0,0,0,0,0,0,0]","[0,0,0,0,0,0,0,0,0,0,0,0,0,0,0,0,0,0,0,0,0,0,0,0,0,0,0,0,0,0,0,0,0,0,0,0,0,0,0,0,0,0,0,0,0,0,0,0,0,0,0,0,0,0,0,0,0,0,0,0,0,0,0,0,0,0,0,0,0,0,0,0]","[0,0,0,0,0,0,0,0,0,0,0,0,0,0,0,0,0,0,0,0,0,0,0,0,0,0,0,0,0,0,0,0,0,0,0,0,0,0,0,0,0,0,0,0,0,0,0,0,0,0,0,0,0,0,0,0,0,0,0,0,0,0,0,0,0,0,0,0,0,0,0,0]","[0,0.027800000011922066,0.04449999999999932,0.06119999998807657,0.06589999997615337,0.08110000002383799,0.09780000001191524,0.1144999999999925,0.13110000002382094,0.16110000002382208,0.17780000001189933,0.19439999997615587,0.21019999998807748,0.2278000000119107,0.24439999997613882,0.24899999999999523,0.2646000000238189,0.2809999999999775,0.2978999999761527,0.31449999999998113,0.33099999999998886,0.3476000000238457,0.36439999997614336,0.3810000000000002,0.3976999999880775,0.4143000000119059,0.4309999999999832,0.44760000002384004,0.4644999999999868,0.49469999998805747,0.49910000002384436,0.514399999976149,0.5446999999880688,0.5496999999880643,0.5643999999761604,0.5811999999880584,0.5978000000119152,0.614300000011923,0.6310000000000002,0.6476000000238287,0.6643999999761547,0.6809999999999832,0.6978999999761584,0.7143000000119173,0.7309999999999945,0.7478000000119209,0.764399999976149,0.7808999999761568,0.7976999999880832,0.8143000000119116,0.831100000023838,0.8478999999761356,0.8646000000238416,0.8808999999761511,0.8976000000238287,0.9248000000119134,0.9308999999761625,0.94760000002384,0.9644999999999868,0.9809999999999945,0.9978999999761413,1.0269999999999868,1.031399999976145,1.0476999999880832,1.0643999999761604,1.0809999999999889,1.0978999999761356,1.114300000011923,1.1311999999880697,1.1478000000118982,1.164300000011906,1.1811000000238323]",4,0,4,0,1,,,,
1QaZ-4,2025-06-18_15h06.59.790,GoFitts,2023.2.3,Win32,60.24096386,,,,,,"[97.92879063754062,301.3938267606408]","[-33.12551148103408,-315.1681889630905]",24,633.8084469,5.75,0,0.9629,0.1497,"[99,99,99,99,99,99,99,99,99,97,93,93,83,61,61,53,37,36,32,27,25,25,21,19,11,8,7,7,7,7,3,-9,-14,-25,-27,-28,-28,-28,-30,-36,-39,-44,-45,-45,-45,-45,-45,-45,-44,-44,-44,-44,-44,-44,-44,-44,-43,-35,-35,-35,-34,-34,-34,-34,-34,-34,-34,-34,-34,-34,-34,-34,-34,-34,-34,-34,-34,-34,-34,-34,-34,-34,-34,-34,-34,-34,-34,-34,-34,-34,-34,-34,-34,-34,-34,-34,-27,-27,-27,-27,-25,-21]","[296,296,296,296,296,296,296,296,296,289,269,269,231,111,111,57,-78,-109,-158,-188,-204,-204,-226,-236,-256,-260,-261,-261,-261,-261,-263,-269,-272,-287,-290,-293,-293,-298,-304,-319,-324,-330,-332,-332,-332,-332,-332,-332,-332,-332,-332,-332,-332,-332,-332,-332,-331,-318,-316,-315,-315,-315,-315,-315,-315,-315,-315,-315,-315,-315,-315,-315,-315,-315,-315,-315,-315,-315,-315,-315,-315,-315,-315,-315,-315,-315,-315,-315,-315,-315,-315,-315,-315,-315,-315,-310,-264,-211,-146,-92,-45,67]","[0,0,0,0,0,0,0,0,0,0,0,0,0,0,0,0,0,0,0,0,0,0,0,0,0,0,0,0,0,0,0,0,0,0,0,0,0,0,0,0,0,0,0,0,0,0,0,0,0,0,0,0,0,0,0,0,0,0,0,0,0,0,0,0,0,0,0,0,0,0,0,0,0,0,0,0,0,0,0,0,0,0,0,0,0,0,0,0,0,0,0,0,0,0,0,0,0,0,0,0,0,0]","[0,0,0,0,0,0,0,0,0,0,0,0,0,0,0,0,0,0,0,0,0,0,0,0,0,0,0,0,0,0,0,0,0,0,0,0,0,0,0,0,0,0,0,0,0,0,0,0,0,0,0,0,0,0,0,0,0,0,0,0,0,0,0,0,0,0,0,0,0,0,0,0,0,0,0,0,0,0,0,0,0,0,0,0,0,0,0,0,0,0,0,0,0,0,0,0,0,0,0,0,0,0]","[0,0,0,0,0,0,0,0,0,0,0,0,0,0,0,0,0,0,0,0,0,0,0,0,0,0,0,0,0,0,0,0,0,0,0,0,0,0,0,0,0,0,0,0,0,0,0,0,0,0,0,0,0,0,0,0,0,0,0,0,0,0,0,0,0,0,0,0,0,0,0,0,0,0,0,0,0,0,0,0,0,0,0,0,0,0,0,0,0,0,0,0,0,0,0,0,0,0,0,0,0,0]","[0,0.029800000011903194,0.034600000023829125,0.04930000001192525,0.06639999997614154,0.08310000002381912,0.09969999998807566,0.11650000000000205,0.1331999999880793,0.1496999999880586,0.1793999999761411,0.18360000002383003,0.19950000000000045,0.2296000000238223,0.2336999999880618,0.2494999999999834,0.2796999999880825,0.28419999998806134,0.31289999997613904,0.32969999998806543,0.34610000002382435,0.3504999999999825,0.3661999999880834,0.38299999999998136,0.41319999998808044,0.4294999999999902,0.4463000000119166,0.4628999999761447,0.4673000000119032,0.48280000001190615,0.49960000002383254,0.5266999999880682,0.5328000000119175,0.562899999976139,0.5794999999999959,0.5961999999880732,0.6003999999761618,0.6298000000119259,0.6466000000238239,0.6629999999999825,0.6673999999761406,0.6831000000238419,0.713100000023843,0.7295000000000016,0.7338999999761597,0.7494999999999834,0.7663999999761586,0.7826999999880684,0.7996000000238439,0.8160000000000025,0.8329999999999984,0.849399999976157,0.8661999999880834,0.8828000000119118,0.8996000000238382,0.9163999999761359,0.9328000000119232,0.9628999999761447,0.9798000000119202,0.99610000002383,1.0130000000000052,1.0293999999761354,1.0341999999880613,1.049600000023844,1.0664999999999907,1.0831000000238191,1.0996000000238269,1.1161999999880834,1.1328000000119118,1.1496000000238382,1.1663000000119155,1.1826000000238253,1.1996000000238212,1.216100000023829,1.232699999988057,1.2494999999999834,1.2661999999880607,1.2831000000238362,1.2993999999761456,1.3161000000238232,1.3343000000119218,1.3629999999999995,1.3676999999880763,1.3828000000119118,1.399499999999989,1.4166000000238341,1.4328000000119232,1.4495000000000005,1.4661999999880777,1.483000000000004,1.5120000000000005,1.5164999999999793,1.532899999976138,1.5496999999880643,1.5663999999761415,1.5829999999999984,1.6133999999761386,1.6296999999880768,1.646600000023824,1.6513999999761495,1.6661999999880663,1.6828999999761436]",5,0,5,0,1,,,,
1QaZ-4,2025-06-18_15h06.59.790,GoFitts,2023.2.3,Win32,60.24096386,,,,,,"[-33.12551148103408,-315.1681889630905]","[-33.1255114810338,315.16818896309053]",24,633.8084469,5.75,0,1.1496,0.3797,"[-21,-13,-13,-13,-13,-13,-15,-15,-15,-15,-16,-23,-27,-28,-28,-28,-28,-29,-29,-31,-36,-37,-39,-39,-39,-39,-39,-39,-39,-39,-39,-39,-39,-39,-39,-39,-39,-39,-39,-39,-39,-39,-39,-39,-39,-39,-39,-39,-39,-39,-39,-39,-39,-39,-39,-39,-39,-39,-39,-39,-39,-39,-39,-39,-39,-39,-39,-39,-39,-39,-35,-35,-35,-35,-35,-35,-35,-35,-35,-35,-35,-35,-35,-35,-35,-35,-35,-35,-35,-35,-35,-35,-35,-35,-35,-35,-35,-35,-35,-35,-35,-35,-35,-35,-35,-35,-35,-35,-35,-35,-35,-35,-35]","[67,226,263,275,284,284,290,292,292,292,294,312,321,324,326,326,326,326,326,326,326,326,326,326,326,326,326,326,326,326,326,326,326,326,326,326,326,326,326,326,326,326,326,326,326,326,326,326,326,326,326,326,326,326,326,326,326,326,326,326,326,326,326,326,326,326,326,326,326,324,317,316,315,315,315,315,315,315,315,315,315,315,315,315,315,315,315,315,315,315,315,315,315,315,315,315,315,315,315,315,315,315,315,315,315,315,315,315,315,315,315,314,313]","[0,0,0,0,0,0,0,0,0,0,0,0,0,0,0,0,0,0,0,0,0,0,0,0,0,0,0,0,0,0,0,0,0,0,0,0,0,0,0,0,0,0,0,0,0,0,0,0,0,0,0,0,0,0,0,0,0,0,0,0,0,0,0,0,0,0,0,0,0,0,0,0,0,0,0,0,0,0,0,0,0,0,0,0,0,0,0,0,0,0,0,0,0,0,0,0,0,0,0,0,0,0,0,0,0,0,0,0,0,0,0,0,0]","[0,0,0,0,0,0,0,0,0,0,0,0,0,0,0,0,0,0,0,0,0,0,0,0,0,0,0,0,0,0,0,0,0,0,0,0,0,0,0,0,0,0,0,0,0,0,0,0,0,0,0,0,0,0,0,0,0,0,0,0,0,0,0,0,0,0,0,0,0,0,0,0,0,0,0,0,0,0,0,0,0,0,0,0,0,0,0,0,0,0,0,0,0,0,0,0,0,0,0,0,0,0,0,0,0,0,0,0,0,0,0,0,0]","[0,0,0,0,0,0,0,0,0,0,0,0,0,0,0,0,0,0,0,0,0,0,0,0,0,0,0,0,0,0,0,0,0,0,0,0,0,0,0,0,0,0,0,0,0,0,0,0,0,0,0,0,0,0,0,0,0,0,0,0,0,0,0,0,0,0,0,0,0,0,0,0,0,0,0,0,0,0,0,0,0,0,0,0,0,0,0,0,0,0,0,0,0,0,0,0,0,0,0,0,0,0,0,0,0,0,0,0,0,0,0,0,0]","[0,0.029299999952314693,0.04609999996424108,0.06279999995231833,0.0793999999761752,0.08449999999999136,0.09929999995230787,0.12950000000000728,0.13409999996423494,0.14919999998807043,0.16599999999999682,0.19629999995231628,0.21289999997617315,0.22659999996423608,0.23269999998808544,0.24929999995231356,0.2658999999761704,0.30000000000001137,0.3125999999642488,0.3171999999880768,0.3458999999761545,0.35069999998808044,0.3797999999523256,0.39629999995233334,0.40100000000001046,0.4158999999761477,0.4327999999523229,0.4491999999880818,0.46589999997615905,0.48289999997615496,0.4993999999761627,0.5158999999761704,0.5328999999761663,0.5493999999761741,0.5660000000000025,0.5828999999761493,0.5995999999642265,0.6160999999642343,0.6327999999523115,0.6491999999880704,0.6659999999999968,0.6825999999642534,0.6991999999880818,0.7161999999880777,0.7325999999642363,0.7495000000000118,0.7658999999761704,0.7825999999642477,0.7991999999880761,0.8158999999761534,0.8326999999880798,0.8491999999880875,0.8660000000000139,0.8827999999523115,0.8994999999999891,0.9160999999642456,0.932899999976172,0.9493999999761513,0.9660000000000082,0.9825999999642363,0.9991999999880932,1.01609999996424,1.0327999999523172,1.0491999999880761,1.0657999999523327,1.0827999999523286,1.0991999999880875,1.1157999999523156,1.132599999964242,1.149599999964238,1.1792999999523204,1.1839999999999975,1.2130999999642427,1.2176999999880707,1.2327999999523058,1.2492999999523136,1.2658999999761704,1.2825999999642477,1.2991999999880761,1.3157999999523327,1.3325000000000102,1.3495000000000061,1.3658999999761647,1.3827999999523115,1.3991999999880704,1.4159999999999968,1.432899999976172,1.4491999999880818,1.4660999999642286,1.482500000000016,1.4991999999880932,1.51609999996424,1.5325999999642477,1.5491999999880761,1.5660999999642513,1.5825999999642306,1.5995000000000061,1.6160000000000139,1.6327999999523115,1.649599999964238,1.6659999999999968,1.682899999976172,1.711999999999989,1.7164999999999964,1.732500000000016,1.7492999999523136,1.7659999999999911,1.7827999999523172,1.799399999976174,1.8157999999523327,1.8327999999523286,1.8492999999523079,1.8660999999642343]",6,0,6,0,1,,,,
1QaZ-4,2025-06-18_15h06.59.790,GoFitts,2023.2.3,Win32,60.24096386,,,,,,"[-33.1255114810338,315.16818896309053]","[97.92879063754054,-301.3938267606408]",24,633.8084469,5.75,0,0.3996,0.0296,"[-35,-29,-23,-9,3,40,62,69,71,79,79,84,86,86,86,86,86,86,86,86,86,86,87,90,92,101,105,105,105,105,105,105,105,105,105,105,105,105,105,105,105,105,105,105,105,105,105,105,105,105,104,104,104,104,104,104,104,104,104,104,104,104,104,104,104,104,104,104]","[313,277,248,197,148,3,-112,-157,-181,-260,-260,-280,-290,-290,-291,-291,-291,-291,-291,-291,-291,-291,-291,-291,-291,-291,-293,-293,-293,-293,-293,-293,-293,-293,-293,-293,-293,-293,-293,-293,-293,-293,-293,-293,-293,-293,-293,-293,-294,-297,-299,-299,-299,-299,-299,-299,-299,-299,-299,-299,-299,-299,-299,-299,-299,-299,-299,-299]","[0,0,0,0,0,0,0,0,0,0,0,0,0,0,0,0,0,0,0,0,0,0,0,0,0,0,0,0,0,0,0,0,0,0,0,0,0,0,0,0,0,0,0,0,0,0,0,0,0,0,0,0,0,0,0,0,0,0,0,0,0,0,0,0,0,0,0,0]","[0,0,0,0,0,0,0,0,0,0,0,0,0,0,0,0,0,0,0,0,0,0,0,0,0,0,0,0,0,0,0,0,0,0,0,0,0,0,0,0,0,0,0,0,0,0,0,0,0,0,0,0,0,0,0,0,0,0,0,0,0,0,0,0,0,0,0,0]","[0,0,0,0,0,0,0,0,0,0,0,0,0,0,0,0,0,0,0,0,0,0,0,0,0,0,0,0,0,0,0,0,0,0,0,0,0,0,0,0,0,0,0,0,0,0,0,0,0,0,0,0,0,0,0,0,0,0,0,0,0,0,0,0,0,0,0,0]","[0,0.029600000023833672,0.046300000011910925,0.06280000001191866,0.06749999999999545,0.096400000035743,0.11299999999999955,0.11790000003574619,0.13280000001191183,0.16269999998806384,0.1671999999880711,0.18269999998807407,0.2126000000238264,0.21690000003576415,0.23290000003575528,0.24919999998806475,0.26610000002384027,0.2828000000119175,0.29940000003574596,0.3161000000238232,0.33269999998807975,0.34940000003575733,0.3661000000238346,0.38280000001191183,0.3996000000238382,0.4294000000357414,0.44610000002381867,0.45980000001191,0.4659000000357594,0.482699999988057,0.4994999999999834,0.5159000000357423,0.5326000000238196,0.5493000000118968,0.5661000000238232,0.5824999999999818,0.5991999999880591,0.6161000000238346,0.6326999999880627,0.6494999999999891,0.6663000000119155,0.6826999999880741,0.6994000000357516,0.7159000000357594,0.732699999988057,0.749400000035763,0.7663000000119098,0.7829000000357382,0.799400000035746,0.8160000000000025,0.8328000000119005,0.8494000000357573,0.866199999988055,0.8826000000238423,0.8991999999880704,0.915900000035748,0.9326000000238253,0.9619999999999891,0.9664999999999964,0.9826000000238366,0.999400000035763,1.0161999999880607,1.0326000000238196,1.049400000035746,1.066199999988072,1.082600000023831,1.099199999988059,1.116300000011904]",7,0,7,0,1,,,,
1QaZ-4,2025-06-18_15h06.59.790,GoFitts,2023.2.3,Win32,60.24096386,,,,,,"[97.92879063754054,-301.3938267606408]","[-158.45211172871313,274.4471080807117]",24,633.8084469,5.75,0,0.6993,0.1826,"[104,104,104,104,104,104,104,104,104,104,103,100,85,77,77,56,44,20,-3,-52,-72,-72,-113,-122,-122,-134,-136,-141,-143,-143,-143,-143,-143,-143,-143,-144,-146,-146,-146,-147,-148,-151,-157,-159,-159,-159,-159,-159,-159,-159,-159,-159,-159,-159,-159,-159,-159,-159,-159,-159,-159,-159,-159,-159,-159,-159,-159,-159,-159,-159,-159,-159,-159,-159,-159,-159,-159,-159,-159,-159,-159,-159,-159,-159,-159,-159]","[-299,-299,-299,-299,-299,-299,-299,-299,-299,-299,-297,-276,-216,-199,-199,-160,-131,-65,1,100,137,137,208,223,224,241,244,252,255,256,256,256,256,256,256,260,262,262,263,263,263,264,266,268,268,268,268,268,268,268,268,268,268,268,268,268,268,268,268,268,268,268,268,268,268,268,268,268,268,268,268,268,268,268,268,268,268,268,268,268,268,268,268,268,268,266]","[0,0,0,0,0,0,0,0,0,0,0,0,0,0,0,0,0,0,0,0,0,0,0,0,0,0,0,0,0,0,0,0,0,0,0,0,0,0,0,0,0,0,0,0,0,0,0,0,0,0,0,0,0,0,0,0,0,0,0,0,0,0,0,0,0,0,0,0,0,0,0,0,0,0,0,0,0,0,0,0,0,0,0,0,0,0]","[0,0,0,0,0,0,0,0,0,0,0,0,0,0,0,0,0,0,0,0,0,0,0,0,0,0,0,0,0,0,0,0,0,0,0,0,0,0,0,0,0,0,0,0,0,0,0,0,0,0,0,0,0,0,0,0,0,0,0,0,0,0,0,0,0,0,0,0,0,0,0,0,0,0,0,0,0,0,0,0,0,0,0,0,0,0]","[0,0,0,0,0,0,0,0,0,0,0,0,0,0,0,0,0,0,0,0,0,0,0,0,0,0,0,0,0,0,0,0,0,0,0,0,0,0,0,0,0,0,0,0,0,0,0,0,0,0,0,0,0,0,0,0,0,0,0,0,0,0,0,0,0,0,0,0,0,0,0,0,0,0,0,0,0,0,0,0,0,0,0,0,0,0]","[0,0.029399999976135405,0.034199999988061336,0.049100000023827306,0.0660000000000025,0.08260000002383094,0.09919999998805906,0.11610000002383458,0.1326999999880627,0.14930000001191956,0.16599999999999682,0.18269999998807407,0.21280000001192434,0.2295000000000016,0.23410000002382958,0.24919999998806475,0.265899999976142,0.2826000000238196,0.2991999999880761,0.3294999999999959,0.34610000002382435,0.3506000000238316,0.3791999999880602,0.3959999999999866,0.400600000023843,0.42910000002382276,0.4334999999999809,0.4626000000238264,0.4784999999999968,0.48280000001190615,0.5131000000238259,0.517699999988082,0.5324999999999989,0.5491999999880761,0.5656999999880554,0.5824999999999818,0.6128000000119016,0.6171000000238394,0.6328000000119118,0.6491999999880704,0.6658000000118989,0.6824999999999761,0.6993000000119025,0.7295000000000016,0.7341999999880784,0.7493999999761343,0.7659999999999911,0.7823999999761497,0.7991999999880761,0.8160000000000025,0.8328000000119005,0.849399999976157,0.8659999999999854,0.8824999999999932,0.8991999999880704,0.9161000000238175,0.9324999999999761,0.9489999999999839,0.9659999999999798,0.982699999988057,0.9991999999880647,1.0159999999999911,1.0326000000238196,1.0493000000118968,1.0660000000000025,1.0824999999999818,1.0991000000238387,1.115600000023818,1.132399999976144,1.14939999997614,1.1658999999761477,1.182699999988074,1.1993999999761513,1.215899999976159,1.2463000000118996,1.2511999999880743,1.279300000011915,1.2838999999761427,1.2991999999880761,1.3158999999761534,1.332399999976161,1.3493000000119082,1.3658999999761363,1.382399999976144,1.3991999999880704,1.4158999999761477]",8,0,8,0,1,,,,
1QaZ-4,2025-06-18_15h06.59.790,GoFitts,2023.2.3,Win32,60.24096386,,,,,,"[-158.45211172871313,274.4471080807117]","[212.05031519975088,-235.5057338343182]",24,633.8084469,5.75,0,0.2332,0.0298,"[-159,-129,-129,-74,-29,-3,55,89,129,146,172,172,190,198,204,207,207,207,207,207,207,207,207,207,207,207,210,212,212,212,212,212,212,212,212,212,212,212,212,212,212,212,212,212,212,212,212,212,212,212,212,212,212,212,212,212,212,212]","[266,223,221,144,79,41,-39,-83,-141,-165,-202,-202,-225,-234,-239,-243,-243,-243,-243,-243,-243,-243,-243,-243,-243,-243,-243,-243,-243,-243,-243,-243,-243,-243,-243,-243,-243,-243,-243,-243,-243,-243,-243,-243,-243,-243,-243,-243,-243,-243,-243,-243,-243,-243,-243,-243,-239,-237]","[0,0,0,0,0,0,0,0,0,0,0,0,0,0,0,0,0,0,0,0,0,0,0,0,0,0,0,0,0,0,0,0,0,0,0,0,0,0,0,0,0,0,0,0,0,0,0,0,0,0,0,0,0,0,0,0,0,0]","[0,0,0,0,0,0,0,0,0,0,0,0,0,0,0,0,0,0,0,0,0,0,0,0,0,0,0,0,0,0,0,0,0,0,0,0,0,0,0,0,0,0,0,0,0,0,0,0,0,0,0,0,0,0,0,0,0,0]","[0,0,0,0,0,0,0,0,0,0,0,0,0,0,0,0,0,0,0,0,0,0,0,0,0,0,0,0,0,0,0,0,0,0,0,0,0,0,0,0,0,0,0,0,0,0,0,0,0,0,0,0,0,0,0,0,0,0]","[0,0.029900000035752328,0.03430000001191047,0.06280000001191866,0.07969999998809385,0.09649999999999181,0.11299999999999955,0.12950000000000728,0.14640000003575437,0.16300000000001091,0.17680000001192298,0.18290000003577234,0.19950000000000045,0.2166000000238455,0.23319999998807361,0.2633000000119239,0.2679000000357519,0.2831000000238362,0.2996000000238439,0.31630000001192116,0.33310000002384754,0.3498000000119248,0.36640000003575324,0.3831000000238305,0.3999000000357569,0.4165000000000134,0.43290000003577234,0.46280000001192434,0.46690000003576415,0.49619999998807884,0.5004000000357678,0.5161999999880891,0.5328000000119175,0.5494999999999948,0.5661000000238516,0.5828000000119289,0.5996000000238553,0.6161999999880834,0.6328000000119118,0.6496000000238382,0.6661999999880948,0.6829000000357723,0.6995000000000005,0.7161999999880777,0.7328000000119346,0.7495000000000118,0.7661999999880891,0.7951000000238366,0.7996000000238439,0.816199999988072,0.8328000000119289,0.8495000000000061,0.8661999999880834,0.8828000000119118,0.8996000000238382,0.916100000023846,0.9329000000357723,0.9496000000238496]",9,0,9,0,1,,,,
1QaZ-4,2025-06-18_15h06.59.790,GoFitts,2023.2.3,Win32,60.24096386,,,,,,"[212.05031519975088,-235.5057338343182]","[-256.3809023662538,186.27162893747368]",24,633.8084469,5.75,0,1.0167,0.4169,"[212,211,211,211,211,211,211,211,211,211,211,211,211,211,211,211,211,211,211,211,211,211,211,211,205,162,9,-78,-133,-200,-241,-282,-283,-284,-284,-280,-270,-270,-268,-268,-268,-268,-268,-267,-267,-263,-248,-243,-239,-238,-238,-238,-238,-238,-238,-238,-238,-238,-238,-240,-244,-248,-256,-256,-258,-258,-258,-258,-258,-258,-258,-258,-258,-258,-258,-258,-258,-258,-258,-258,-258,-258,-258,-258,-258,-258,-258,-258,-258,-258,-258,-258,-258,-258,-258,-258,-258,-258,-258,-252,-186,-186,-125,2,36]","[-237,-236,-236,-236,-236,-236,-236,-236,-236,-236,-236,-236,-236,-236,-236,-236,-236,-236,-236,-236,-236,-236,-236,-236,-229,-193,-78,-12,27,87,125,180,186,203,203,218,236,236,238,238,238,238,238,235,233,224,197,191,188,188,188,188,188,188,188,188,188,188,188,188,188,188,188,188,188,188,188,188,188,188,188,188,188,188,188,188,188,188,188,188,188,188,188,188,188,188,188,188,188,188,188,188,188,188,188,188,188,188,188,174,92,92,31,-53,-71]","[0,0,0,0,0,0,0,0,0,0,0,0,0,0,0,0,0,0,0,0,0,0,0,0,0,0,0,0,0,0,0,0,0,0,0,0,0,0,0,0,0,0,0,0,0,0,0,0,0,0,0,0,0,0,0,0,0,0,0,0,0,0,0,0,0,0,0,0,0,0,0,0,0,0,0,0,0,0,0,0,0,0,0,0,0,0,0,0,0,0,0,0,0,0,0,0,0,0,0,0,0,0,0,0,0]","[0,0,0,0,0,0,0,0,0,0,0,0,0,0,0,0,0,0,0,0,0,0,0,0,0,0,0,0,0,0,0,0,0,0,0,0,0,0,0,0,0,0,0,0,0,0,0,0,0,0,0,0,0,0,0,0,0,0,0,0,0,0,0,0,0,0,0,0,0,0,0,0,0,0,0,0,0,0,0,0,0,0,0,0,0,0,0,0,0,0,0,0,0,0,0,0,0,0,0,0,0,0,0,0,0]","[0,0,0,0,0,0,0,0,0,0,0,0,0,0,0,0,0,0,0,0,0,0,0,0,0,0,0,0,0,0,0,0,0,0,0,0,0,0,0,0,0,0,0,0,0,0,0,0,0,0,0,0,0,0,0,0,0,0,0,0,0,0,0,0,0,0,0,0,0,0,0,0,0,0,0,0,0,0,0,0,0,0,0,0,0,0,0,0,0,0,0,0,0,0,0,0,0,0,0,0,0,0,0,0,0]","[0,0.02950000000001296,0.03360000002385277,0.04950000000002319,0.06619999998810044,0.08280000001192889,0.09950000000000614,0.116100000023863,0.13280000001194026,0.1495000000000175,0.16619999998809476,0.18300000000002115,0.19950000000000045,0.21640000003577597,0.23330000001192275,0.2503000000119471,0.2669000000357755,0.2836999999881016,0.30050000000002797,0.3171000000238564,0.3334000000357662,0.3504000000357905,0.3671000000238678,0.38340000003577757,0.4004000000357735,0.4169000000357812,0.4473000000119214,0.46369999998808,0.4696000000238598,0.48330000001192275,0.5001000000238491,0.5299000000357807,0.5468000000119275,0.5631999999880861,0.5679000000357632,0.5831999999880964,0.6131999999880975,0.6179000000357746,0.6331000000238589,0.649699999988087,0.6666000000238625,0.6831000000238419,0.6996000000238496,0.7168000000119434,0.7331000000238532,0.7498000000119305,0.7800000000000011,0.7966999999881068,0.8131999999880861,0.8301000000238616,0.8466999999880898,0.8516000000238648,0.8661999999880834,0.8831999999880793,0.8999000000357853,0.9163000000119439,0.9329000000357723,0.9496999999880984,0.9665000000000248,0.9831000000238532,0.9996999999880813,1.0166999999881057,1.0466999999881068,1.0515000000000043,1.0800000000000125,1.0849000000357876,1.099699999988104,1.1164000000357817,1.1331999999880793,1.149699999988087,1.166300000011944,1.1831000000238419,1.1998000000119475,1.2166000000238455,1.233000000000004,1.2496999999880813,1.2666000000238569,1.2830000000000155,1.299600000023844,1.3163000000119212,1.3331999999880964,1.349900000035774,1.366500000000002,1.383100000023859,1.3998000000119362,1.416300000011944,1.4331999999880907,1.450000000000017,1.4665000000000248,1.483199999988102,1.4998000000119305,1.5165000000000077,1.5331000000238646,1.5496999999880927,1.580199999988082,1.585100000023857,1.5998000000119248,1.6164000000357817,1.633100000023859,1.6500000000000057,1.6799000000357864,1.6846000000238632,1.6996999999880984,1.7298000000119487,1.7351000000238628]",10,0,10,0,1,,,,
1QaZ-4,2025-06-18_15h06.59.790,GoFitts,2023.2.3,Win32,60.24096386,,,,,,"[-256.3809023662538,186.27162893747368]","[289.50641384728766,-128.89656002561685]",24,633.8084469,5.75,0,0.8114,,"[36,116,144,162,173,175,179,181,188,194,199,213,244,257,271,283,290,292,292,292,292,292,292,292,292,292,292,292,292,292,277,276,277,278,280,281,281,281,281,281,281,281,281,281,281,282,282,282,282,282,282,282,282,284,285,286,288,288,288,288,289,289,289,289,289,289,289,289,289,289,289,289,289,289,289,289,289,289,289,289,289,289,289,289,289,289,289,289,289,289,289,289]","[-71,-114,-131,-144,-153,-156,-160,-161,-167,-171,-173,-176,-176,-172,-166,-158,-152,-150,-150,-150,-150,-150,-150,-150,-150,-150,-150,-150,-150,-149,-133,-117,-110,-108,-106,-106,-106,-106,-106,-106,-106,-106,-106,-106,-106,-112,-116,-119,-120,-120,-120,-120,-120,-120,-121,-122,-123,-123,-123,-123,-124,-124,-124,-124,-124,-124,-124,-124,-124,-124,-124,-124,-124,-124,-124,-124,-124,-124,-124,-124,-124,-124,-124,-124,-124,-124,-124,-124,-124,-124,-124,-124]","[0,0,0,0,0,0,0,0,0,0,0,0,0,0,0,0,0,0,0,0,0,0,0,0,0,0,0,0,0,0,0,0,0,0,0,0,0,0,0,0,0,0,0,0,0,0,0,0,0,0,0,0,0,0,0,0,0,0,0,0,0,0,0,0,0,0,0,0,0,0,0,0,0,0,0,0,0,0,0,0,0,0,0,0,0,0,0,0,0,0,0,0]","[0,0,0,0,0,0,0,0,0,0,0,0,0,0,0,0,0,0,0,0,0,0,0,0,0,0,0,0,0,0,0,0,0,0,0,0,0,0,0,0,0,0,0,0,0,0,0,0,0,0,0,0,0,0,0,0,0,0,0,0,0,0,0,0,0,0,0,0,0,0,0,0,0,0,0,0,0,0,0,0,0,0,0,0,0,0,0,0,0,0,0,0]","[0,0,0,0,0,0,0,0,0,0,0,0,0,0,0,0,0,0,0,0,0,0,0,0,0,0,0,0,0,0,0,0,0,0,0,0,0,0,0,0,0,0,0,0,0,0,0,0,0,0,0,0,0,0,0,0,0,0,0,0,0,0,0,0,0,0,0,0,0,0,0,0,0,0,0,0,0,0,0,0,0,0,0,0,0,0,0,0,0,0,0,0]","[0,0.027600000023824123,0.04399999999998272,0.06069999998805997,0.07739999997613722,0.08299999999999841,0.11089999997614086,0.11580000001191593,0.14410000002382617,0.1606000000238339,0.16499999999999204,0.180499999999995,0.21069999998806566,0.21519999998807293,0.23039999997615723,0.2471999999880552,0.26380000001191206,0.2803999999761402,0.31069999998805997,0.31510000002381844,0.3306000000238214,0.34739999997614746,0.3639999999999759,0.38069999998805315,0.3971999999880609,0.41399999999998727,0.4306999999880645,0.44710000002382344,0.4638999999761495,0.4806999999880759,0.4971000000238348,0.5273999999761543,0.5441000000238319,0.5486000000238391,0.5774999999999864,0.5943000000119127,0.6111000000238391,0.6156999999880668,0.6304999999999836,0.6473999999761304,0.6638000000119177,0.6806999999880645,0.697300000011893,0.7139999999999986,0.7306999999880759,0.7473000000119043,0.7638000000119121,0.7806000000238384,0.8113999999761461,0.8273999999761372,0.8321000000238143,0.8471000000238291,0.8638000000119064,0.8806000000238328,0.8973999999761304,0.9138000000119177,0.9306000000238157,0.9471999999880722,0.9638999999761495,0.9806999999880759,0.9971000000238348,1.0273999999761543,1.0319999999999823,1.0471999999880666,1.0636999999880743,1.0803999999761515,1.097199999988078,1.114100000023825,1.1304999999999836,1.1473999999761304,1.1641000000238364,1.1806999999880645,1.197300000011893,1.2138999999761495,1.2308000000118966,1.2473999999761531,1.2639999999999816,1.2804999999999893,1.2973000000119157,1.3138999999761438,1.3306999999880702,1.3608000000119205,1.365800000011916,1.394199999988075,1.3988999999761518,1.4138999999761381,1.430499999999995,1.4473999999761418,1.4636999999880516,1.4803999999761572,1.4971999999880552,1.513800000011912]",11,0,11,0,1,,,,
1QaZ-4,2025-06-18_15h06.59.790,GoFitts,2023.2.3,Win32,60.24096386,,,,,,"[289.50641384728766,-128.89656002561685]","[-309.97910583729146,65.88809292632254]",24,633.8084469,5.75,0,0.8665,0.0829,"[289,289,289,289,281,275,238,236,206,185,108,87,55,12,3,-10,-29,-41,-73,-73,-93,-126,-137,-171,-182,-223,-244,-247,-247,-261,-272,-274,-275,-275,-275,-276,-276,-276,-276,-276,-279,-289,-296,-296,-297,-297,-297,-297,-297,-297,-298,-299,-300,-300,-300,-300,-300,-301,-301,-304,-307,-309,-309,-309,-309,-309,-309,-309,-309,-309,-309,-309,-309,-309,-309,-309,-309,-309,-309,-309,-309,-309,-309,-309,-309,-309,-309,-309,-309,-309,-309,-309,-309,-309,-309,-309,-309]","[-124,-124,-124,-124,-124,-125,-120,-120,-113,-109,-94,-90,-83,-70,-66,-59,-46,-42,-27,-27,-21,-12,-9,0,3,16,24,25,25,30,36,39,40,41,41,42,42,42,42,42,44,48,49,49,49,49,50,50,50,50,53,60,63,65,65,65,65,65,65,65,65,65,65,65,65,65,65,65,65,65,65,65,65,65,65,65,65,65,65,65,65,65,65,65,65,65,65,65,65,65,65,65,65,65,65,65,65]","[0,0,0,0,0,0,0,0,0,0,0,0,0,0,0,0,0,0,0,0,0,0,0,0,0,0,0,0,0,0,0,0,0,0,0,0,0,0,0,0,0,0,0,0,0,0,0,0,0,0,0,0,0,0,0,0,0,0,0,0,0,0,0,0,0,0,0,0,0,0,0,0,0,0,0,0,0,0,0,0,0,0,0,0,0,0,0,0,0,0,0,0,0,0,0,0,0]","[0,0,0,0,0,0,0,0,0,0,0,0,0,0,0,0,0,0,0,0,0,0,0,0,0,0,0,0,0,0,0,0,0,0,0,0,0,0,0,0,0,0,0,0,0,0,0,0,0,0,0,0,0,0,0,0,0,0,0,0,0,0,0,0,0,0,0,0,0,0,0,0,0,0,0,0,0,0,0,0,0,0,0,0,0,0,0,0,0,0,0,0,0,0,0,0,0]","[0,0,0,0,0,0,0,0,0,0,0,0,0,0,0,0,0,0,0,0,0,0,0,0,0,0,0,0,0,0,0,0,0,0,0,0,0,0,0,0,0,0,0,0,0,0,0,0,0,0,0,0,0,0,0,0,0,0,0,0,0,0,0,0,0,0,0,0,0,0,0,0,0,0,0,0,0,0,0,0,0,0,0,0,0,0,0,0,0,0,0,0,0,0,0,0,0]","[0,0.030099999964249946,0.03459999996425722,0.04949999999999477,0.06619999998807202,0.0828999999761777,0.11309999996424835,0.11759999996425563,0.14630000001193366,0.1506999999880918,0.17959999996423903,0.1839999999999975,0.19959999996424926,0.22969999998809953,0.24619999998807884,0.2628000000119357,0.279300000011915,0.2960999999642411,0.3130000000000166,0.31739999997617474,0.3325999999642306,0.36289999997617883,0.36719999998808817,0.396599999964252,0.4013000000119291,0.42969999998808817,0.4463000000119166,0.4631999999880918,0.4676999999880991,0.48289999997615496,0.5098999999761702,0.5295999999642333,0.5463999999761597,0.5628999999761675,0.5671999999880768,0.5828999999761777,0.5995000000000061,0.6161999999880834,0.6330999999642302,0.6495000000000175,0.6661999999880948,0.6826999999880741,0.7129999999999939,0.7173000000119316,0.7330000000000041,0.7496999999880813,0.7661999999880891,0.7828000000119175,0.7994999999999948,0.8163000000119212,0.8328000000119289,0.849599999964255,0.866500000000002,0.896599999964252,0.9130000000000109,0.9173999999761691,0.9326999999880741,0.9495000000000005,0.9663999999761756,0.9830000000000041,0.9995000000000118,1.029899999976152,1.0341999999880898,1.0496999999880927,1.06639999997617,1.0833999999761659,1.0995000000000061,1.1160999999642343,1.1330000000000098,1.1495000000000175,1.1663999999761643,1.1829999999999927,1.1995000000000005,1.2164999999999964,1.2328000000119346,1.2496999999880813,1.266199999988089,1.2830000000000155,1.2994999999999948,1.31639999997617,1.3328999999761777,1.349599999964255,1.366399999976153,1.3830999999642302,1.3995000000000175,1.4160999999642456,1.4330999999642415,1.4496999999880984,1.466099999964257,1.482899999976155,1.4993999999761627,1.51609999996424,1.5328000000119175,1.5496999999880927,1.5660999999642513,1.5826999999880798,1.5996999999880757]",12,0,12,0,1,,,,
1QaZ-4,2025-06-18_15h06.59.790,GoFitts,2023.2.3,Win32,60.24096386,,,,,,"[-309.97910583729146,65.88809292632254]","[316.9042234574264,0]",24,633.8084469,5.75,0,0.883,0.1829,"[-309,-309,-309,-309,-309,-309,-309,-309,-309,-309,-309,-291,-276,-248,-200,-200,-160,-51,-28,17,87,120,160,161,178,191,205,211,215,241,241,246,247,249,252,254,263,267,272,277,292,292,294,296,299,303,303,303,303,303,303,303,303,308,315,317,320,320,320,320,320,320,320,320,320,320,320,320,320,320,320,320,320,320,320,320,320,320,320,320,320,320,320,320,320,320,320,320,320,320,320,320,320,320,320,320,320,320]","[65,65,65,65,65,65,65,65,65,65,65,64,60,53,41,41,34,20,17,10,2,0,0,0,5,8,10,10,10,11,11,11,11,11,9,8,3,0,-2,-4,-7,-7,-7,-7,-7,-7,-7,-7,-7,-7,-7,-7,-7,-6,-3,-2,-1,-1,-1,-1,-1,-1,-1,-1,-1,-1,-1,-1,-1,-1,-1,-1,-1,-1,-1,-1,-1,-1,-1,-1,-1,-1,-1,-1,-1,-1,-1,-1,-1,-1,-1,-1,-1,-1,-1,-1,-1,-1]","[0,0,0,0,0,0,0,0,0,0,0,0,0,0,0,0,0,0,0,0,0,0,0,0,0,0,0,0,0,0,0,0,0,0,0,0,0,0,0,0,0,0,0,0,0,0,0,0,0,0,0,0,0,0,0,0,0,0,0,0,0,0,0,0,0,0,0,0,0,0,0,0,0,0,0,0,0,0,0,0,0,0,0,0,0,0,0,0,0,0,0,0,0,0,0,0,0,0]","[0,0,0,0,0,0,0,0,0,0,0,0,0,0,0,0,0,0,0,0,0,0,0,0,0,0,0,0,0,0,0,0,0,0,0,0,0,0,0,0,0,0,0,0,0,0,0,0,0,0,0,0,0,0,0,0,0,0,0,0,0,0,0,0,0,0,0,0,0,0,0,0,0,0,0,0,0,0,0,0,0,0,0,0,0,0,0,0,0,0,0,0,0,0,0,0,0,0]","[0,0,0,0,0,0,0,0,0,0,0,0,0,0,0,0,0,0,0,0,0,0,0,0,0,0,0,0,0,0,0,0,0,0,0,0,0,0,0,0,0,0,0,0,0,0,0,0,0,0,0,0,0,0,0,0,0,0,0,0,0,0,0,0,0,0,0,0,0,0,0,0,0,0,0,0,0,0,0,0,0,0,0,0,0,0,0,0,0,0,0,0,0,0,0,0,0,0]","[0,0.029800000011931616,0.03430000001193889,0.04950000000002319,0.0665000000000191,0.08299999999999841,0.09959999996425495,0.11639999997618133,0.13289999997616064,0.1495000000000175,0.16619999998809476,0.182899999976172,0.19939999997617974,0.2161999999880777,0.2463999999761768,0.25080000001193525,0.26609999996423994,0.2960999999642411,0.30059999996424835,0.31630000001192116,0.34669999998808976,0.35139999997616655,0.3795999999642561,0.38400000000001455,0.3995000000000175,0.41619999998809476,0.44650000000001455,0.46289999997617315,0.4673000000119316,0.49609999996425813,0.5003999999761675,0.5160999999642399,0.5333000000119341,0.5631999999880861,0.5796999999880939,0.5840000000000032,0.6129999999999995,0.6175000000000068,0.6463000000119337,0.6505999999642427,0.6795000000000186,0.6835999999642581,0.6998000000119191,0.7163000000119268,0.7328000000119346,0.7628999999761845,0.7788000000119268,0.7833999999761829,0.7995000000000232,0.8163000000119212,0.8330999999642472,0.8496999999881041,0.8663000000119325,0.8830000000000098,0.9128999999761618,0.9173000000119202,0.9465999999642634,0.9510999999642422,0.966099999964257,0.9828999999761834,0.9995000000000118,1.0163999999761586,1.0328999999761663,1.0495000000000232,1.0661999999881004,1.0829999999999984,1.099399999976157,1.1163999999761813,1.1330999999642586,1.1495000000000175,1.1661999999880948,1.182899999976172,1.199800000011919,1.216099999964257,1.2326999999880854,1.2495999999642606,1.2665000000000077,1.2830999999642358,1.299399999976174,1.3160999999642513,1.3328999999761777,1.3495000000000061,1.3660999999642627,1.3830000000000098,1.3993999999761684,1.416300000011944,1.446699999988084,1.4513000000119405,1.4661999999880777,1.4828999999761834,1.4995000000000118,1.5163999999761586,1.5328999999761663,1.5495000000000232,1.56639999997617,1.5829999999999984,1.5995000000000061,1.6163000000119325]",13,0,13,0,1,,,,
1QaZ-4,2025-06-18_15h06.59.790,GoFitts,2023.2.3,Win32,60.24096386,,,,,,"[316.9042234574264,0]","[-309.97910583729146,-65.88809292632246]",24,633.8084469,5.75,0,0.9436,0.1661,"[320,320,320,320,320,320,320,320,319,317,299,256,155,106,83,5,5,-30,-76,-142,-167,-185,-191,-222,-244,-257,-265,-269,-269,-269,-269,-269,-269,-269,-269,-270,-274,-282,-290,-304,-324,-328,-329,-329,-329,-329,-329,-329,-329,-329,-328,-328,-328,-328,-326,-323,-316,-310,-310,-308,-308,-308,-308,-308,-308,-308,-308,-308,-308,-308,-308,-308,-308,-308,-308,-308,-308,-308,-308,-308,-308,-308,-308,-308,-308,-308,-308,-308,-308,-308,-308,-308,-308,-308,-308,-307,-299,-291,-258,-230]","[-1,-1,-1,-1,-1,-1,-1,-1,-1,-1,-1,-3,-10,-18,-21,-33,-33,-38,-43,-47,-47,-47,-47,-47,-47,-47,-47,-48,-48,-48,-48,-48,-48,-48,-48,-48,-50,-55,-59,-64,-69,-71,-71,-71,-71,-71,-71,-71,-71,-71,-71,-71,-71,-71,-71,-70,-67,-64,-64,-64,-64,-64,-64,-64,-64,-64,-64,-64,-64,-64,-64,-64,-64,-64,-64,-64,-64,-64,-64,-64,-64,-64,-64,-64,-64,-64,-64,-64,-64,-64,-64,-64,-64,-64,-64,-64,-63,-62,-49,-39]","[0,0,0,0,0,0,0,0,0,0,0,0,0,0,0,0,0,0,0,0,0,0,0,0,0,0,0,0,0,0,0,0,0,0,0,0,0,0,0,0,0,0,0,0,0,0,0,0,0,0,0,0,0,0,0,0,0,0,0,0,0,0,0,0,0,0,0,0,0,0,0,0,0,0,0,0,0,0,0,0,0,0,0,0,0,0,0,0,0,0,0,0,0,0,0,0,0,0,0,0]","[0,0,0,0,0,0,0,0,0,0,0,0,0,0,0,0,0,0,0,0,0,0,0,0,0,0,0,0,0,0,0,0,0,0,0,0,0,0,0,0,0,0,0,0,0,0,0,0,0,0,0,0,0,0,0,0,0,0,0,0,0,0,0,0,0,0,0,0,0,0,0,0,0,0,0,0,0,0,0,0,0,0,0,0,0,0,0,0,0,0,0,0,0,0,0,0,0,0,0,0]","[0,0,0,0,0,0,0,0,0,0,0,0,0,0,0,0,0,0,0,0,0,0,0,0,0,0,0,0,0,0,0,0,0,0,0,0,0,0,0,0,0,0,0,0,0,0,0,0,0,0,0,0,0,0,0,0,0,0,0,0,0,0,0,0,0,0,0,0,0,0,0,0,0,0,0,0,0,0,0,0,0,0,0,0,0,0,0,0,0,0,0,0,0,0,0,0,0,0,0,0]","[0,0.029800000011903194,0.034600000023829125,0.04949999999999477,0.06619999998807202,0.08260000002383094,0.099399999976157,0.11599999999998545,0.13280000001191183,0.14960000002383822,0.16610000002384595,0.1828000000119232,0.21289999997614473,0.2296000000238223,0.23399999999998045,0.2628999999761561,0.2669999999999959,0.2828000000119175,0.29939999997614564,0.32980000001191456,0.3463000000119223,0.36310000002382026,0.36760000002382753,0.3959999999999866,0.4129999999999825,0.4294999999999902,0.4339999999999975,0.4631999999880634,0.4795000000000016,0.48389999997615973,0.4994999999999834,0.5163999999761586,0.532999999999987,0.5498000000119134,0.5663999999761415,0.5828999999761493,0.5994999999999777,0.6161000000238346,0.6328999999761606,0.6496999999880586,0.6796000000238394,0.6961999999880675,0.7008999999761443,0.7301999999880593,0.7346000000238462,0.7493999999761627,0.7659999999999911,0.7826000000238196,0.7994999999999948,0.8161000000238232,0.8329999999999984,0.8493000000119082,0.8659999999999854,0.8826000000238423,0.8996000000238382,0.9161999999880663,0.9436000000238209,0.9628999999761447,0.9673000000119032,0.9830000000000041,0.9998000000119021,1.0161999999880607,1.032999999999987,1.0496999999880643,1.0663000000119212,1.0828999999761493,1.0994999999999777,1.1161999999880834,1.1328000000119118,1.1496999999880586,1.1663000000119155,1.1829999999999927,1.19969999998807,1.2163999999761472,1.2328000000119061,1.2493999999761627,1.2663000000119098,1.282999999999987,1.299600000023844,1.3161000000238232,1.3329999999999984,1.3494999999999777,1.366300000011904,1.3828000000119118,1.3998000000119077,1.4161999999880663,1.4328000000119232,1.44969999998807,1.4663000000118984,1.482699999988057,1.4994999999999834,1.5161000000238403,1.5326999999880684,1.5493000000119252,1.5663999999761415,1.5826999999880798,1.5994999999999777,1.616300000011904,1.6465000000000032,1.6629999999999825]",14,0,14,0,1,,,,
1QaZ-4,2025-06-18_15h06.59.790,GoFitts,2023.2.3,Win32,60.24096386,,,,,,,,,,,0,,,,,,,,,,,,,,0,0,0,1
1QaZ-4,2025-06-18_15h06.59.790,GoFitts,2023.2.3,Win32,60.24096386,,,,,,"[189,89]","[-41.23290134022227,392.3048508558781]",20,788.9315513,6.32,1,1.3787,,"[189,189,189,189,189,189,189,189,189,189,189,189,189,189,189,189,189,189,189,189,189,189,189,189,189,189,189,189,189,189,192,211,214,250,272,366,387,394,394,394,384,378,335,312,230,182,182,134,104,76,65,65,64,62,61,53,41,29,23,-5,-7,-12,-28,-50,-76,-95,-106,-106,-108,-108,-105,-91,-87,-75,-74,-71,-70,-69,-68,-62,-54,-50,-39,-37,-37,-37,-37,-37,-37,-37,-37,-37,-37,-37,-37,-37,-37,-37,-37,-37,-37,-37,-37,-37,-37,-37,-37,-37,-37,-37,-37,-37,-37,-37,-37,-37,-37,-37,-37,-37,-37,-37,-37,-37,-37,-37]","[89,89,89,89,89,89,89,89,89,89,89,89,89,89,89,89,89,89,89,89,89,89,89,89,89,89,89,89,89,89,89,91,91,103,110,140,154,164,167,170,184,188,208,215,245,265,265,287,306,328,340,341,343,345,345,347,351,354,356,372,374,379,394,403,408,410,410,410,410,409,408,404,403,399,399,397,396,395,393,389,387,387,387,387,387,387,387,387,387,387,387,387,387,387,387,387,387,387,387,387,387,387,387,387,387,387,387,387,387,387,387,387,387,387,387,387,387,387,387,387,387,387,387,387,387,387]","[0,0,0,0,0,0,0,0,0,0,0,0,0,0,0,0,0,0,0,0,0,0,0,0,0,0,0,0,0,0,0,0,0,0,0,0,0,0,0,0,0,0,0,0,0,0,0,0,0,0,0,0,0,0,0,0,0,0,0,0,0,0,0,0,0,0,0,0,0,0,0,0,0,0,0,0,0,0,0,0,0,0,0,0,0,0,0,0,0,0,0,0,0,0,0,0,0,0,0,0,0,0,0,0,0,0,0,0,0,0,0,0,0,0,0,0,0,0,0,0,0,0,0,0,0,0]","[0,0,0,0,0,0,0,0,0,0,0,0,0,0,0,0,0,0,0,0,0,0,0,0,0,0,0,0,0,0,0,0,0,0,0,0,0,0,0,0,0,0,0,0,0,0,0,0,0,0,0,0,0,0,0,0,0,0,0,0,0,0,0,0,0,0,0,0,0,0,0,0,0,0,0,0,0,0,0,0,0,0,0,0,0,0,0,0,0,0,0,0,0,0,0,0,0,0,0,0,0,0,0,0,0,0,0,0,0,0,0,0,0,0,0,0,0,0,0,0,0,0,0,0,0,0]","[0,0,0,0,0,0,0,0,0,0,0,0,0,0,0,0,0,0,0,0,0,0,0,0,0,0,0,0,0,0,0,0,0,0,0,0,0,0,0,0,0,0,0,0,0,0,0,0,0,0,0,0,0,0,0,0,0,0,0,0,0,0,0,0,0,0,0,0,0,0,0,0,0,0,0,0,0,0,0,0,0,0,0,0,0,0,0,0,0,0,0,0,0,0,0,0,0,0,0,0,0,0,0,0,0,0,0,0,0,0,0,0,0,0,0,0,0,0,0,0,0,0,0,0,0,0]","[0,0.02860000002385732,0.033100000023836174,0.048499999999989996,0.06499999999999773,0.08160000002385459,0.0986000000238505,0.11519999998807862,0.13189999997615587,0.14860000002383345,0.16550000000000864,0.18180000001191843,0.19849999999999568,0.21510000002385254,0.23189999997615018,0.24869999998807657,0.26530000001193343,0.2820000000000107,0.29860000002383913,0.31510000002384686,0.33210000002384277,0.3486000000238505,0.36539999997614814,0.38210000002385414,0.3988999999761518,0.41519999998809,0.43200000000001637,0.4486000000238448,0.46519999998807293,0.4818000000119298,0.49850000000000705,0.528399999976159,0.5326999999880968,0.5618999999761627,0.5663000000119212,0.595100000023848,0.6118000000119252,0.6283999999761534,0.6326000000238423,0.6483999999761636,0.6785000000000139,0.682899999976172,0.7118999999761684,0.7161999999880777,0.7451000000238537,0.7616999999880818,0.7661000000238403,0.7818000000119127,0.79849999999999,0.8151000000238469,0.8453000000119175,0.8495000000000061,0.8651000000238582,0.8954999999999984,0.9000000000000057,0.9283999999761647,0.9451000000238423,0.9620000000000175,0.9663999999761756,0.9951999999880741,1.0121000000238496,1.017100000023845,1.045399999976155,1.0618999999761627,1.0775000000000148,1.0953000000119175,1.1116000000238557,1.115800000011916,1.1318999999761559,1.1621000000238553,1.166699999988083,1.1951999999880911,1.1996000000238496,1.228600000023846,1.233000000000004,1.262300000011919,1.2786000000238573,1.2953000000119346,1.2994999999999948,1.3284999999999911,1.3451999999880968,1.3496000000238553,1.378699999988072,1.3953999999761493,1.3998000000119362,1.4153999999761595,1.4316999999880693,1.4486000000238448,1.4653999999761709,1.4819999999999993,1.498500000000007,1.5151999999880843,1.5318000000119127,1.5483999999761693,1.5651000000238469,1.5821000000238428,1.5986999999880709,1.6153999999761481,1.632000000000005,1.6485000000000127,1.66519999998809,1.6818000000119184,1.6986000000238448,1.7153999999761709,1.7319999999999993,1.7486999999880766,1.7653000000119334,1.7818000000119127,1.79849999999999,1.8151000000238469,1.8319999999999936,1.8485000000000014,1.865000000000009,1.8816999999880863,1.8985000000000127,1.9278999999761481,1.9325000000000045,1.9484999999999957,1.965300000011922,1.9819999999999993,1.9988000000119257,2.0153000000119334,2.0320000000000107,2.048699999988088,2.0653000000119164,2.081899999976173]",0,0,0,0,1,,,,
1QaZ-4,2025-06-18_15h06.59.790,GoFitts,2023.2.3,Win32,60.24096386,,,,,,"[-41.23290134022227,392.3048508558781]","[121.89662837468663,-375.15924638594316]",20,788.9315513,6.32,1,0.783,0.0496,"[-37,-37,-37,-37,-36,-36,-35,-23,-20,-9,-4,-3,4,9,13,13,13,7,3,3,4,8,11,23,47,54,62,71,78,78,81,84,84,84,84,84,84,85,89,96,106,109,109,109,109,110,111,115,122,122,124,124,124,125,127,128,128,128,128,128,128,128,128,128,128,128,128,128,128,128,128,128,128,128,128,128,128,128,128,128,128,128,128,128,128,128,128,128,128,128,128]","[387,387,387,378,326,326,298,200,177,86,49,37,-11,-50,-126,-161,-161,-210,-248,-278,-280,-284,-284,-287,-298,-303,-311,-329,-350,-356,-371,-378,-379,-379,-379,-379,-379,-379,-373,-369,-366,-366,-366,-366,-366,-366,-366,-368,-372,-372,-372,-372,-372,-372,-372,-372,-372,-372,-372,-372,-372,-372,-372,-372,-372,-372,-372,-372,-372,-372,-372,-372,-372,-372,-372,-372,-372,-372,-372,-372,-372,-372,-372,-372,-372,-372,-372,-372,-372,-372,-372]","[0,0,0,0,0,0,0,0,0,0,0,0,0,0,0,0,0,0,0,0,0,0,0,0,0,0,0,0,0,0,0,0,0,0,0,0,0,0,0,0,0,0,0,0,0,0,0,0,0,0,0,0,0,0,0,0,0,0,0,0,0,0,0,0,0,0,0,0,0,0,0,0,0,0,0,0,0,0,0,0,0,0,0,0,0,0,0,0,0,0,0]","[0,0,0,0,0,0,0,0,0,0,0,0,0,0,0,0,0,0,0,0,0,0,0,0,0,0,0,0,0,0,0,0,0,0,0,0,0,0,0,0,0,0,0,0,0,0,0,0,0,0,0,0,0,0,0,0,0,0,0,0,0,0,0,0,0,0,0,0,0,0,0,0,0,0,0,0,0,0,0,0,0,0,0,0,0,0,0,0,0,0,0]","[0,0,0,0,0,0,0,0,0,0,0,0,0,0,0,0,0,0,0,0,0,0,0,0,0,0,0,0,0,0,0,0,0,0,0,0,0,0,0,0,0,0,0,0,0,0,0,0,0,0,0,0,0,0,0,0,0,0,0,0,0,0,0,0,0,0,0,0,0,0,0,0,0,0,0,0,0,0,0,0,0,0,0,0,0,0,0,0,0,0,0]","[0,0.02950000000001296,0.0338999999761711,0.04959999996424358,0.07959999996424472,0.08419999998810113,0.09950000000000614,0.12650000000002137,0.13289999997616064,0.16300000000001091,0.17959999996423903,0.18419999998809544,0.19950000000000045,0.21630000001192684,0.24609999996425813,0.2628000000119357,0.2670999999642447,0.2828999999761663,0.2995000000000232,0.3286999999880891,0.3329999999999984,0.36299999999999955,0.3675000000000068,0.39630000001193366,0.4128000000119414,0.426800000011923,0.4328000000119232,0.44939999997617974,0.4661999999880777,0.48280000001193457,0.4995000000000118,0.5161999999880891,0.5328000000119459,0.5493999999761741,0.5661999999881004,0.5829999999999984,0.5995000000000061,0.6161999999880834,0.6328999999761606,0.6495999999642379,0.6798000000119373,0.6963999999761654,0.7128000000119243,0.7170999999642618,0.7328000000119346,0.7495999999642606,0.7663000000119382,0.7830000000000155,0.8126999999880979,0.8168999999761581,0.8328999999761777,0.8495000000000061,0.8661999999880834,0.8828000000119403,0.8993999999761684,0.9163000000119439,0.9328000000119232,0.9496999999880984,0.9663999999761756,0.983199999988102,0.9995999999642606,1.0163999999761586,1.032800000011946,1.0496999999880927,1.06639999997617,1.0829999999999984,1.0995000000000061,1.1163999999761813,1.1326999999880911,1.1495000000000175,1.1663999999761643,1.1830000000000211,1.1995999999642493,1.2163000000119268,1.2328000000119346,1.2495000000000118,1.2663999999761586,1.2830999999642358,1.2993000000119252,1.3293999999761752,1.3333999999761659,1.349399999976157,1.3660000000000139,1.3828000000119403,1.399599999964238,1.416300000011944,1.4330999999642415,1.4496999999880984,1.4661999999880777,1.483099999964253,1.4995999999642606]",1,0,1,0,1,,,,
1QaZ-4,2025-06-18_15h06.59.790,GoFitts,2023.2.3,Win32,60.24096386,,,,,,"[121.89662837468663,-375.15924638594316]","[-197.23288782425786,341.6173826351478]",20,788.9315513,6.32,1,0.6629,0.2005,"[128,128,128,128,128,128,128,128,128,128,128,125,114,78,54,40,28,-14,-30,-50,-63,-86,-103,-118,-124,-129,-132,-136,-140,-140,-144,-146,-148,-151,-160,-169,-175,-193,-199,-202,-202,-203,-203,-203,-203,-203,-203,-203,-203,-203,-203,-203,-203,-203,-203,-203,-203,-203,-203,-203,-203,-203,-203,-203,-203,-203,-203,-203,-203,-203,-203,-203,-203,-203,-203,-203,-203,-203,-203,-203,-203,-203,-203]","[-372,-372,-372,-372,-372,-372,-372,-372,-372,-372,-372,-370,-360,-300,-248,-205,-169,-3,62,142,183,249,297,334,350,361,369,375,381,381,384,386,387,387,387,382,378,360,354,347,346,345,344,344,343,343,343,343,343,343,343,343,343,343,343,343,343,343,343,343,343,343,343,343,343,343,343,343,343,343,343,343,343,343,343,343,343,343,343,343,343,343,343]","[0,0,0,0,0,0,0,0,0,0,0,0,0,0,0,0,0,0,0,0,0,0,0,0,0,0,0,0,0,0,0,0,0,0,0,0,0,0,0,0,0,0,0,0,0,0,0,0,0,0,0,0,0,0,0,0,0,0,0,0,0,0,0,0,0,0,0,0,0,0,0,0,0,0,0,0,0,0,0,0,0,0,0]","[0,0,0,0,0,0,0,0,0,0,0,0,0,0,0,0,0,0,0,0,0,0,0,0,0,0,0,0,0,0,0,0,0,0,0,0,0,0,0,0,0,0,0,0,0,0,0,0,0,0,0,0,0,0,0,0,0,0,0,0,0,0,0,0,0,0,0,0,0,0,0,0,0,0,0,0,0,0,0,0,0,0,0]","[0,0,0,0,0,0,0,0,0,0,0,0,0,0,0,0,0,0,0,0,0,0,0,0,0,0,0,0,0,0,0,0,0,0,0,0,0,0,0,0,0,0,0,0,0,0,0,0,0,0,0,0,0,0,0,0,0,0,0,0,0,0,0,0,0,0,0,0,0,0,0,0,0,0,0,0,0,0,0,0,0,0,0]","[0,0.02940000003576415,0.03380000001192229,0.04940000003577438,0.06649999999999068,0.08320000004769668,0.10030000001191297,0.11640000003575324,0.13349999999999795,0.15000000000000568,0.16690000003575278,0.18370000004767917,0.20060000002385436,0.2306000000238555,0.24680000001191615,0.2632000000476751,0.2681000000238498,0.29650000000000887,0.3129000000357678,0.32980000001191456,0.3347000000476896,0.34950000000000614,0.3662000000476837,0.3830000000000098,0.3996000000238382,0.41630000001191547,0.43290000003577234,0.4496000000238496,0.47980000001192025,0.48440000003577666,0.49960000002383254,0.5162000000476894,0.5328000000119175,0.5494000000357744,0.5797000000476942,0.596600000023841,0.6016000000238364,0.6293000000119093,0.6459000000357662,0.6629000000357621,0.679900000035758,0.6846000000238348,0.6993000000119309,0.716200000047678,0.7329000000357553,0.7629000000357564,0.7675000000000125,0.782999999999987,0.7996000000238439,0.8163000000119212,0.8328000000119289,0.8494000000357573,0.8663000000119325,0.8830000000000098,0.8997000000476874,0.916100000023846,0.9329999999999927,0.9498000000119191,0.966400000035776,0.9827000000476858,0.9996000000238325,1.0161000000238403,1.0329000000357667,1.0494000000357744,1.0662000000476723,1.0829000000357496,1.099700000047676,1.1164000000357532,1.1331000000238305,1.1497000000476874,1.166200000047695,1.1829000000357723,1.213100000023843,1.2178000000119198,1.2329000000357553,1.2495000000000118,1.2663000000119098,1.282999999999987,1.2994000000357744,1.3162000000476723,1.3329000000357496,1.3495000000000061,1.3664000000357532]",2,0,2,0,1,,,,
1QaZ-4,2025-06-18_15h06.59.790,GoFitts,2023.2.3,Win32,60.24096386,,,,,,"[-197.23288782425786,341.6173826351478]","[263.9491236475089,-293.1452000011212]",20,788.9315513,6.32,1,0.683,0.0495,"[-203,-202,-197,-179,-103,-103,-44,13,131,131,155,203,203,221,230,237,238,241,242,248,252,253,258,258,261,262,265,268,272,274,276,281,282,283,283,283,283,283,283,283,277,273,272,272,272,272,272,272,272,272,272,272,272,272,272,272,272,272,272,272,272,272,272,272,272,272,272,272,272,272,272,272,272,272,272,272,272,272,272,272,269,268,268,268,268,268]","[343,341,336,313,218,218,146,72,-75,-75,-104,-164,-164,-191,-207,-218,-219,-223,-225,-230,-234,-236,-241,-243,-248,-251,-259,-268,-277,-286,-294,-311,-314,-317,-317,-317,-317,-317,-317,-315,-304,-296,-295,-294,-294,-294,-294,-294,-294,-294,-294,-294,-294,-294,-294,-294,-294,-294,-294,-294,-294,-294,-294,-294,-294,-294,-294,-294,-294,-294,-294,-294,-294,-294,-294,-294,-294,-294,-294,-294,-294,-294,-294,-294,-294,-294]","[0,0,0,0,0,0,0,0,0,0,0,0,0,0,0,0,0,0,0,0,0,0,0,0,0,0,0,0,0,0,0,0,0,0,0,0,0,0,0,0,0,0,0,0,0,0,0,0,0,0,0,0,0,0,0,0,0,0,0,0,0,0,0,0,0,0,0,0,0,0,0,0,0,0,0,0,0,0,0,0,0,0,0,0,0,0]","[0,0,0,0,0,0,0,0,0,0,0,0,0,0,0,0,0,0,0,0,0,0,0,0,0,0,0,0,0,0,0,0,0,0,0,0,0,0,0,0,0,0,0,0,0,0,0,0,0,0,0,0,0,0,0,0,0,0,0,0,0,0,0,0,0,0,0,0,0,0,0,0,0,0,0,0,0,0,0,0,0,0,0,0,0,0]","[0,0,0,0,0,0,0,0,0,0,0,0,0,0,0,0,0,0,0,0,0,0,0,0,0,0,0,0,0,0,0,0,0,0,0,0,0,0,0,0,0,0,0,0,0,0,0,0,0,0,0,0,0,0,0,0,0,0,0,0,0,0,0,0,0,0,0,0,0,0,0,0,0,0,0,0,0,0,0,0,0,0,0,0,0,0]","[0,0.029399999976163826,0.03439999997615928,0.04949999999999477,0.07949999999999591,0.08459999996424017,0.0993000000119082,0.11599999999998545,0.14619999998808453,0.15089999997616133,0.16599999999999682,0.19609999996421834,0.2009999999999934,0.21609999996422857,0.2325999999642363,0.2630999999642256,0.26809999996422107,0.2963000000119109,0.30109999996423653,0.3295999999642447,0.34619999998807316,0.3510999999642195,0.3795000000000073,0.3843999999761536,0.41280000001191297,0.4175999999642386,0.43259999996422493,0.4493000000119025,0.46589999997615905,0.48269999998808544,0.5128000000119073,0.5294999999999845,0.5341999999880613,0.563099999964237,0.5678999999761629,0.5826999999880798,0.599399999976157,0.6159999999999854,0.632599999964242,0.6493000000119196,0.6658999999761477,0.6829999999999927,0.7130999999642427,0.7179999999999893,0.7324999999999875,0.749099999964244,0.765899999976142,0.7824999999999989,0.7993999999761456,0.8158999999761534,0.8328000000119005,0.8490999999642384,0.8660999999642343,0.8826999999880627,0.8993000000119196,0.9160999999642172,0.9328000000119232,0.9491999999880818,0.9658000000119102,0.9824999999999875,0.9993999999761627,1.015899999976142,1.032500000000013,1.0493999999761598,1.066099999964237,1.082699999988094,1.0995000000000203,1.1161999999880976,1.1326999999880485,1.1494999999999749,1.1659999999999826,1.1826999999880599,1.199399999976137,1.215999999999994,1.2449999999999903,1.2498000000119163,1.2660000000000053,1.2826999999880826,1.2991999999880903,1.3158999999761676,1.3325999999642448,1.3493999999761712,1.365899999976179,1.3825999999642562,1.3993000000119054,1.4161999999880521]",3,0,3,0,1,,,,
1QaZ-4,2025-06-18_15h06.59.790,GoFitts,2023.2.3,Win32,60.24096386,,,,,,"[263.9491236475089,-293.1452000011212]","[-319.1295161989446,231.86116546030905]",20,788.9315513,6.32,1,1.0828,0.2327,"[268,268,268,268,268,268,268,268,268,268,268,268,266,258,249,232,213,157,105,54,-29,-29,-75,-103,-150,-176,-203,-218,-226,-228,-229,-231,-237,-243,-248,-260,-267,-270,-273,-277,-279,-284,-287,-291,-294,-296,-299,-301,-304,-305,-305,-305,-305,-305,-305,-305,-305,-305,-305,-305,-305,-305,-305,-305,-309,-313,-317,-317,-317,-317,-317,-317,-317,-318,-319,-319,-319,-320,-320,-320,-320,-320,-320,-320,-320,-320,-320,-320,-320,-320,-320,-320,-320,-320,-320,-320,-320,-320,-320,-320,-320,-320,-320,-320,-320,-320,-320,-320,-320]","[-294,-294,-294,-294,-294,-294,-294,-294,-294,-294,-294,-294,-293,-288,-283,-271,-259,-212,-160,-108,-32,-32,5,28,62,81,100,111,118,119,121,123,131,138,144,155,161,164,166,170,173,178,181,184,188,189,197,202,216,225,231,231,231,231,231,231,231,231,231,231,231,231,231,231,231,231,230,230,230,230,230,230,230,230,230,230,230,230,230,230,230,230,230,230,230,230,230,230,230,230,230,230,230,230,230,230,230,230,230,230,230,230,230,230,230,230,230,230,230]","[0,0,0,0,0,0,0,0,0,0,0,0,0,0,0,0,0,0,0,0,0,0,0,0,0,0,0,0,0,0,0,0,0,0,0,0,0,0,0,0,0,0,0,0,0,0,0,0,0,0,0,0,0,0,0,0,0,0,0,0,0,0,0,0,0,0,0,0,0,0,0,0,0,0,0,0,0,0,0,0,0,0,0,0,0,0,0,0,0,0,0,0,0,0,0,0,0,0,0,0,0,0,0,0,0,0,0,0,0]","[0,0,0,0,0,0,0,0,0,0,0,0,0,0,0,0,0,0,0,0,0,0,0,0,0,0,0,0,0,0,0,0,0,0,0,0,0,0,0,0,0,0,0,0,0,0,0,0,0,0,0,0,0,0,0,0,0,0,0,0,0,0,0,0,0,0,0,0,0,0,0,0,0,0,0,0,0,0,0,0,0,0,0,0,0,0,0,0,0,0,0,0,0,0,0,0,0,0,0,0,0,0,0,0,0,0,0,0,0]","[0,0,0,0,0,0,0,0,0,0,0,0,0,0,0,0,0,0,0,0,0,0,0,0,0,0,0,0,0,0,0,0,0,0,0,0,0,0,0,0,0,0,0,0,0,0,0,0,0,0,0,0,0,0,0,0,0,0,0,0,0,0,0,0,0,0,0,0,0,0,0,0,0,0,0,0,0,0,0,0,0,0,0,0,0,0,0,0,0,0,0,0,0,0,0,0,0,0,0,0,0,0,0,0,0,0,0,0,0]","[0,0.029500000000041382,0.03429999995233857,0.049000000000035016,0.06600000000003092,0.08269999998810817,0.09900000000004638,0.11600000000004229,0.1325999999642704,0.14919999998812727,0.16599999999999682,0.1823999999761554,0.1990999999642895,0.21589999997615905,0.23269999998808544,0.24919999998809317,0.2658999999761704,0.28239999997617815,0.2990999999642554,0.31569999998811227,0.34609999996428087,0.3508999999762068,0.36589999997619316,0.3825999999642704,0.3991999999881273,0.4157999999523554,0.43250000000000455,0.4491999999880818,0.46589999997615905,0.4825999999642363,0.49919999998809317,0.5157999999523213,0.5325000000000273,0.5491999999881045,0.5657999999523327,0.59619999998813,0.6118999999761741,0.6265999999642418,0.63250000000005,0.6491999999881273,0.6657999999523554,0.6823999999761554,0.6991999999880818,0.715899999976159,0.7325999999642363,0.7491999999880932,0.7792999999523431,0.7837999999523504,0.8125,0.8288999999761586,0.8457999999523622,0.8625999999642886,0.8672999999523654,0.8821999999881314,0.8991999999881273,0.9156999999880782,0.9325000000000045,0.9493999999762082,0.9660000000000082,0.9823999999761668,0.9992999999523136,1.0158999999761704,1.0325999999642477,1.0491999999881045,1.0657999999523327,1.0827999999523286,1.1128999999762073,1.1177999999523536,1.1325999999642704,1.1493999999761968,1.1656999999880782,1.1825000000000045,1.1990999999642895,1.215899999976159,1.232500000000016,1.2491999999880932,1.2658999999761704,1.2825000000000273,1.2990999999642554,1.3157999999523327,1.3322999999523404,1.3490000000000464,1.3658999999761932,1.3823999999762009,1.3990999999642781,1.4157999999523554,1.4323999999761554,1.4493999999762082,1.4656999999880895,1.4826999999880854,1.4990000000000236,1.5155999999642518,1.5323999999761782,1.5488999999761859,1.5655999999642631,1.5823999999761895,1.5990000000000464,1.6158999999761932,1.6323999999762009,1.6488999999762086,1.6657999999523554,1.6825999999642818,1.6990999999642895,1.715899999976159,1.7322999999523176,1.749099999964244,1.7658999999761704,1.7825999999642477,1.7991999999881045]",4,0,4,0,1,,,,
1QaZ-4,2025-06-18_15h06.59.790,GoFitts,2023.2.3,Win32,60.24096386,,,,,,"[-319.1295161989446,231.86116546030905]","[360.362417539167,-160.44368539556908]",20,788.9315513,6.32,1,0.9132,0.1328,"[-320,-320,-320,-320,-320,-320,-320,-318,-305,-289,-279,-267,-267,-237,-222,-182,-126,-69,34,104,132,237,323,365,383,401,410,410,410,410,410,410,410,410,410,410,407,402,390,384,378,378,378,378,378,378,380,381,381,381,381,381,380,377,367,362,362,362,362,362,362,362,362,362,362,362,362,362,362,362,362,362,362,362,362,362,362,362,362,362,362,362,362,362,362,362,362,362,362,362,362,362,362,362,362,362,362,362]","[230,230,230,230,230,230,230,229,221,210,203,193,192,166,155,127,90,57,1,-32,-43,-80,-110,-126,-134,-143,-148,-149,-149,-149,-149,-149,-149,-149,-149,-149,-149,-149,-152,-153,-153,-153,-153,-153,-153,-153,-153,-153,-153,-153,-153,-153,-153,-153,-155,-155,-155,-155,-155,-155,-155,-155,-155,-155,-155,-155,-155,-155,-155,-155,-155,-155,-155,-155,-155,-155,-155,-155,-155,-155,-155,-155,-155,-155,-155,-155,-155,-155,-155,-155,-155,-155,-155,-155,-155,-155,-155,-155]","[0,0,0,0,0,0,0,0,0,0,0,0,0,0,0,0,0,0,0,0,0,0,0,0,0,0,0,0,0,0,0,0,0,0,0,0,0,0,0,0,0,0,0,0,0,0,0,0,0,0,0,0,0,0,0,0,0,0,0,0,0,0,0,0,0,0,0,0,0,0,0,0,0,0,0,0,0,0,0,0,0,0,0,0,0,0,0,0,0,0,0,0,0,0,0,0,0,0]","[0,0,0,0,0,0,0,0,0,0,0,0,0,0,0,0,0,0,0,0,0,0,0,0,0,0,0,0,0,0,0,0,0,0,0,0,0,0,0,0,0,0,0,0,0,0,0,0,0,0,0,0,0,0,0,0,0,0,0,0,0,0,0,0,0,0,0,0,0,0,0,0,0,0,0,0,0,0,0,0,0,0,0,0,0,0,0,0,0,0,0,0,0,0,0,0,0,0]","[0,0,0,0,0,0,0,0,0,0,0,0,0,0,0,0,0,0,0,0,0,0,0,0,0,0,0,0,0,0,0,0,0,0,0,0,0,0,0,0,0,0,0,0,0,0,0,0,0,0,0,0,0,0,0,0,0,0,0,0,0,0,0,0,0,0,0,0,0,0,0,0,0,0,0,0,0,0,0,0,0,0,0,0,0,0,0,0,0,0,0,0,0,0,0,0,0,0]","[0,0.029399999976192248,0.03389999997614268,0.04950000000002319,0.06600000000003092,0.08280000001195731,0.09939999997618543,0.11619999998811181,0.13280000001191183,0.1493999999761968,0.16599999999999682,0.18259999996422493,0.19930000001193093,0.21609999996422857,0.23280000001193457,0.2493999999761627,0.26609999996423994,0.2825999999642477,0.29939999997617406,0.3160000000000309,0.3326999999881082,0.3493999999761854,0.37939999997615814,0.396000000000015,0.4005000000000223,0.41609999996427405,0.44630000001194503,0.46309999996424267,0.47950000000003,0.4840999999642577,0.4993000000119423,0.5160000000000196,0.5325000000000273,0.5491999999881045,0.5660000000000309,0.582599999964259,0.5991999999881159,0.6158999999761932,0.6461999999880845,0.6626999999880923,0.6793000000119491,0.696300000011945,0.7008999999761727,0.715899999976159,0.7328000000119346,0.7493000000119423,0.7660000000000196,0.7828000000119459,0.7991999999881045,0.8160000000000309,0.8328999999761777,0.8495000000000346,0.8658999999761932,0.8826999999880627,0.9131999999880804,0.9293999999761695,0.9338000000119564,0.9495999999642208,0.9660999999642286,0.982899999976155,0.9991999999880932,1.0158999999761704,1.0323999999761782,1.0490999999642554,1.066000000000031,1.0830000000000268,1.099599999964255,1.1161999999881118,1.1326999999880627,1.149499999999989,1.1661999999880663,1.182699999988074,1.1995000000000005,1.2160999999642286,1.2326999999880854,1.2493000000119423,1.266199999988089,1.2828999999761663,1.2995000000000232,1.3161999999881004,1.3326999999881082,1.349599999964255,1.3660999999642627,1.382899999976189,1.3993999999761968,1.4159999999999968,1.432699999988074,1.4623000000119077,1.4666999999880659,1.482500000000016,1.4993999999761627,1.5160000000000196,1.5325999999642477,1.5493000000119537,1.566000000000031,1.582599999964259,1.599599999964255,1.616300000011904]",5,0,5,0,1,,,,
1QaZ-4,2025-06-18_15h06.59.790,GoFitts,2023.2.3,Win32,60.24096386,,,,,,"[360.362417539167,-160.44368539556908]","[-385.8457520221955,82.01404638482185]",20,788.9315513,6.32,1,0.7461,0.2491,"[362,362,362,362,362,362,362,362,362,362,362,362,362,362,361,341,238,238,9,-37,-146,-269,-291,-347,-358,-368,-377,-377,-377,-377,-377,-377,-377,-377,-377,-377,-374,-369,-369,-369,-369,-370,-371,-373,-377,-380,-381,-382,-382,-382,-382,-382,-382,-382,-382,-382,-382,-382,-382,-382,-382,-382,-382,-382,-382,-382,-382,-382,-382,-382,-382,-382,-382,-382,-382,-382,-382,-382,-382,-382,-382,-382,-382,-382,-382,-382,-382,-382,-382]","[-155,-155,-155,-155,-155,-155,-155,-155,-155,-155,-155,-155,-155,-155,-155,-153,-132,-132,-76,-60,-24,17,23,38,41,44,47,47,47,47,47,47,47,47,48,51,58,78,80,83,83,84,84,84,84,84,84,84,84,84,84,84,84,84,84,84,84,84,84,84,84,84,84,84,84,84,84,84,84,84,84,84,84,84,84,84,84,84,84,84,84,84,84,84,84,84,84,84,84]","[0,0,0,0,0,0,0,0,0,0,0,0,0,0,0,0,0,0,0,0,0,0,0,0,0,0,0,0,0,0,0,0,0,0,0,0,0,0,0,0,0,0,0,0,0,0,0,0,0,0,0,0,0,0,0,0,0,0,0,0,0,0,0,0,0,0,0,0,0,0,0,0,0,0,0,0,0,0,0,0,0,0,0,0,0,0,0,0,0]","[0,0,0,0,0,0,0,0,0,0,0,0,0,0,0,0,0,0,0,0,0,0,0,0,0,0,0,0,0,0,0,0,0,0,0,0,0,0,0,0,0,0,0,0,0,0,0,0,0,0,0,0,0,0,0,0,0,0,0,0,0,0,0,0,0,0,0,0,0,0,0,0,0,0,0,0,0,0,0,0,0,0,0,0,0,0,0,0,0]","[0,0,0,0,0,0,0,0,0,0,0,0,0,0,0,0,0,0,0,0,0,0,0,0,0,0,0,0,0,0,0,0,0,0,0,0,0,0,0,0,0,0,0,0,0,0,0,0,0,0,0,0,0,0,0,0,0,0,0,0,0,0,0,0,0,0,0,0,0,0,0,0,0,0,0,0,0,0,0,0,0,0,0,0,0,0,0,0,0]","[0,0.02949999999998454,0.04590000003577188,0.050499999999999545,0.06599999999997408,0.08269999998805133,0.09910000002383867,0.11599999999998545,0.1326999999880627,0.14919999998807043,0.16560000002385777,0.18230000001193503,0.19900000000001228,0.21569999998808953,0.23240000003573869,0.24910000002381594,0.27899999999999636,0.283199999988085,0.3125,0.3166999999880886,0.3324999999999818,0.36250000000001137,0.3668000000119491,0.39619999998808453,0.40040000003574505,0.41569999998807816,0.44590000003574914,0.46249999999997726,0.46690000003576415,0.4824000000357387,0.49919999998809317,0.5161000000238687,0.5325000000000273,0.5491000000238273,0.5658000000119046,0.5826000000238309,0.5991000000238387,0.6281999999880554,0.6458000000119455,0.6625000000000227,0.6669000000357528,0.6825000000000045,0.7126000000238264,0.7169999999999845,0.74610000002383,0.7626000000238378,0.7669000000357755,0.7963000000119109,0.8009000000357673,0.8159000000357537,0.8326000000238309,0.8494000000357573,0.8658000000119159,0.8823000000119237,0.8990000000000009,0.9158000000119273,0.9324000000357842,0.9493000000119309,0.9660000000000082,0.9826999999880854,0.9991000000238159,1.0158000000118932,1.0325000000000273,1.049400000035746,1.065999999999974,1.0826999999880513,1.0989000000357692,1.1265000000000214,1.1324999999999932,1.149000000000001,1.1659000000357764,1.1824000000357842,1.199300000011931,1.2158000000119387,1.2326999999880854,1.2493000000119423,1.2659000000357423,1.2826000000238196,1.299400000035746,1.3161000000238232,1.3324000000357614,1.3491000000238387,1.3659999999999854,1.3824000000357728,1.399000000000001,1.4156999999880782,1.432699999988074,1.449300000011931,1.4659000000357878]",6,0,6,0,1,,,,
1QaZ-4,2025-06-18_15h06.59.790,GoFitts,2023.2.3,Win32,60.24096386,,,,,,"[-385.8457520221955,82.01404638482185]","[394.4657756485159,0]",20,788.9315513,6.32,1,0.7965,0.0294,"[-382,-375,-370,-360,-315,-191,-151,-37,5,98,126,151,163,186,194,226,248,260,309,329,347,360,360,360,360,360,360,360,360,360,371,384,411,413,417,417,417,417,417,417,417,417,417,411,406,405,400,398,396,396,395,395,395,395,395,395,395,395,395,395,395,395,395,395,395,395,395,395,395,395,395,395,395,395,395,395,395,395,395,395,395,395,395,395,395,395,395,395,395,395,395]","[84,83,82,82,74,53,44,23,17,9,7,7,7,7,7,7,8,10,12,13,14,15,15,15,15,15,15,15,15,15,9,-1,-18,-20,-22,-22,-22,-22,-22,-22,-22,-22,-22,-18,-15,-13,-11,-9,-8,-7,-7,-7,-7,-7,-7,-7,-7,-7,-7,-7,-7,-7,-7,-7,-7,-7,-7,-7,-7,-7,-7,-7,-7,-7,-7,-7,-7,-7,-7,-7,-7,-7,-7,-7,-7,-7,-7,-7,-7,-7,-7]","[0,0,0,0,0,0,0,0,0,0,0,0,0,0,0,0,0,0,0,0,0,0,0,0,0,0,0,0,0,0,0,0,0,0,0,0,0,0,0,0,0,0,0,0,0,0,0,0,0,0,0,0,0,0,0,0,0,0,0,0,0,0,0,0,0,0,0,0,0,0,0,0,0,0,0,0,0,0,0,0,0,0,0,0,0,0,0,0,0,0,0]","[0,0,0,0,0,0,0,0,0,0,0,0,0,0,0,0,0,0,0,0,0,0,0,0,0,0,0,0,0,0,0,0,0,0,0,0,0,0,0,0,0,0,0,0,0,0,0,0,0,0,0,0,0,0,0,0,0,0,0,0,0,0,0,0,0,0,0,0,0,0,0,0,0,0,0,0,0,0,0,0,0,0,0,0,0,0,0,0,0,0,0]","[0,0,0,0,0,0,0,0,0,0,0,0,0,0,0,0,0,0,0,0,0,0,0,0,0,0,0,0,0,0,0,0,0,0,0,0,0,0,0,0,0,0,0,0,0,0,0,0,0,0,0,0,0,0,0,0,0,0,0,0,0,0,0,0,0,0,0,0,0,0,0,0,0,0,0,0,0,0,0,0,0,0,0,0,0,0,0,0,0,0,0]","[0,0.029399999976135405,0.03369999998807316,0.049299999952324924,0.06629999995232083,0.09619999998807316,0.1005999999642313,0.12950000000000728,0.13379999995231628,0.16279999995231265,0.1794999999999618,0.19629999995231628,0.20099999999996498,0.2292999999522749,0.2338999999761313,0.2628999999761277,0.27949999999998454,0.2839999999999918,0.3127999999522899,0.3173999999761463,0.33269999998805133,0.3627999999523013,0.3797999999522972,0.38450000000000273,0.3995999999642095,0.4160999999642172,0.4328999999761436,0.4492999999523022,0.4661999999880777,0.48269999998808544,0.4995000000000118,0.5160999999642399,0.5461999999880618,0.5503999999761504,0.5796999999880654,0.5844999999999914,0.5992999999522794,0.6160999999642058,0.6328999999761322,0.6492999999522908,0.6659999999999968,0.6827999999522945,0.6993999999761513,0.715899999976159,0.7459999999999809,0.7502999999522899,0.7796999999880541,0.7964999999999804,0.8126999999880695,0.8293999999761468,0.8337999999523049,0.8629999999999995,0.8681999999880645,0.8826999999880627,0.8994999999999891,0.9159999999999968,0.9325999999642249,0.9491999999880818,0.9661999999880777,0.9826999999880854,0.9992999999523136,1.016199999988089,1.0329999999999586,1.0493999999761172,1.0662999999523208,1.0826999999880513,1.099599999964198,1.1160999999642058,1.1326999999880627,1.1492999999522908,1.1661999999880663,1.182699999988074,1.1993999999761513,1.2160000000000082,1.232899999976155,1.2493999999761627,1.2662999999523095,1.2827999999523172,1.2996999999880927,1.3161999999880436,1.3463999999761427,1.350999999999999,1.366199999988055,1.3829999999999814,1.3992999999522908,1.4158999999761477,1.432599999964225,1.4493999999761513,1.465899999976159,1.4831999999880736,1.4998999999761509]",7,0,7,0,1,,,,
1QaZ-4,2025-06-18_15h06.59.790,GoFitts,2023.2.3,Win32,60.24096386,,,,,,"[394.4657756485159,0]","[-385.8457520221955,-82.01404638482175]",20,788.9315513,6.32,1,0.8986,0.0486,"[395,395,394,384,352,352,330,278,278,248,150,129,68,40,-7,-22,-84,-115,-135,-164,-186,-200,-208,-213,-217,-223,-235,-252,-273,-294,-305,-311,-312,-318,-328,-329,-337,-343,-348,-350,-353,-354,-354,-355,-356,-358,-362,-369,-373,-376,-376,-376,-376,-376,-381,-383,-383,-383,-383,-383,-383,-383,-383,-383,-383,-383,-383,-384,-385,-386,-386,-386,-386,-386,-386,-386,-386,-386,-386,-386,-386,-386,-386,-386,-386,-386,-386,-386,-386,-386,-386,-381,-374,-354,-342,-282,-282,-231]","[-7,-7,-7,-7,-10,-10,-12,-21,-21,-28,-50,-54,-62,-64,-65,-65,-68,-69,-71,-73,-75,-76,-76,-76,-76,-76,-76,-76,-76,-75,-74,-73,-73,-72,-71,-71,-71,-71,-71,-71,-71,-71,-71,-71,-71,-71,-71,-72,-72,-72,-72,-72,-72,-72,-74,-76,-76,-76,-76,-76,-76,-76,-76,-76,-76,-76,-76,-76,-76,-76,-76,-76,-76,-76,-76,-76,-76,-76,-76,-76,-76,-76,-76,-76,-76,-76,-76,-76,-76,-76,-76,-76,-76,-71,-67,-42,-42,-21]","[0,0,0,0,0,0,0,0,0,0,0,0,0,0,0,0,0,0,0,0,0,0,0,0,0,0,0,0,0,0,0,0,0,0,0,0,0,0,0,0,0,0,0,0,0,0,0,0,0,0,0,0,0,0,0,0,0,0,0,0,0,0,0,0,0,0,0,0,0,0,0,0,0,0,0,0,0,0,0,0,0,0,0,0,0,0,0,0,0,0,0,0,0,0,0,0,0,0]","[0,0,0,0,0,0,0,0,0,0,0,0,0,0,0,0,0,0,0,0,0,0,0,0,0,0,0,0,0,0,0,0,0,0,0,0,0,0,0,0,0,0,0,0,0,0,0,0,0,0,0,0,0,0,0,0,0,0,0,0,0,0,0,0,0,0,0,0,0,0,0,0,0,0,0,0,0,0,0,0,0,0,0,0,0,0,0,0,0,0,0,0,0,0,0,0,0,0]","[0,0,0,0,0,0,0,0,0,0,0,0,0,0,0,0,0,0,0,0,0,0,0,0,0,0,0,0,0,0,0,0,0,0,0,0,0,0,0,0,0,0,0,0,0,0,0,0,0,0,0,0,0,0,0,0,0,0,0,0,0,0,0,0,0,0,0,0,0,0,0,0,0,0,0,0,0,0,0,0,0,0,0,0,0,0,0,0,0,0,0,0,0,0,0,0,0,0]","[0,0.028699999988077707,0.03459999996425722,0.04869999998811636,0.07909999996428496,0.08550000000002456,0.0985999999642786,0.12889999997616997,0.13459999996427996,0.14850000000001273,0.17880000001196095,0.1840999999642463,0.21180000001191956,0.2283000000119273,0.24509999996428178,0.25019999998812636,0.2786999999880777,0.29519999998808544,0.30009999996423176,0.31489999997620544,0.331699999988075,0.34830000001193184,0.3650999999642295,0.38169999998808635,0.3981999999880941,0.41500000000002046,0.4315999999642486,0.4483000000119546,0.46500000000003183,0.4816999999881091,0.49839999997618634,0.5148999999761941,0.5316999999881205,0.5483000000119205,0.5648999999762054,0.5815999999642827,0.5983000000119318,0.6150000000000091,0.6315999999642372,0.6483999999761636,0.6650999999642409,0.6815999999642486,0.6981999999881054,0.7150000000000318,0.7316999999881091,0.748300000011966,0.7648999999761941,0.7815999999642713,0.7983000000119205,0.8285000000000196,0.8333999999761659,0.8481999999880827,0.8650000000000091,0.8813999999761677,0.8986999999880823,0.9285000000000423,0.9331999999881191,0.9480999999642563,0.9650000000000318,0.98159999996426,0.9985000000000355,1.014899999976194,1.0316999999881205,1.048099999964279,1.065099999964275,1.081699999988075,1.0983999999761522,1.115000000000009,1.1316999999880863,1.1618999999761854,1.1785000000000423,1.183199999988119,1.1983000000119546,1.2150000000000318,1.231699999988109,1.2480000000000473,1.2650000000000432,1.281499999999994,1.2983000000119205,1.315099999964275,1.3315999999642827,1.3480000000000132,1.365000000000009,1.3815000000000168,1.3983999999761636,1.414800000011951,1.4315000000000282,1.4481999999881054,1.4648999999761827,1.48159999996426,1.498300000011966,1.514899999976194,1.53189999997619,1.5620000000000118,1.5671999999880768,1.5950999999642477,1.5998999999761736,1.6150999999642295]",8,0,8,0,1,,,,
1QaZ-4,2025-06-18_15h06.59.790,GoFitts,2023.2.3,Win32,60.24096386,,,,,,"[-385.8457520221955,-82.01404638482175]","[360.362417539167,160.44368539556908]",20,788.9315513,6.32,1,0.6495,0.4133,"[-231,-98,-35,-3,118,118,150,197,238,247,278,300,315,316,321,322,323,326,333,335,335,336,346,356,374,375,376,376,376,376,376,376,376,376,376,376,375,375,374,369,365,365,365,365,365,365,365,365,365,365,365,365,365,365,365,365,365,365,365,365,365,365,365,365,365,365,365,365,365,365,365,364,339,312,297,261,242,202,176,158,87,87,57,21]","[-21,21,37,46,76,76,83,95,106,108,114,118,122,122,123,123,124,126,131,135,135,137,147,154,162,162,162,162,162,162,162,162,162,162,162,162,162,162,162,162,162,162,162,162,162,162,162,162,162,162,162,162,162,162,162,162,162,162,162,162,162,162,162,162,162,162,162,162,162,162,162,162,153,134,124,100,84,52,30,16,-42,-42,-66,-93]","[0,0,0,0,0,0,0,0,0,0,0,0,0,0,0,0,0,0,0,0,0,0,0,0,0,0,0,0,0,0,0,0,0,0,0,0,0,0,0,0,0,0,0,0,0,0,0,0,0,0,0,0,0,0,0,0,0,0,0,0,0,0,0,0,0,0,0,0,0,0,0,0,0,0,0,0,0,0,0,0,0,0,0,0]","[0,0,0,0,0,0,0,0,0,0,0,0,0,0,0,0,0,0,0,0,0,0,0,0,0,0,0,0,0,0,0,0,0,0,0,0,0,0,0,0,0,0,0,0,0,0,0,0,0,0,0,0,0,0,0,0,0,0,0,0,0,0,0,0,0,0,0,0,0,0,0,0,0,0,0,0,0,0,0,0,0,0,0,0]","[0,0,0,0,0,0,0,0,0,0,0,0,0,0,0,0,0,0,0,0,0,0,0,0,0,0,0,0,0,0,0,0,0,0,0,0,0,0,0,0,0,0,0,0,0,0,0,0,0,0,0,0,0,0,0,0,0,0,0,0,0,0,0,0,0,0,0,0,0,0,0,0,0,0,0,0,0,0,0,0,0,0,0,0]","[0,0.02989999997612358,0.04619999998806179,0.05130000001190638,0.07949999999999591,0.08519999998804906,0.09919999998805906,0.11599999999998545,0.1326999999880627,0.14919999998807043,0.16599999999999682,0.18269999998807407,0.1993000000118741,0.21599999999995134,0.23249999999995907,0.24930000001188546,0.2658999999761136,0.2826000000238196,0.31289999997613904,0.3293999999761468,0.3341999999880727,0.3493000000119082,0.3658999999761363,0.3826000000238423,0.4133000000118727,0.4294999999999618,0.43430000001188773,0.4621000000238382,0.46719999998805406,0.4826999999880286,0.49930000001188546,0.5158999999761136,0.53269999998804,0.5493000000118968,0.5658000000119046,0.5824999999999818,0.5993000000119082,0.6158000000119159,0.6326000000238423,0.6494999999999891,0.6796000000238109,0.6843999999761081,0.6991999999880818,0.7161999999880777,0.7326000000238082,0.7493000000118855,0.7659999999999627,0.7824999999999704,0.7991000000238273,0.8159999999999741,0.8326000000238309,0.8491000000238387,0.8658000000119159,0.8826000000238423,0.8991000000237932,0.9161000000237891,0.9328000000119232,0.9493999999761513,0.9658000000118818,0.9826999999880286,0.9993999999761058,1.0158999999761136,1.0324999999999704,1.0493000000118968,1.065999999999974,1.0826999999880513,1.0993999999761286,1.1161000000238346,1.1326999999880627,1.1493000000119196,1.166100000023789,1.1826000000237968,1.2129999999999654,1.2294999999999732,1.2344999999999686,1.2629999999999768,1.2678000000119027,1.2963999999761313,1.3128000000119187,1.3179999999999836,1.346100000023796,1.3508000000118727,1.3658999999761363,1.3826999999880627]",9,0,9,0,1,,,,
1QaZ-4,2025-06-18_15h06.59.790,GoFitts,2023.2.3,Win32,60.24096386,,,,,,"[360.362417539167,160.44368539556908]","[-319.1295161989447,-231.86116546030897]",20,788.9315513,6.32,1,0.5827,,"[21,-33,-33,-60,-102,-126,-144,-161,-161,-174,-197,-203,-212,-217,-223,-243,-263,-269,-290,-296,-300,-300,-301,-301,-302,-303,-303,-304,-304,-305,-305,-305,-306,-309,-311,-315,-316,-317,-317,-317,-317,-317,-317,-318,-319,-319,-320,-320,-320,-320,-320,-320,-320,-320,-320,-320,-320,-320,-320,-320,-320,-320,-320,-320,-320,-320,-320,-320,-320,-320,-320,-320,-320,-320,-320,-320,-320,-320,-315]","[-93,-135,-135,-154,-183,-199,-212,-225,-225,-233,-244,-246,-248,-248,-249,-247,-241,-240,-239,-239,-239,-239,-239,-239,-239,-239,-239,-239,-239,-239,-239,-239,-239,-239,-238,-237,-236,-236,-236,-236,-236,-236,-236,-235,-235,-235,-235,-234,-234,-234,-234,-234,-234,-234,-234,-234,-234,-234,-234,-234,-234,-234,-234,-234,-234,-234,-234,-234,-234,-234,-234,-234,-234,-234,-234,-234,-233,-232,-227]","[0,0,0,0,0,0,0,0,0,0,0,0,0,0,0,0,0,0,0,0,0,0,0,0,0,0,0,0,0,0,0,0,0,0,0,0,0,0,0,0,0,0,0,0,0,0,0,0,0,0,0,0,0,0,0,0,0,0,0,0,0,0,0,0,0,0,0,0,0,0,0,0,0,0,0,0,0,0,0]","[0,0,0,0,0,0,0,0,0,0,0,0,0,0,0,0,0,0,0,0,0,0,0,0,0,0,0,0,0,0,0,0,0,0,0,0,0,0,0,0,0,0,0,0,0,0,0,0,0,0,0,0,0,0,0,0,0,0,0,0,0,0,0,0,0,0,0,0,0,0,0,0,0,0,0,0,0,0,0]","[0,0,0,0,0,0,0,0,0,0,0,0,0,0,0,0,0,0,0,0,0,0,0,0,0,0,0,0,0,0,0,0,0,0,0,0,0,0,0,0,0,0,0,0,0,0,0,0,0,0,0,0,0,0,0,0,0,0,0,0,0,0,0,0,0,0,0,0,0,0,0,0,0,0,0,0,0,0,0]","[0,0.02959999996426177,0.03449999999997999,0.049199999988047693,0.07919999998807725,0.0958999999761545,0.11259999996423176,0.12930000001193775,0.13349999999996953,0.1490999999642213,0.1791999999881,0.18339999997613177,0.21239999997612813,0.22939999997618088,0.2336999999880618,0.2623999999761395,0.2791999999880659,0.28369999998807316,0.3125999999642204,0.32919999998807725,0.34559999996423585,0.3498000000118964,0.36619999998805497,0.3824999999999932,0.39930000001191956,0.4158000000119273,0.4323999999761554,0.4490000000000123,0.46589999997615905,0.4825000000000159,0.4993999999761627,0.5158000000118932,0.5324999999999704,0.5490999999642554,0.5658999999761818,0.5826999999880513,0.6126999999880809,0.617099999964239,0.632399999976144,0.6490999999642213,0.6656999999880782,0.6823999999761554,0.6993000000119309,0.7158000000119387,0.7323999999761668,0.7493000000119423,0.7658000000118932,0.7825999999642477,0.7993000000118968,0.8159999999999741,0.8324999999999818,0.8493000000119082,0.8656999999880668,0.8825999999642136,0.8993000000119196,0.9160999999642172,0.9323999999761554,0.9490000000000123,0.9660000000000082,0.9823000000118896,0.9990000000000236,1.0158999999761704,1.0325999999642477,1.0491999999880477,1.0660999999642513,1.0823999999761327,1.0993000000119082,1.1158999999761363,1.1324999999999932,1.149000000000001,1.165599999964229,1.182199999988086,1.1990000000000123,1.2156999999880895,1.2323000000118896,1.2490000000000236,1.2788999999761472,1.2926999999880877,1.3123000000119305]",10,0,10,0,1,,,,
1QaZ-4,2025-06-18_15h06.59.790,GoFitts,2023.2.3,Win32,60.24096386,,,,,,"[-319.1295161989447,-231.86116546030897]","[263.94912364750877,293.1452000011213]",20,788.9315513,6.32,1,0.7536,0.0365,"[-315,-314,-314,-300,-284,-274,-216,-203,-189,-172,-121,-103,-51,-51,-34,-11,-5,12,18,59,59,72,87,103,116,142,142,148,159,176,195,216,228,228,239,254,260,264,264,264,264,264,264,264,265,265,265,265,265,265,265,265,265,265,265,265,265,265,265,265,265,265,265,265,265,265,265,265,265,265,265,265,265,265,265,265,265,265,265,265,265,261,244,244,234,221,204,191,191,171]","[-227,-226,-226,-209,-194,-184,-126,-114,-103,-86,-42,-24,28,28,45,77,87,110,118,148,148,156,164,172,179,195,195,199,206,216,229,243,251,251,259,268,273,278,278,278,279,279,279,280,283,283,284,284,284,286,287,287,290,291,291,291,291,291,291,291,291,291,291,291,291,291,291,291,291,291,291,291,291,291,291,291,291,291,291,291,291,282,259,259,247,231,212,194,194,168]","[0,0,0,0,0,0,0,0,0,0,0,0,0,0,0,0,0,0,0,0,0,0,0,0,0,0,0,0,0,0,0,0,0,0,0,0,0,0,0,0,0,0,0,0,0,0,0,0,0,0,0,0,0,0,0,0,0,0,0,0,0,0,0,0,0,0,0,0,0,0,0,0,0,0,0,0,0,0,0,0,0,0,0,0,0,0,0,0,0,0]","[0,0,0,0,0,0,0,0,0,0,0,0,0,0,0,0,0,0,0,0,0,0,0,0,0,0,0,0,0,0,0,0,0,0,0,0,0,0,0,0,0,0,0,0,0,0,0,0,0,0,0,0,0,0,0,0,0,0,0,0,0,0,0,0,0,0,0,0,0,0,0,0,0,0,0,0,0,0,0,0,0,0,0,0,0,0,0,0,0,0]","[0,0,0,0,0,0,0,0,0,0,0,0,0,0,0,0,0,0,0,0,0,0,0,0,0,0,0,0,0,0,0,0,0,0,0,0,0,0,0,0,0,0,0,0,0,0,0,0,0,0,0,0,0,0,0,0,0,0,0,0,0,0,0,0,0,0,0,0,0,0,0,0,0,0,0,0,0,0,0,0,0,0,0,0,0,0,0,0,0,0]","[0,0.01630000001193821,0.0204000000357496,0.03649999999998954,0.06640000003579871,0.07110000002387551,0.09970000004767599,0.11640000003575324,0.1331000000238305,0.13740000003576824,0.16660000002383413,0.1711000000238414,0.19999999999998863,0.20430000001192639,0.21990000003575005,0.24980000001193048,0.25410000002386823,0.2833000000119341,0.28760000002387187,0.31670000004771737,0.3211000000238755,0.3365000000000009,0.3532000000477069,0.37000000000000455,0.3865000000000123,0.4166000000238341,0.42080000001192275,0.43650000000002365,0.45330000001195003,0.46980000001195776,0.5,0.516700000047706,0.5331000000238646,0.537200000047676,0.5531000000238464,0.5699000000357728,0.58660000002385,0.6166000000238796,0.6333000000119569,0.6376000000238378,0.6533000000119387,0.6803000000119255,0.6865000000000236,0.70330000001195,0.7330000000000041,0.7371000000238723,0.7536000000238801,0.7834000000357833,0.78810000002386,0.8033000000119159,0.8198000000119237,0.8368000000119196,0.8532000000477069,0.8834000000357491,0.8880000000000337,0.9032000000477183,0.9199000000357955,0.9367000000477219,0.9532000000476728,0.9698000000119578,0.986500000000035,1.0032000000476842,1.020100000023831,1.0364999999999895,1.0532000000476955,1.0701000000238423,1.08660000002385,1.1031000000238578,1.119800000011935,1.1501000000238832,1.15480000001196,1.1699000000357955,1.1864000000358033,1.20330000001195,1.2198000000119578,1.2367000000476764,1.2534000000357537,1.270100000023831,1.2864999999999895,1.303300000011916,1.3198000000119237,1.3368000000119196,1.3666000000238796,1.3709000000357605,1.3865000000000123,1.4033000000119387,1.4334000000357605,1.4499000000357682,1.4541000000238569,1.4805000000000064]",11,0,11,0,1,,,,
1QaZ-4,2025-06-18_15h06.59.790,GoFitts,2023.2.3,Win32,60.24096386,,,,,,"[263.94912364750877,293.1452000011213]","[-197.2328878242581,-341.61738263514764]",20,788.9315513,6.32,1,0.7356,0.5023,"[171,139,120,120,80,58,58,38,11,-37,-52,-52,-69,-79,-101,-114,-119,-134,-147,-157,-167,-170,-170,-180,-187,-188,-189,-190,-191,-194,-201,-203,-203,-203,-203,-203,-203,-203,-203,-203,-203,-203,-203,-203,-202,-201,-201,-200,-200,-200,-200,-200,-200,-200,-200,-200,-200,-200,-200,-200,-200,-200,-200,-200,-200,-200,-200,-200,-200,-200,-200,-200,-200,-200,-200,-200,-200,-200,-200,-200,-200,-200,-200,-195,-172,-172,-153,-101]","[168,123,95,95,36,1,1,-28,-66,-134,-154,-154,-177,-189,-218,-237,-241,-258,-272,-282,-293,-295,-295,-307,-318,-321,-323,-327,-331,-338,-353,-357,-357,-357,-357,-357,-357,-357,-357,-357,-357,-357,-357,-353,-345,-341,-340,-338,-338,-338,-338,-338,-338,-338,-338,-338,-338,-338,-338,-338,-338,-338,-338,-338,-338,-338,-338,-338,-338,-338,-338,-338,-338,-338,-338,-338,-338,-338,-338,-338,-338,-338,-338,-328,-262,-262,-187,-26]","[0,0,0,0,0,0,0,0,0,0,0,0,0,0,0,0,0,0,0,0,0,0,0,0,0,0,0,0,0,0,0,0,0,0,0,0,0,0,0,0,0,0,0,0,0,0,0,0,0,0,0,0,0,0,0,0,0,0,0,0,0,0,0,0,0,0,0,0,0,0,0,0,0,0,0,0,0,0,0,0,0,0,0,0,0,0,0,0]","[0,0,0,0,0,0,0,0,0,0,0,0,0,0,0,0,0,0,0,0,0,0,0,0,0,0,0,0,0,0,0,0,0,0,0,0,0,0,0,0,0,0,0,0,0,0,0,0,0,0,0,0,0,0,0,0,0,0,0,0,0,0,0,0,0,0,0,0,0,0,0,0,0,0,0,0,0,0,0,0,0,0,0,0,0,0,0,0]","[0,0,0,0,0,0,0,0,0,0,0,0,0,0,0,0,0,0,0,0,0,0,0,0,0,0,0,0,0,0,0,0,0,0,0,0,0,0,0,0,0,0,0,0,0,0,0,0,0,0,0,0,0,0,0,0,0,0,0,0,0,0,0,0,0,0,0,0,0,0,0,0,0,0,0,0,0,0,0,0,0,0,0,0,0,0,0,0]","[0,0.019000000000005457,0.03560000002386232,0.03980000001195094,0.06900000000001683,0.08570000004772282,0.0899000000357546,0.10540000003578598,0.12220000004771236,0.1523000000119623,0.16890000003576233,0.17290000003578143,0.18890000003580099,0.2055000000000291,0.22220000004767826,0.2389000000357555,0.2555000000000405,0.2722000000476896,0.2890000000000441,0.305499999999995,0.322200000047701,0.3498000000119532,0.35550000000000637,0.37230000001193275,0.3889000000357896,0.405700000047716,0.42220000004772373,0.43880000001195185,0.45560000002387824,0.472500000000025,0.5024000000357773,0.5187000000477155,0.5352000000477233,0.5395000000000323,0.5553000000119255,0.5720000000000027,0.5887000000477087,0.6053000000119368,0.6220000000000141,0.6387000000477201,0.6553000000119482,0.6721000000238746,0.6892000000477196,0.7055000000000291,0.735600000023851,0.7523000000119282,0.7567000000477151,0.785900000035781,0.8026000000238582,0.8078000000119232,0.8224000000357705,0.8388000000119291,0.8556000000238555,0.8722000000477124,0.8891000000238591,0.9059000000357855,0.9223000000119441,0.9390000000000214,0.9557000000477274,0.9724000000358046,0.9890000000000327,1.0055000000000405,1.0223000000119669,1.0389000000357669,1.0558000000119137,1.0724000000357705,1.0889000000357782,1.105800000011925,1.1221000000238632,1.1389000000357896,1.1556000000238669,1.1723000000119441,1.1891000000238705,1.2058000000119478,1.2224000000358046,1.2389000000357555,1.255700000047682,1.2857000000477115,1.2905000000000086,1.3056000000238441,1.3224000000357705,1.3388000000119291,1.3556000000238555,1.3723000000119328,1.402200000047685,1.4063000000119246,1.4221000000238746,1.4523000000119168]",12,0,12,0,1,,,,
1QaZ-4,2025-06-18_15h06.59.790,GoFitts,2023.2.3,Win32,60.24096386,,,,,,"[-197.2328878242581,-341.61738263514764]","[121.89662837468671,375.1592463859431]",20,788.9315513,6.32,1,0.7529,0.3666,"[-101,-67,-33,2,14,26,26,39,47,54,69,72,79,85,91,94,96,98,98,101,110,113,118,118,118,118,118,118,118,118,118,118,118,118,118,118,118,118,118,118,118,118,118,118,118,118,119,120,120,120,120,120,120,120,120,120,120,120,120,120,120,120,120,120,120,120,120,120,120,120,120,120,120,120,120,120,120,120,120,120,120,120,120,120,120,120,120,120,120]","[-26,40,99,155,173,196,196,225,241,263,298,302,318,329,341,348,353,359,360,364,376,378,385,386,386,386,386,386,386,386,386,386,386,386,386,386,386,386,386,386,386,386,386,386,386,386,384,379,379,378,378,378,378,378,378,378,378,378,378,378,378,378,378,378,378,378,378,378,378,378,378,378,378,378,378,378,378,378,378,378,378,378,378,378,378,378,378,376,345]","[0,0,0,0,0,0,0,0,0,0,0,0,0,0,0,0,0,0,0,0,0,0,0,0,0,0,0,0,0,0,0,0,0,0,0,0,0,0,0,0,0,0,0,0,0,0,0,0,0,0,0,0,0,0,0,0,0,0,0,0,0,0,0,0,0,0,0,0,0,0,0,0,0,0,0,0,0,0,0,0,0,0,0,0,0,0,0,0,0]","[0,0,0,0,0,0,0,0,0,0,0,0,0,0,0,0,0,0,0,0,0,0,0,0,0,0,0,0,0,0,0,0,0,0,0,0,0,0,0,0,0,0,0,0,0,0,0,0,0,0,0,0,0,0,0,0,0,0,0,0,0,0,0,0,0,0,0,0,0,0,0,0,0,0,0,0,0,0,0,0,0,0,0,0,0,0,0,0,0]","[0,0,0,0,0,0,0,0,0,0,0,0,0,0,0,0,0,0,0,0,0,0,0,0,0,0,0,0,0,0,0,0,0,0,0,0,0,0,0,0,0,0,0,0,0,0,0,0,0,0,0,0,0,0,0,0,0,0,0,0,0,0,0,0,0,0,0,0,0,0,0,0,0,0,0,0,0,0,0,0,0,0,0,0,0,0,0,0,0]","[0,0.016699999988077252,0.03289999997616633,0.04939999997617406,0.06619999998810044,0.08300000000002683,0.08729999995233584,0.10279999995231037,0.11939999997616724,0.13619999998809362,0.16329999995235767,0.16950000000002774,0.18609999996425586,0.20269999998811272,0.21939999997618997,0.23609999996426723,0.2528999999761936,0.2798999999761804,0.2861999999880709,0.3026999999880786,0.3300000000000409,0.3363999999761518,0.36659999996425086,0.38289999997618906,0.39969999998811545,0.4041999999881227,0.41979999995231765,0.43600000000003547,0.45289999997618224,0.46939999997619,0.4863999999761859,0.5030999999642631,0.5193999999762013,0.5363999999761973,0.5529999999999973,0.5697999999523518,0.5861999999880823,0.603099999964229,0.6195999999642368,0.6363999999761631,0.6527999999523217,0.6697999999523176,0.686199999988105,0.7027999999523331,0.7196999999881086,0.7361999999881164,0.7528999999761936,0.7827999999523172,0.7871999999881041,0.8028999999761481,0.8195999999642822,0.8361999999880823,0.8530000000000086,0.8695999999642368,0.8863999999761631,0.9030999999642404,0.9196999999880973,0.9360999999642559,0.9530999999642518,0.9695000000000391,0.9863999999761859,1.0030999999642631,1.0193999999762013,1.0361999999880709,1.0529999999999973,1.069500000000005,1.0860999999642331,1.1030000000000086,1.119699999988086,1.1361999999880936,1.1531999999880895,1.1696999999880973,1.1860000000000355,1.202799999952333,1.2195999999642595,1.2363999999761859,1.2530000000000427,1.2694999999999936,1.2860000000000014,1.3028999999761481,1.3196999999880745,1.3363999999761518,1.3530000000000086,1.3695000000000164,1.3861999999880936,1.4028999999761709,1.4193999999761786,1.4360999999642559,1.4637999999523572]",13,0,13,0,1,,,,
1QaZ-4,2025-06-18_15h06.59.790,GoFitts,2023.2.3,Win32,60.24096386,,,,,,"[121.89662837468671,375.1592463859431]","[-41.23290134022263,-392.3048508558781]",20,788.9315513,6.32,1,0.9852,0.4854,"[120,119,117,116,116,116,115,110,103,94,83,71,54,54,47,38,32,32,28,27,27,25,17,15,6,-1,-1,-17,-47,-60,-63,-64,-64,-64,-65,-71,-74,-74,-74,-74,-74,-74,-74,-74,-72,-70,-66,-65,-64,-64,-64,-64,-64,-64,-64,-64,-62,-58,-53,-50,-50,-50,-50,-50,-50,-50,-50,-50,-50,-49,-49,-46,-42,-39,-39,-39,-39,-39,-39,-39,-39,-39,-39,-39,-39,-39,-39,-39,-39,-39,-39,-39,-39,-39,-39,-39,-39,-39,-39,-39,-39,-39,-39,-39]","[345,316,254,241,241,199,171,126,76,21,-27,-76,-139,-139,-171,-210,-256,-256,-277,-291,-307,-318,-347,-353,-367,-370,-370,-375,-385,-390,-390,-390,-390,-390,-391,-392,-392,-392,-392,-392,-392,-392,-392,-392,-394,-395,-395,-395,-395,-395,-395,-395,-395,-395,-395,-395,-395,-395,-394,-394,-394,-394,-394,-393,-393,-393,-393,-393,-393,-393,-393,-393,-393,-393,-393,-393,-393,-393,-393,-393,-393,-393,-393,-393,-393,-393,-393,-393,-393,-393,-393,-393,-393,-393,-393,-393,-393,-393,-393,-393,-393,-393,-393,-393]","[0,0,0,0,0,0,0,0,0,0,0,0,0,0,0,0,0,0,0,0,0,0,0,0,0,0,0,0,0,0,0,0,0,0,0,0,0,0,0,0,0,0,0,0,0,0,0,0,0,0,0,0,0,0,0,0,0,0,0,0,0,0,0,0,0,0,0,0,0,0,0,0,0,0,0,0,0,0,0,0,0,0,0,0,0,0,0,0,0,0,0,0,0,0,0,0,0,0,0,0,0,0,0,0]","[0,0,0,0,0,0,0,0,0,0,0,0,0,0,0,0,0,0,0,0,0,0,0,0,0,0,0,0,0,0,0,0,0,0,0,0,0,0,0,0,0,0,0,0,0,0,0,0,0,0,0,0,0,0,0,0,0,0,0,0,0,0,0,0,0,0,0,0,0,0,0,0,0,0,0,0,0,0,0,0,0,0,0,0,0,0,0,0,0,0,0,0,0,0,0,0,0,0,0,0,0,0,0,0]","[0,0,0,0,0,0,0,0,0,0,0,0,0,0,0,0,0,0,0,0,0,0,0,0,0,0,0,0,0,0,0,0,0,0,0,0,0,0,0,0,0,0,0,0,0,0,0,0,0,0,0,0,0,0,0,0,0,0,0,0,0,0,0,0,0,0,0,0,0,0,0,0,0,0,0,0,0,0,0,0,0,0,0,0,0,0,0,0,0,0,0,0,0,0,0,0,0,0,0,0,0,0,0,0]","[0,0.018700000047658705,0.035200000047666435,0.051700000047674166,0.05580000001191365,0.0719000000357255,0.08880000001192911,0.10530000001193685,0.1220000000000141,0.13860000002381412,0.15520000004767098,0.17190000003574823,0.20120000004766325,0.20540000003575187,0.22180000001191047,0.23849999999998772,0.2679000000357519,0.2722000000476896,0.2886000000238482,0.3053000000119255,0.32200000000000273,0.33860000002380275,0.36880000001190183,0.37299999999999045,0.4019000000357664,0.418300000011925,0.4223000000118873,0.43849999999997635,0.46880000001192457,0.4854000000357246,0.5020000000000095,0.5184999999999604,0.5349999999999682,0.5392000000476855,0.5553000000119255,0.5718000000119332,0.6018000000119059,0.6061000000238437,0.6217000000476673,0.6384000000357446,0.6553000000118914,0.6717000000476787,0.6884999999999764,0.7054000000357519,0.7219000000357596,0.7386000000238369,0.7552000000476937,0.7719999999999914,0.7884999999999991,0.8054000000357746,0.8220000000000027,0.8388000000119291,0.8555000000000064,0.8720000000000141,0.8887000000476633,0.905200000047671,0.9218000000118991,0.9384999999999764,0.9684000000357287,0.9852000000476551,1.0021000000238587,1.0067000000476582,1.0353000000118868,1.0394999999999754,1.068600000023821,1.0732000000476773,1.0888000000119291,1.1051000000238105,1.122000000000014,1.138499999999965,1.1553000000118914,1.1719000000357482,1.1886000000238255,1.2051000000238332,1.22170000004769,1.2386000000238369,1.255300000011914,1.2721000000238405,1.2887000000476974,1.3054000000357746,1.3221000000238519,1.3387000000476519,1.3551000000238105,1.3718000000118877,1.3888000000118836,1.405200000047671,1.4219000000357482,1.4384999999999764,1.4554999999999723,1.4721000000238291,1.488700000047686,1.5054000000357632,1.5218000000119218,1.5388000000119177,1.555499999999995,1.5720000000000027,1.5887000000476519,1.6053000000119368,1.6219000000357369,1.638499999999965,1.6553000000118914,1.6719000000357482,1.6886000000238255,1.7051000000238332]",14,0,14,0,1,,,,
1QaZ-4,2025-06-18_15h06.59.790,GoFitts,2023.2.3,Win32,60.24096386,,,,,,,,,,,1,,,,,,,,,,,,,,1,0,0,1
