key_resp_4.keys,key_resp_4.rt,身分證字號,date,expName,psychopyVersion,OS,frameRate,mouse_2.x,mouse_2.y,mouse_2.leftButton,mouse_2.midButton,mouse_2.rightButton,mouse_2.time,cont.keys,cont.rt,retry_testing.thisRepN,retry_testing.thisTrialN,retry_testing.thisN,retry_testing.thisIndex,retry_testing.ran,key_resp.keys,key_resp.rt,key_resp_3.keys,key_resp_3.rt,from,to,w,a,sequence_loop.thisN,mouse.x,mouse.y,mouse.leftButton,mouse.midButton,mouse.rightButton,mouse.time,key_resp_2.keys,trial_loop.thisRepN,trial_loop.thisTrialN,trial_loop.thisN,trial_loop.thisIndex,trial_loop.ran,sequence_loop.thisRepN,sequence_loop.thisTrialN,sequence_loop.thisIndex,sequence_loop.ran
return,1.6736,A000000000,2022-11-28_21h47.54.963,GoFitts,2022.2.4,Win32,75.43184733,,,,,,,,,,,,,,,,,,,,,,,,,,,,,,,,,,,,,,
,,A000000000,2022-11-28_21h47.54.963,GoFitts,2022.2.4,Win32,75.43184733,"[117,117,117,117,117,117,117,117,117,117,117,117,117,117,117,117,117,121,126,128,129,127,125,121,116,110,104,99,97,97,102,115,136,156,191,214,235,253,263,269,272,273,273,273,273,276,284,290,296,304,315,324,331,334,336,338,338,338,338,338,338,338,338,338,338,338,338,334,320,298,259,216,170,127,96,71,54,43,37,28,23,19,15,11,6,2,-2,-6,-8,-9,-9,-9,-9,-9,-9,-10,-10,-10,-10,-10,-13,-20,-33,-49,-70,-92,-117,-144,-165,-190,-209,-222,-232,-240,-246,-252,-258,-263,-270,-276,-287,-295,-303,-309,-315,-323,-330,-337,-344,-351,-356,-359,-359,-359,-359,-359,-358,-353,-348,-327,-299,-259,-223,-184,-146,-118,-91,-74,-63,-57,-54,-51,-50,-49,-48,-48,-47,-46,-44,-42,-38,-34,-30,-27,-24,-19,-17,-13,-12,-11,-9,-7]","[3,3,3,3,3,3,3,3,3,3,3,3,3,3,3,3,3,3,4,5,7,9,13,17,21,25,29,32,32,33,35,37,38,38,37,36,33,30,27,26,25,24,24,24,24,22,21,18,17,16,14,13,11,10,10,10,10,10,10,10,10,10,10,10,10,10,10,12,28,56,106,160,213,258,287,310,324,333,338,345,348,351,354,356,358,360,360,360,360,360,360,360,360,360,360,360,353,344,318,288,259,233,211,193,175,157,139,121,108,92,82,76,70,66,62,59,57,54,50,47,41,37,33,31,29,25,22,18,15,11,8,6,6,5,5,4,1,-5,-9,-23,-39,-64,-90,-118,-154,-188,-219,-242,-258,-269,-276,-281,-284,-286,-288,-288,-289,-290,-293,-297,-301,-305,-307,-311,-315,-319,-321,-325,-327,-328,-331,-334]","[0,0,0,0,0,0,0,0,0,0,0,0,0,0,0,0,0,0,0,0,0,0,0,0,0,0,0,0,0,0,0,0,0,0,0,0,0,0,0,0,0,0,0,0,0,0,0,0,0,0,0,0,0,0,0,0,0,0,0,0,0,0,0,0,0,0,0,0,0,0,0,0,0,0,0,0,0,0,0,0,0,0,0,0,0,0,0,0,0,0,0,0,0,0,0,0,0,0,0,0,0,0,0,0,0,0,0,0,0,0,0,0,0,0,0,0,0,0,0,0,0,0,0,0,0,0,0,0,0,0,0,0,0,0,0,0,0,0,0,0,0,0,0,0,0,0,0,0,0,0,0,0,0,0,0,0,0,0,0,0,0,0,0,0,0,0,0,0,0,0,0,0]","[0,0,0,0,0,0,0,0,0,0,0,0,0,0,0,0,0,0,0,0,0,0,0,0,0,0,0,0,0,0,0,0,0,0,0,0,0,0,0,0,0,0,0,0,0,0,0,0,0,0,0,0,0,0,0,0,0,0,0,0,0,0,0,0,0,0,0,0,0,0,0,0,0,0,0,0,0,0,0,0,0,0,0,0,0,0,0,0,0,0,0,0,0,0,0,0,0,0,0,0,0,0,0,0,0,0,0,0,0,0,0,0,0,0,0,0,0,0,0,0,0,0,0,0,0,0,0,0,0,0,0,0,0,0,0,0,0,0,0,0,0,0,0,0,0,0,0,0,0,0,0,0,0,0,0,0,0,0,0,0,0,0,0,0,0,0,0,0,0,0,0,0]","[0,0,0,0,0,0,0,0,0,0,0,0,0,0,0,0,0,0,0,0,0,0,0,0,0,0,0,0,0,0,0,0,0,0,0,0,0,0,0,0,0,0,0,0,0,0,0,0,0,0,0,0,0,0,0,0,0,0,0,0,0,0,0,0,0,0,0,0,0,0,0,0,0,0,0,0,0,0,0,0,0,0,0,0,0,0,0,0,0,0,0,0,0,0,0,0,0,0,0,0,0,0,0,0,0,0,0,0,0,0,0,0,0,0,0,0,0,0,0,0,0,0,0,0,0,0,0,0,0,0,0,0,0,0,0,0,0,0,0,0,0,0,0,0,0,0,0,0,0,0,0,0,0,0,0,0,0,0,0,0,0,0,0,0,0,0,0,0,0,0,0,0]","[0.0012999999821188268,0.010699999988078801,0.020999999999999908,0.03439999997615839,0.04739999997615829,0.05769999998807851,0.07119999998807902,0.08739999997615833,0.09759999999403934,0.11419999998807917,0.1274999999999995,0.13779999998211867,0.15149999999999952,0.16749999999999954,0.18079999998211882,0.19099999999999984,0.20459999999403955,0.22100000000000009,0.23099999999999987,0.24419999998807906,0.2606999999880788,0.2710999999940391,0.2841999999880791,0.2975999999940395,0.31099999999999994,0.3274999999999997,0.34069999998807887,0.3541999999880785,0.3672999999821185,0.3810000000000002,0.39419999998807853,0.40759999999403895,0.42049999999999965,0.43100000000000005,0.44719999998807847,0.4605999999940398,0.47389999997615817,0.4871999999880785,0.5007999999821182,0.5138999999761582,0.5273999999761578,0.5375999999940397,0.5540999999940395,0.5642999999821185,0.580599999994039,0.5939999999999994,0.6075999999940391,0.6208999999761575,0.6339999999999995,0.6472999999821187,0.6607999999821184,0.6739999999999995,0.6875,0.7006999999880792,0.7147999999821186,0.7272999999821188,0.7405999999940391,0.7539999999999996,0.7641999999880786,0.7774999999999999,0.7907999999821183,0.8073999999761581,0.8174999999999999,0.8340999999940397,0.8441999999880787,0.8573999999761579,0.8708999999761575,0.8840999999940395,0.9006999999880785,0.9138999999761577,0.9275999999940394,0.9407999999821186,0.9537999999821185,0.9672999999821181,0.9805999999940394,0.9939999999999998,1.008699999988079,1.0205999999940394,1.0309999999999997,1.0473999999761583,1.0606999999880786,1.0737999999821186,1.0877999999821188,1.1007999999821187,1.1138999999761579,1.127199999988079,1.1406999999880787,1.1542999999821184,1.1673999999761584,1.1776999999880786,1.1908999999761578,1.2042999999821182,1.220899999976158,1.234,1.244199999988079,1.260899999976158,1.274,1.284199999988079,1.3003999999761575,1.314,1.3272999999821185,1.3405000000000005,1.3539999999999992,1.3672999999821176,1.3808999999761582,1.3940000000000001,1.4072999999821185,1.4205999999940389,1.4307999999821188,1.4473999999761578,1.460699999988078,1.4738999999761582,1.4871999999880785,1.5008999999761574,1.5140999999940394,1.5271999999880794,1.5404999999999998,1.5537999999821182,1.5672999999821187,1.577699999988079,1.5938999999761574,1.607399999976158,1.6206999999880782,1.6338999999761583,1.6471999999880778,1.6605999999940382,1.6739999999999986,1.6871999999880787,1.700499999999999,1.715099999994039,1.7273999999761562,1.7405999999940382,1.7539999999999987,1.764399999976157,1.7805999999940392,1.7910999999940378,1.8088999999761564,1.8212999999821173,1.8353999999761568,1.8478999999761578,1.8611999999880782,1.874099999994038,1.887299999982118,1.9008999999761569,1.9139999999999988,1.9274999999999993,1.9407999999821177,1.954099999994038,1.9674999999999985,1.9807999999821169,1.9942999999821174,2.0074999999999994,2.020899999976158,2.034199999988078,2.0475999999940386,2.0606999999880786,2.0793999999761565,2.087599999994038,2.0977999999821177,2.113299999982117,2.127,2.1421999999880788,2.1548999999761564,2.1672999999821174,2.180799999982118,2.195299999982118,2.2042999999821182,2.2220999999940387,2.235399999976157,2.2442999999821174,2.257699999988078,2.2713999999761567]",return,0.5779,0,0,0,0,1,,,,,,,,,,,,,,,,,,,,,,,,,
,,A000000000,2022-11-28_21h47.54.963,GoFitts,2022.2.4,Win32,75.43184733,,,,,,,,,,,,,,return,0.3728,,,,,,,,,,,,,,,,,,,,,,,
,,A000000000,2022-11-28_21h47.54.963,GoFitts,2022.2.4,Win32,75.43184733,,,,,,,,,,,,,,,,return,0.3405,"[154,-66]","[182.70909152852016,81.34732861516002]",48,400,0,"[154,151,151,149,148,147,146,146,146,145,145,145,145,144,143,143,143,142,142,142,142,142,143,143,147,151,157,166,174,182,189,194,199,202,203,204,204]","[-66,-65,-65,-63,-62,-62,-61,-61,-60,-59,-59,-59,-58,-57,-56,-56,-56,-56,-56,-56,-54,-50,-46,-38,-29,-20,-10,4,15,25,34,42,49,56,62,68,72]","[0,0,0,0,0,0,0,0,0,0,0,0,0,0,0,0,0,0,0,0,0,0,0,0,0,0,0,0,0,0,0,0,0,0,0,0,0]","[0,0,0,0,0,0,0,0,0,0,0,0,0,0,0,0,0,0,0,0,0,0,0,0,0,0,0,0,0,0,0,0,0,0,0,0,0]","[0,0,0,0,0,0,0,0,0,0,0,0,0,0,0,0,0,0,0,0,0,0,0,0,0,0,0,0,0,0,0,0,0,0,0,0,0]","[0.0011999999880796253,0.016299999982118507,0.02609999999403989,0.042500000000000426,0.053000000000000824,0.07200000000000095,0.08399999999999963,0.09590000000596,0.10919999998807839,0.1194000000059603,0.1355999999940405,0.1461999999880792,0.16279999998211814,0.17609999999404025,0.19119999998807913,0.20279999998211906,0.21269999998807876,0.22629999998211936,0.23919999998807917,0.2556999999880798,0.2692999999821186,0.28259999999403895,0.29269999998807883,0.30869999998807884,0.3224999999999998,0.3357999999821182,0.3490999999940403,0.3624000000059606,0.3757999999821191,0.38899999999999935,0.4021999999880794,0.41569999998807994,0.42909999999404036,0.44229999998211866,0.455599999994039,0.4690999999940395,0.4820999999940394]",,0,0,0,0,1,,,,
,,A000000000,2022-11-28_21h47.54.963,GoFitts,2022.2.4,Win32,75.43184733,,,,,,,,,,,,,,,,,,"[182.70909152852016,81.34732861516002]","[-161.80339887498948,-117.5570504584946]",48,400,0,"[204,203,200,197,196,195,194,192,191,184,175,160,144,111,91,67,41,18,-4,-28,-48,-67,-82,-95,-102,-111,-118,-122,-128,-132,-136,-138,-139,-139,-139,-139,-139,-139,-142]","[72,77,81,85,87,88,89,89,89,86,78,67,56,34,22,7,-15,-37,-57,-75,-90,-102,-111,-119,-123,-125,-126,-127,-127,-127,-127,-127,-127,-127,-127,-127,-127,-127,-126]","[0,0,0,0,0,0,0,0,0,0,0,0,0,0,0,0,0,0,0,0,0,0,0,0,0,0,0,0,0,0,0,0,0,0,0,0,0,0,0]","[0,0,0,0,0,0,0,0,0,0,0,0,0,0,0,0,0,0,0,0,0,0,0,0,0,0,0,0,0,0,0,0,0,0,0,0,0,0,0]","[0,0,0,0,0,0,0,0,0,0,0,0,0,0,0,0,0,0,0,0,0,0,0,0,0,0,0,0,0,0,0,0,0,0,0,0,0,0,0]","[0.0002999999821184929,0.013299999982118393,0.026500000000000412,0.039799999982118806,0.05329999998211932,0.06659999999403965,0.07699999999999996,0.09299999999999997,0.10369999998807877,0.1199000000059609,0.1332999999821194,0.14649999999999963,0.15690000000595994,0.17309999999404013,0.18359999999404053,0.19690000000596086,0.21309999999403928,0.22669999998807988,0.2397999999821181,0.2532999999821186,0.2665000000000006,0.279799999982119,0.29309999999403935,0.30659999999403986,0.3200000000000003,0.3331999999880786,0.346599999994039,0.3599000000059611,0.3730999999940394,0.38649999999999984,0.39979999998211824,0.41350000000000087,0.4265999999940391,0.4399000000059612,0.4529999999999994,0.4634000000059615,0.4766999999880799,0.4900999999940403,0.5037999999821192]",,1,0,1,0,1,,,,
,,A000000000,2022-11-28_21h47.54.963,GoFitts,2022.2.4,Win32,75.43184733,,,,,,,,,,,,,,,,,,"[-161.80339887498948,-117.5570504584946]","[133.82612127177165,148.62896509547886]",48,400,0,"[-142,-143,-145,-147,-147,-147,-147,-147,-145,-138,-130,-120,-109,-85,-57,-31,-3,24,45,61,72,78,82,83,85,86,88,90,93,98,100,104,107,110,115,118]","[-126,-123,-122,-122,-121,-121,-119,-114,-107,-97,-85,-72,-61,-37,-14,8,29,48,62,74,82,89,93,96,98,101,103,106,109,113,114,118,121,124,129,136]","[0,0,0,0,0,0,0,0,0,0,0,0,0,0,0,0,0,0,0,0,0,0,0,0,0,0,0,0,0,0,0,0,0,0,0,0]","[0,0,0,0,0,0,0,0,0,0,0,0,0,0,0,0,0,0,0,0,0,0,0,0,0,0,0,0,0,0,0,0,0,0,0,0]","[0,0,0,0,0,0,0,0,0,0,0,0,0,0,0,0,0,0,0,0,0,0,0,0,0,0,0,0,0,0,0,0,0,0,0,0]","[0.0003000000119204316,0.016199999988078417,0.029099999994040004,0.04280000001192086,0.052800000011920645,0.06619999998807913,0.07949999999999946,0.09590000000596,0.10899999999999999,0.1226999999880789,0.13580000001192083,0.1491999999880793,0.15959999999403962,0.17590000000596007,0.18909999999404015,0.20250000000000057,0.21569999998807887,0.2290999999940393,0.24249999999999972,0.2558000000119218,0.2690999999940402,0.28240000000596055,0.29569999998807894,0.30909999999403936,0.3224999999999998,0.33569999998807987,0.3490999999940403,0.3624000000059606,0.3755999999940389,0.39250000000000007,0.39940000000596143,0.4159000000059603,0.4293000000119207,0.43950000000000067,0.4556999999880791,0.4690999999940395]",,2,0,2,0,1,,,,
,,A000000000,2022-11-28_21h47.54.963,GoFitts,2022.2.4,Win32,75.43184733,,,,,,,,,,,,,,,,,,"[133.82612127177165,148.62896509547886]","[-100.00000000000009,-173.2050807568877]",48,400,0,"[118,122,126,129,131,131,131,131,131,128,120,103,81,56,27,-3,-27,-50,-63,-73,-80,-84,-88,-91,-93,-93,-93,-93,-93,-92]","[136,141,146,150,152,152,152,152,152,146,134,113,89,60,32,9,-12,-35,-54,-70,-84,-96,-106,-115,-122,-128,-135,-141,-147,-153]","[0,0,0,0,0,0,0,0,0,0,0,0,0,0,0,0,0,0,0,0,0,0,0,0,0,0,0,0,0,0]","[0,0,0,0,0,0,0,0,0,0,0,0,0,0,0,0,0,0,0,0,0,0,0,0,0,0,0,0,0,0]","[0,0,0,0,0,0,0,0,0,0,0,0,0,0,0,0,0,0,0,0,0,0,0,0,0,0,0,0,0,0]","[0.0002999999821184929,0.013099999994038214,0.026299999982118294,0.03989999997615712,0.05319999998807923,0.06659999999403965,0.07979999998211795,0.09009999999403817,0.10359999999403868,0.11999999999999922,0.13299999999999912,0.14659999999403972,0.15979999998211802,0.17309999999403836,0.18649999999999878,0.19989999997615726,0.21309999999403928,0.22639999997615767,0.2397999999821181,0.2532999999821186,0.2663999999761568,0.27999999999999936,0.29319999998807766,0.30659999999403986,0.31979999998211817,0.3331999999880786,0.3463999999761569,0.3597999999821173,0.3730999999940394,0.3863999999761578]",,3,0,3,0,1,,,,
,,A000000000,2022-11-28_21h47.54.963,GoFitts,2022.2.4,Win32,75.43184733,,,,,,,,,,,,,,,,,,"[-100.00000000000009,-173.2050807568877]","[61.80339887498949,190.2113032590307]",48,400,0,"[-92,-91,-91,-91,-91,-91,-91,-91,-91,-91,-91,-90,-86,-79,-67,-47,-23,-1,21,35,45,51,56]","[-153,-157,-160,-164,-166,-169,-169,-169,-169,-169,-169,-159,-136,-107,-64,-12,36,74,107,133,154,168,182]","[0,0,0,0,0,0,0,0,0,0,0,0,0,0,0,0,0,0,0,0,0,0,0]","[0,0,0,0,0,0,0,0,0,0,0,0,0,0,0,0,0,0,0,0,0,0,0]","[0,0,0,0,0,0,0,0,0,0,0,0,0,0,0,0,0,0,0,0,0,0,0]","[0.00009999999404008975,0.01309999999403999,0.026599999994040502,0.039699999988078716,0.053000000000000824,0.06659999999403965,0.08000000000000007,0.09280000001192157,0.10330000001192197,0.11969999998807879,0.13000000000000078,0.14640000000596132,0.15980000001192174,0.17319999998808022,0.18640000000596046,0.19969999998807886,0.21319999998807937,0.2264000000059614,0.23969999998807978,0.2530000000000001,0.2665000000000006,0.2765999999940405,0.29330000001192147]",,4,0,4,0,1,,,,
,,A000000000,2022-11-28_21h47.54.963,GoFitts,2022.2.4,Win32,75.43184733,,,,,,,,,,,,,,,,,,"[61.80339887498949,190.2113032590307]","[-20.905692653530846,-198.90437907365467]",48,400,0,"[56,59,62,62,63,64,64,64,64,64,64,64,64,64,61,56,48,36,22,9,-5,-16,-23,-28,-32,-34,-36,-36,-36,-36,-36,-36,-36,-36,-35,-34]","[182,190,194,198,201,203,204,205,207,208,208,208,208,208,203,189,163,124,80,34,-12,-53,-88,-113,-133,-147,-159,-165,-171,-173,-174,-174,-174,-177,-178,-183]","[0,0,0,0,0,0,0,0,0,0,0,0,0,0,0,0,0,0,0,0,0,0,0,0,0,0,0,0,0,0,0,0,0,0,0,0]","[0,0,0,0,0,0,0,0,0,0,0,0,0,0,0,0,0,0,0,0,0,0,0,0,0,0,0,0,0,0,0,0,0,0,0,0]","[0,0,0,0,0,0,0,0,0,0,0,0,0,0,0,0,0,0,0,0,0,0,0,0,0,0,0,0,0,0,0,0,0,0,0,0]","[0.0001999999880801795,0.014000000000001123,0.02609999999403989,0.0366999999880786,0.053000000000000824,0.06649999999999956,0.07959999999403955,0.09309999999404006,0.1064000000059604,0.11959999999404047,0.1299000000059607,0.1433000000119211,0.1565000000000012,0.17300000000000004,0.18619999998808012,0.19959999999404054,0.21290000000596088,0.2264999999999997,0.23969999998807978,0.25290000000596,0.26640000000596054,0.2795000000000005,0.29309999999403935,0.30609999999403925,0.3194999999999997,0.3329000000059601,0.3463000000119205,0.3595999999940407,0.3730999999940394,0.3860999999940393,0.3996999999880799,0.41280000001192185,0.4263000000119206,0.43659999999404064,0.449900000005961,0.4664000000059616]",,5,0,5,0,1,,,,
,,A000000000,2022-11-28_21h47.54.963,GoFitts,2022.2.4,Win32,75.43184733,,,,,,,,,,,,,,,,,,"[-20.905692653530846,-198.90437907365467]","[-20.905692653530668,198.90437907365467]",48,400,0,"[-34,-32,-32,-32,-31,-31,-31,-31,-31,-31,-30,-27,-24,-22,-22,-24,-27,-29,-31,-32,-32,-32,-32]","[-183,-184,-185,-187,-187,-188,-188,-188,-188,-188,-186,-175,-150,-108,-69,-20,20,66,108,140,163,177,185]","[0,0,0,0,0,0,0,0,0,0,0,0,0,0,0,0,0,0,0,0,0,0,0]","[0,0,0,0,0,0,0,0,0,0,0,0,0,0,0,0,0,0,0,0,0,0,0]","[0,0,0,0,0,0,0,0,0,0,0,0,0,0,0,0,0,0,0,0,0,0,0]","[0.0001999999880801795,0.013500000000000512,0.026599999994040502,0.039699999988078716,0.053300000011921256,0.06659999999403965,0.07669999998807953,0.09309999999404006,0.10709999999403941,0.1168000000119207,0.13230000001192188,0.1435000000000013,0.15680000001192163,0.17300000000000004,0.18630000001192215,0.19959999999404054,0.21300000000000097,0.2264000000059614,0.2398000000119218,0.2530000000000001,0.2665000000000006,0.2795999999940406,0.29340000000596156]",,6,0,6,0,1,,,,
,,A000000000,2022-11-28_21h47.54.963,GoFitts,2022.2.4,Win32,75.43184733,,,,,,,,,,,,,,,,,,"[-20.905692653530668,198.90437907365467]","[61.80339887498945,-190.21130325903073]",48,400,0,"[-32,-32,-31,-31,-31,-31,-31,-31,-31,-31,-31,-31,-31,-31,-31,-30,-26,-21,-14,-8,3,13,24,30,39,42,44,44,44,44,44,44,44,44,44,44,44,47,52,55,60]","[185,190,192,194,194,194,194,195,196,196,196,196,196,196,192,171,148,110,45,-15,-79,-132,-172,-196,-219,-229,-233,-234,-234,-234,-234,-234,-234,-234,-234,-235,-235,-233,-227,-221,-210]","[0,0,0,0,0,0,0,0,0,0,0,0,0,0,0,0,0,0,0,0,0,0,0,0,0,0,0,0,0,0,0,0,0,0,0,0,0,0,0,0,0]","[0,0,0,0,0,0,0,0,0,0,0,0,0,0,0,0,0,0,0,0,0,0,0,0,0,0,0,0,0,0,0,0,0,0,0,0,0,0,0,0,0]","[0,0,0,0,0,0,0,0,0,0,0,0,0,0,0,0,0,0,0,0,0,0,0,0,0,0,0,0,0,0,0,0,0,0,0,0,0,0,0,0,0]","[0.00020000001788211819,0.012800000011921497,0.02620000001788192,0.03930000001192013,0.05270000001788233,0.06300000000000061,0.07640000000596103,0.08999999999999986,0.10620000001788199,0.11650000000000027,0.13280000001192072,0.1460000000000008,0.1565999999940395,0.16970000001788144,0.18320000001788195,0.19930000001192028,0.20990000000596076,0.22309999999403907,0.2398000000119218,0.2528000000119217,0.2660999999940401,0.27959999999403884,0.29290000000596095,0.30309999999403914,0.31959999999403976,0.3329000000059601,0.3460999999940402,0.3595000000000006,0.3698000000119208,0.38630000001192144,0.39970000001788186,0.41300000000000026,0.4262000000178823,0.43640000000596046,0.44959999999403877,0.4632000000178813,0.4767000000178818,0.4924999999999997,0.5062000000178823,0.5165000000000006,0.529800000011921]",,7,0,7,0,1,,,,
,,A000000000,2022-11-28_21h47.54.963,GoFitts,2022.2.4,Win32,75.43184733,,,,,,,,,,,,,,,,,,"[61.80339887498945,-190.21130325903073]","[-99.99999999999996,173.20508075688775]",48,400,0,"[60,64,66,66,66,66,66,65,65,65,64,63,59,53,40,25,9,-12,-28,-44,-56,-65,-69,-72,-74,-75,-76,-77,-80,-84,-88,-93,-98,-102,-104]","[-210,-198,-191,-188,-186,-185,-185,-185,-185,-185,-183,-178,-166,-145,-109,-66,-17,37,84,122,155,176,190,198,202,204,205,205,206,206,207,207,205,200,194]","[0,0,0,0,0,0,0,0,0,0,0,0,0,0,0,0,0,0,0,0,0,0,0,0,0,0,0,0,0,0,0,0,0,0,0]","[0,0,0,0,0,0,0,0,0,0,0,0,0,0,0,0,0,0,0,0,0,0,0,0,0,0,0,0,0,0,0,0,0,0,0]","[0,0,0,0,0,0,0,0,0,0,0,0,0,0,0,0,0,0,0,0,0,0,0,0,0,0,0,0,0,0,0,0,0,0,0]","[0.00019999998807840313,0.015799999982117896,0.029400000005960436,0.04249999999999865,0.05590000000595907,0.06949999999999967,0.07949999999999946,0.0960999999940384,0.1090999999940383,0.11969999998807879,0.13609999999403932,0.1461999999880792,0.16259999999403973,0.17590000000596007,0.18900000000000006,0.20240000000596048,0.21590000000595921,0.2289999999999992,0.24249999999999972,0.255699999988078,0.26900000000000013,0.28249999999999886,0.2959000000059593,0.3091999999880777,0.3224000000059597,0.3356999999880781,0.3490000000000002,0.3594999999999988,0.3757999999821173,0.38909999999403944,0.40249999999999986,0.41559999999403985,0.4291999999880787,0.442499999999999,0.45269999998807897]",,8,0,8,0,1,,,,
,,A000000000,2022-11-28_21h47.54.963,GoFitts,2022.2.4,Win32,75.43184733,,,,,,,,,,,,,,,,,,"[-99.99999999999996,173.20508075688775]","[133.82612127177168,-148.6289650954788]",48,400,0,"[-104,-107,-109,-109,-109,-107,-107,-107,-106,-104,-101,-94,-79,-60,-38,-13,11,34,52,80,92,106,113,118,121]","[194,181,173,162,157,155,155,155,154,154,154,149,137,120,97,69,38,2,-28,-69,-87,-110,-121,-128,-132]","[0,0,0,0,0,0,0,0,0,0,0,0,0,0,0,0,0,0,0,0,0,0,0,0,0]","[0,0,0,0,0,0,0,0,0,0,0,0,0,0,0,0,0,0,0,0,0,0,0,0,0]","[0,0,0,0,0,0,0,0,0,0,0,0,0,0,0,0,0,0,0,0,0,0,0,0,0]","[0.0003000000119204316,0.016099999994038328,0.026400000005960322,0.04280000001192086,0.05590000000595907,0.06949999999999967,0.08280000001192,0.09299999999999997,0.1064000000059604,0.11990000000595913,0.1330999999940392,0.14649999999999963,0.16230000001192124,0.17600000000000016,0.1894999999999989,0.20269999998807897,0.2160999999940394,0.22940000000595973,0.23990000000596012,0.2560000000000002,0.26659999999403894,0.2829999999999995,0.2961999999880778,0.3094000000059598,0.3228000000119202]",,9,0,9,0,1,,,,
,,A000000000,2022-11-28_21h47.54.963,GoFitts,2022.2.4,Win32,75.43184733,,,,,,,,,,,,,,,,,,"[133.82612127177168,-148.6289650954788]","[-161.80339887498945,117.55705045849464]",48,400,0,"[121,122,122,123,123,124,124,124,124,124,125,126,126,126,126,124,109,77,42,7,-26,-61,-88,-105,-114,-118,-121,-122,-123,-124,-126,-129,-131,-133,-136,-138,-139,-139,-140,-141]","[-132,-134,-136,-136,-137,-137,-137,-137,-137,-138,-138,-140,-140,-140,-140,-138,-125,-101,-77,-51,-23,11,41,67,80,90,95,98,99,100,100,101,102,103,105,106,107,107,107,107]","[0,0,0,0,0,0,0,0,0,0,0,0,0,0,0,0,0,0,0,0,0,0,0,0,0,0,0,0,0,0,0,0,0,0,0,0,0,0,0,0]","[0,0,0,0,0,0,0,0,0,0,0,0,0,0,0,0,0,0,0,0,0,0,0,0,0,0,0,0,0,0,0,0,0,0,0,0,0,0,0,0]","[0,0,0,0,0,0,0,0,0,0,0,0,0,0,0,0,0,0,0,0,0,0,0,0,0,0,0,0,0,0,0,0,0,0,0,0,0,0,0,0]","[0.00019999998807840313,0.013299999982118393,0.026999999999999247,0.039799999982118806,0.05029999998211743,0.06690000000596008,0.07699999999999996,0.09040000000596038,0.1064000000059604,0.1169999999999991,0.13340000000595964,0.14349999999999952,0.16009999999403846,0.17029999998211842,0.18619999998807835,0.19679999998211883,0.21019999998807926,0.22579999998211875,0.239699999988078,0.2531999999880785,0.26640000000596054,0.279799999982119,0.29329999998211775,0.30659999999403986,0.3196999999880781,0.3332999999821187,0.3464999999999989,0.3597999999821191,0.3732999999821178,0.38659999999403993,0.40000000000000036,0.4134000000059608,0.42359999999403897,0.4369999999999994,0.4502999999821178,0.4634999999999998,0.4772999999821188,0.4902999999821187,0.5067999999821176,0.5169000000059594]",,10,0,10,0,1,,,,
,,A000000000,2022-11-28_21h47.54.963,GoFitts,2022.2.4,Win32,75.43184733,,,,,,,,,,,,,,,,,,"[-161.80339887498945,117.55705045849464]","[182.7090915285202,-81.34732861516002]",48,400,0,"[-141,-144,-146,-148,-150,-150,-150,-150,-150,-146,-136,-121,-94,-60,-14,36,81,116,143,161,170]","[107,108,108,109,109,109,109,109,108,104,97,87,74,55,31,6,-17,-34,-47,-56,-62]","[0,0,0,0,0,0,0,0,0,0,0,0,0,0,0,0,0,0,0,0,0]","[0,0,0,0,0,0,0,0,0,0,0,0,0,0,0,0,0,0,0,0,0]","[0,0,0,0,0,0,0,0,0,0,0,0,0,0,0,0,0,0,0,0,0]","[0.00010000002384202844,0.016300000011920446,0.029400000005960436,0.03960000002384234,0.05600000000000094,0.0696000000238417,0.08020000001788219,0.09320000001788209,0.10630000001192208,0.11950000000000038,0.1355000000000004,0.14930000001192134,0.16260000002384167,0.17580000001192175,0.18910000002384209,0.2023000000119204,0.21600000000000108,0.229100000023843,0.24249999999999972,0.2558000000119218,0.2683000000119211]",,11,0,11,0,1,,,,
,,A000000000,2022-11-28_21h47.54.963,GoFitts,2022.2.4,Win32,75.43184733,,,,,,,,,,,,,,,,,,"[182.7090915285202,-81.34732861516002]","[-195.62952014676114,41.58233816355186]",48,400,0,"[170,176,179,179,180,181,182,185,188,191,192,194,194,194,194,194,187,158,128,62,-3,-63,-116,-150,-170,-179,-181,-182,-182,-182,-182,-184,-185,-187,-189,-191,-194,-196]","[-62,-66,-67,-68,-69,-69,-71,-72,-74,-76,-77,-79,-79,-79,-79,-79,-78,-67,-56,-28,-3,21,44,59,68,73,75,75,75,75,75,75,74,72,71,70,67,63]","[0,0,0,0,0,0,0,0,0,0,0,0,0,0,0,0,0,0,0,0,0,0,0,0,0,0,0,0,0,0,0,0,0,0,0,0,0,0]","[0,0,0,0,0,0,0,0,0,0,0,0,0,0,0,0,0,0,0,0,0,0,0,0,0,0,0,0,0,0,0,0,0,0,0,0,0,0]","[0,0,0,0,0,0,0,0,0,0,0,0,0,0,0,0,0,0,0,0,0,0,0,0,0,0,0,0,0,0,0,0,0,0,0,0,0,0]","[0.00030000001192220793,0.01370000001788263,0.027300000011921455,0.03780000001192185,0.0541000000238423,0.06740000000596069,0.077800000011921,0.0940000000000012,0.10740000000596162,0.12070000001788195,0.13100000000000023,0.14740000000596076,0.16080000001192118,0.17100000000000115,0.18760000002384203,0.19760000002384182,0.2110000000000003,0.22760000002384295,0.23770000001788283,0.2542000000178817,0.26750000000000007,0.2808000000119222,0.2941000000238425,0.3074000000059609,0.3206000000238429,0.3340000000000014,0.34730000001192174,0.36060000002384207,0.3754000000059605,0.38430000001192255,0.3976000000238429,0.4140000000000015,0.4275000000000002,0.44090000000596064,0.45430000001192106,0.46440000000596093,0.48080000001192147,0.49390000000596146]",,12,0,12,0,1,,,,
,,A000000000,2022-11-28_21h47.54.963,GoFitts,2022.2.4,Win32,75.43184733,,,,,,,,,,,,,,,,,,"[-195.62952014676114,41.58233816355186]","[200,0]",48,400,0,"[-196,-199,-200,-202,-204,-205,-205,-205,-206,-206,-202,-194,-173,-130,-93,-12,53,110,152,176,188,194,195,195,195,195,195,195,196,196,196,196]","[63,56,53,48,45,43,42,42,42,42,43,45,48,49,49,48,45,42,40,37,34,31,30,30,30,30,30,30,28,27,25,23]","[0,0,0,0,0,0,0,0,0,0,0,0,0,0,0,0,0,0,0,0,0,0,0,0,0,0,0,0,0,0,0,0]","[0,0,0,0,0,0,0,0,0,0,0,0,0,0,0,0,0,0,0,0,0,0,0,0,0,0,0,0,0,0,0,0]","[0,0,0,0,0,0,0,0,0,0,0,0,0,0,0,0,0,0,0,0,0,0,0,0,0,0,0,0,0,0,0,0]","[0.00009999999404008975,0.01329999998212017,0.023599999994040388,0.03689999997615878,0.0502999999821192,0.06689999997615814,0.08050000000000068,0.09329999998212024,0.10369999998808055,0.11709999999404097,0.1335000000000015,0.1435000000000013,0.15689999997615978,0.17319999998808022,0.18359999999404053,0.19989999997615726,0.21329999998211946,0.22650000000000148,0.240000000000002,0.2531999999880803,0.26659999999403894,0.2798999999761591,0.29329999998211775,0.30639999997615774,0.31689999997615814,0.33029999998212034,0.3435999999940407,0.3602999999821179,0.3702999999821195,0.3868999999761584,0.40019999998807876,0.41050000000000253]",,13,0,13,0,1,,,,
,,A000000000,2022-11-28_21h47.54.963,GoFitts,2022.2.4,Win32,75.43184733,,,,,,,,,,,,,,,,,,"[200,0]","[-195.62952014676114,-41.58233816355181]",48,400,0,"[196,196,196,196,197,197,197,197,196,194,192,189,180,160,142,109,65,0,-53,-99,-136,-159,-173]","[23,18,14,11,8,5,5,3,1,0,-2,-3,-5,-8,-8,-12,-15,-23,-28,-31,-33,-35,-35]","[0,0,0,0,0,0,0,0,0,0,0,0,0,0,0,0,0,0,0,0,0,0,0]","[0,0,0,0,0,0,0,0,0,0,0,0,0,0,0,0,0,0,0,0,0,0,0]","[0,0,0,0,0,0,0,0,0,0,0,0,0,0,0,0,0,0,0,0,0,0,0]","[0.0001999999880801795,0.017299999982117953,0.029400000005960436,0.03969999998807694,0.053000000000000824,0.06959999999403976,0.07969999998807964,0.09629999998211858,0.10640000000595862,0.12279999998211899,0.1330999999940392,0.1461999999880792,0.1595999999940414,0.17609999999404202,0.18640000000596224,0.19959999999404054,0.21309999999404106,0.22929999998211947,0.24269999998808167,0.256000000000002,0.2692999999821186,0.2825999999940425,0.29590000000596284]",,14,0,14,0,1,,,,
,,A000000000,2022-11-28_21h47.54.963,GoFitts,2022.2.4,Win32,75.43184733,,,,,,,,,,,,,,,,,,,,,,0,,,,,,,,,,,,,0,0,0,1
,,A000000000,2022-11-28_21h47.54.963,GoFitts,2022.2.4,Win32,75.43184733,,,,,,,,,,,,,,,,return,0.4004,"[152,34]","[158.91851901022883,176.49689605088113]",40.5,475,1,"[152,152,152,152,152,152,152,152,152,149,143,136,129,119,112,99,91,81,74,67,65,64,66,73,83,99,114,125,138,145,150,155,158]","[34,34,34,34,34,34,34,34,34,34,33,30,28,26,24,24,23,23,23,25,32,39,56,70,84,97,108,119,129,138,146,153,160]","[0,0,0,0,0,0,0,0,0,0,0,0,0,0,0,0,0,0,0,0,0,0,0,0,0,0,0,0,0,0,0,0,0]","[0,0,0,0,0,0,0,0,0,0,0,0,0,0,0,0,0,0,0,0,0,0,0,0,0,0,0,0,0,0,0,0,0]","[0,0,0,0,0,0,0,0,0,0,0,0,0,0,0,0,0,0,0,0,0,0,0,0,0,0,0,0,0,0,0,0,0]","[0.0005999999940371481,0.014599999994036494,0.023099999994038,0.0365000000000002,0.05299999999999727,0.067499999999999,0.07640000000595748,0.0929000000059581,0.10319999998807816,0.11929999998211827,0.1326999999880769,0.1460999999940391,0.1562999999821173,0.17269999998807606,0.18309999999403814,0.1994999999999969,0.21269999998807876,0.22619999998807927,0.2391999999880774,0.2526999999880779,0.26609999999403655,0.2764000000059603,0.29299999999999926,0.30619999998807756,0.31929999998211755,0.3326999999880762,0.3460999999940384,0.3592999999821167,0.3724999999999987,0.3861999999880794,0.39929999998211585,0.41269999998807805,0.4259999999999984]",,0,0,0,0,1,,,,
,,A000000000,2022-11-28_21h47.54.963,GoFitts,2022.2.4,Win32,75.43184733,,,,,,,,,,,,,,,,,,"[158.91851901022883,176.49689605088113]","[-118.7500000000001,-205.68103339880415]",40.5,475,1,"[158,162,164,166,166,167,167,167,167,166,163,158,149,134,111,82,50,19,-9,-32,-48,-60,-69,-73,-76,-77,-80,-81,-83,-85,-87,-90,-93,-96,-101]","[160,167,172,176,178,179,179,179,179,179,179,173,164,148,122,89,41,-3,-39,-71,-94,-112,-128,-140,-149,-156,-163,-168,-173,-178,-183,-187,-192,-196,-201]","[0,0,0,0,0,0,0,0,0,0,0,0,0,0,0,0,0,0,0,0,0,0,0,0,0,0,0,0,0,0,0,0,0,0,0]","[0,0,0,0,0,0,0,0,0,0,0,0,0,0,0,0,0,0,0,0,0,0,0,0,0,0,0,0,0,0,0,0,0,0,0]","[0,0,0,0,0,0,0,0,0,0,0,0,0,0,0,0,0,0,0,0,0,0,0,0,0,0,0,0,0,0,0,0,0,0,0]","[0.0003000000119186552,0.013999999999999346,0.02699999999999747,0.04080000001192019,0.05359999999403797,0.06680000001191999,0.0799999999999983,0.09299999999999997,0.10370000001788071,0.11670000001787884,0.13309999999403743,0.14680000001192184,0.15990000000595828,0.17320000001788216,0.18640000000596046,0.1997000000178808,0.21309999999403928,0.2264000000059596,0.23970000001787994,0.2530000000000001,0.2665000000000006,0.2797000000178791,0.2930999999940376,0.3064999999999998,0.31680000001192,0.32990000000596,0.3464000000059606,0.35980000001191925,0.37320000001788145,0.38649999999999807,0.3997000000178801,0.41309999999403857,0.4264000000059589,0.4367000000178791,0.4529999999999994]",,1,0,1,0,1,,,,
,,A000000000,2022-11-28_21h47.54.963,GoFitts,2022.2.4,Win32,75.43184733,,,,,,,,,,,,,,,,,,"[-118.7500000000001,-205.68103339880415]","[73.39153616405002,225.87592262009898]",40.5,475,1,"[-101,-105,-109,-111,-112,-112,-112,-112,-112,-113,-109,-101,-90,-75,-56,-36,-5,14,27,39,48,57,62,66,70,72,74,76,77]","[-201,-204,-206,-208,-209,-209,-209,-209,-207,-199,-181,-153,-118,-76,-26,12,63,96,117,137,154,167,178,184,192,195,201,204,207]","[0,0,0,0,0,0,0,0,0,0,0,0,0,0,0,0,0,0,0,0,0,0,0,0,0,0,0,0,0]","[0,0,0,0,0,0,0,0,0,0,0,0,0,0,0,0,0,0,0,0,0,0,0,0,0,0,0,0,0]","[0,0,0,0,0,0,0,0,0,0,0,0,0,0,0,0,0,0,0,0,0,0,0,0,0,0,0,0,0]","[0.0002999999821184929,0.01329999998212017,0.026599999994040502,0.03989999997616067,0.05309999999403914,0.06669999998808152,0.07979999998211795,0.09019999998808004,0.10369999998808055,0.11689999997615885,0.13329999998212116,0.14689999997616,0.1598999999761581,0.1732999999821203,0.18659999999404064,0.1968999999761607,0.21319999998808115,0.22669999998808166,0.23679999998211798,0.2502999999821185,0.2666999999880808,0.2798999999761591,0.29319999998807944,0.30349999999999966,0.31989999997615826,0.3301999999880785,0.3462999999821186,0.3597999999821191,0.3732999999821196]",,2,0,2,0,1,,,,
,,A000000000,2022-11-28_21h47.54.963,GoFitts,2022.2.4,Win32,75.43184733,,,,,,,,,,,,,,,,,,"[73.39153616405002,225.87592262009898]","[-24.82551002606788,-236.1989501499649]",40.5,475,1,"[77,78,78,78,78,78,78,78,78,78,78,75,68,59,44,31,17,4,-11,-20,-25,-29,-31,-33,-35,-35]","[207,209,211,212,213,215,216,217,217,217,217,212,197,180,139,94,42,-9,-56,-100,-137,-166,-188,-204,-217,-224]","[0,0,0,0,0,0,0,0,0,0,0,0,0,0,0,0,0,0,0,0,0,0,0,0,0,0]","[0,0,0,0,0,0,0,0,0,0,0,0,0,0,0,0,0,0,0,0,0,0,0,0,0,0]","[0,0,0,0,0,0,0,0,0,0,0,0,0,0,0,0,0,0,0,0,0,0,0,0,0,0]","[0.0001999999880801795,0.013000000000001677,0.02650000000000219,0.03959999999404218,0.05019999998808089,0.06329999998212088,0.07669999998807953,0.09029999998211835,0.10650000000000048,0.11989999997615897,0.13029999998212105,0.14389999997615988,0.1598999999761581,0.17009999999404002,0.18689999997615914,0.19979999998211895,0.21319999998808115,0.22650000000000148,0.23989999997615996,0.253099999994042,0.2665000000000006,0.28000000000000114,0.2930999999940411,0.3064999999999998,0.31989999997615826,0.3331999999880786]",,3,0,3,0,1,,,,
,,A000000000,2022-11-28_21h47.54.963,GoFitts,2022.2.4,Win32,75.43184733,,,,,,,,,,,,,,,,,,"[-24.82551002606788,-236.1989501499649]","[-24.825510026067665,236.19895014996493]",40.5,475,1,"[-35,-36,-37,-37,-37,-37,-38,-38,-38,-38,-38,-38,-38,-38,-38,-38,-38,-39,-41,-45,-46,-46,-44,-43,-42,-41]","[-224,-229,-233,-234,-235,-236,-238,-238,-239,-239,-239,-240,-240,-237,-228,-210,-178,-124,-54,7,87,138,179,204,219,228]","[0,0,0,0,0,0,0,0,0,0,0,0,0,0,0,0,0,0,0,0,0,0,0,0,0,0]","[0,0,0,0,0,0,0,0,0,0,0,0,0,0,0,0,0,0,0,0,0,0,0,0,0,0]","[0,0,0,0,0,0,0,0,0,0,0,0,0,0,0,0,0,0,0,0,0,0,0,0,0,0]","[0.0003000000119186552,0.013300000011920332,0.026499999999998636,0.04020000001787949,0.053200000017881166,0.06359999999403954,0.07949999999999946,0.09330000001191863,0.10370000001788071,0.11699999999999733,0.13309999999403743,0.14680000001191829,0.15990000000595828,0.1745999999940402,0.1865999999940371,0.1998000000119191,0.2129999999999974,0.2264000000059596,0.23980000001191826,0.25,0.2665000000000006,0.27990000000595927,0.2932000000178796,0.3065999999940381,0.3199000000059584,0.33320000001787875]",,4,0,4,0,1,,,,
,,A000000000,2022-11-28_21h47.54.963,GoFitts,2022.2.4,Win32,75.43184733,,,,,,,,,,,,,,,,,,"[-24.825510026067665,236.19895014996493]","[73.39153616404997,-225.875922620099]",40.5,475,1,"[-41,-39,-38,-37,-37,-36,-35,-34,-34,-34,-33,-33,-33,-33,-33,-33,-31,-31,-27,-22,-8,5,27,40,52,58,63,66,68,69,69,70,71,72,72,73,75,76,77,78,79]","[228,234,237,240,241,244,245,247,248,249,250,252,252,252,252,245,227,205,173,133,85,38,-28,-74,-108,-131,-146,-156,-162,-167,-169,-172,-176,-178,-180,-183,-186,-191,-197,-204,-212]","[0,0,0,0,0,0,0,0,0,0,0,0,0,0,0,0,0,0,0,0,0,0,0,0,0,0,0,0,0,0,0,0,0,0,0,0,0,0,0,0,0]","[0,0,0,0,0,0,0,0,0,0,0,0,0,0,0,0,0,0,0,0,0,0,0,0,0,0,0,0,0,0,0,0,0,0,0,0,0,0,0,0,0]","[0,0,0,0,0,0,0,0,0,0,0,0,0,0,0,0,0,0,0,0,0,0,0,0,0,0,0,0,0,0,0,0,0,0,0,0,0,0,0,0,0]","[0.0000999999940418661,0.013000000000001677,0.02630000001192201,0.03969999998808049,0.05000000000000071,0.06650000000000134,0.07680000001192155,0.09009999999404172,0.10669999998808066,0.12009999999403931,0.13019999998807918,0.14640000000596132,0.1565999999940395,0.17300000000000182,0.18330000001192204,0.19690000000596086,0.21300000000000097,0.2264000000059596,0.23959999999404147,0.2530000000000001,0.2664000000059623,0.2766999999880788,0.2930999999940411,0.3061999999880811,0.3196999999880781,0.3331999999880786,0.3464000000059606,0.3598000000119228,0.3729000000059628,0.38630000001192144,0.3966999999880798,0.4101999999880803,0.42359999999403897,0.43969999998807907,0.4529000000059611,0.46630000001191974,0.47980000001192025,0.49319999998807873,0.5064000000059607,0.5196999999880809,0.5330999999940396]",,5,0,5,0,1,,,,
,,A000000000,2022-11-28_21h47.54.963,GoFitts,2022.2.4,Win32,75.43184733,,,,,,,,,,,,,,,,,,"[73.39153616404997,-225.875922620099]","[-118.74999999999994,205.6810333988042]",40.5,475,1,"[79,79,79,79,79,79,79,79,79,79,78,74,72,63,51,37,21,3,-22,-45,-70,-85,-97,-105,-109,-111,-113,-116,-118,-120,-120,-121]","[-212,-219,-226,-231,-234,-235,-236,-236,-236,-236,-235,-229,-220,-198,-171,-140,-109,-72,-24,19,62,90,113,131,142,153,160,171,176,182,184,187]","[0,0,0,0,0,0,0,0,0,0,0,0,0,0,0,0,0,0,0,0,0,0,0,0,0,0,0,0,0,0,0,0]","[0,0,0,0,0,0,0,0,0,0,0,0,0,0,0,0,0,0,0,0,0,0,0,0,0,0,0,0,0,0,0,0]","[0,0,0,0,0,0,0,0,0,0,0,0,0,0,0,0,0,0,0,0,0,0,0,0,0,0,0,0,0,0,0,0]","[0.0001999999880801795,0.01309999999403999,0.02650000000000219,0.039799999982118806,0.053199999988081004,0.06359999999403954,0.07989999997615982,0.0922999999821208,0.10619999998808183,0.11979999998212065,0.13009999999404087,0.1466999999880798,0.15669999998808137,0.173199999988082,0.1863999999761603,0.19969999998808063,0.21300000000000097,0.22629999998212114,0.23979999998212165,0.2530000000000001,0.2663999999761586,0.27969999998807893,0.2930999999940411,0.3063999999761613,0.3200000000000003,0.3330999999940403,0.34339999997616033,0.3597999999821191,0.3730000000000011,0.3862999999821213,0.3966999999880798,0.41319999998808044]",,6,0,6,0,1,,,,
,,A000000000,2022-11-28_21h47.54.963,GoFitts,2022.2.4,Win32,75.43184733,,,,,,,,,,,,,,,,,,"[-118.74999999999994,205.6810333988042]","[158.9185190102289,-176.49689605088108]",40.5,475,1,"[-121,-121,-122,-123,-124,-125,-126,-126,-126,-126,-126,-126,-126,-122,-114,-104,-87,-57,-26,4,33,55,72,87,99,109,115,121,125,129,132,134,138,141]","[187,188,189,191,196,202,207,210,211,211,211,211,208,197,173,150,116,66,22,-17,-47,-72,-95,-113,-129,-139,-146,-153,-159,-164,-169,-172,-177,-181]","[0,0,0,0,0,0,0,0,0,0,0,0,0,0,0,0,0,0,0,0,0,0,0,0,0,0,0,0,0,0,0,0,0,0]","[0,0,0,0,0,0,0,0,0,0,0,0,0,0,0,0,0,0,0,0,0,0,0,0,0,0,0,0,0,0,0,0,0,0]","[0,0,0,0,0,0,0,0,0,0,0,0,0,0,0,0,0,0,0,0,0,0,0,0,0,0,0,0,0,0,0,0,0,0]","[0.00030000001192220793,0.01309999999403999,0.023599999994040388,0.03980000001192252,0.053200000017881166,0.06670000001788168,0.07990000000596353,0.09009999999404172,0.10670000001788438,0.1168000000119207,0.133200000017883,0.1433000000119229,0.15700000000000003,0.17020000001788205,0.18640000000596046,0.19690000000596086,0.20990000000596254,0.2265999999940398,0.2398000000119218,0.253200000017884,0.2665999999940425,0.2799000000059628,0.29320000001788316,0.3064999999999998,0.3197000000178818,0.33290000000596365,0.3464000000059606,0.360000000000003,0.3730999999940394,0.3864000000059633,0.3995999999940416,0.41000000000000014,0.42640000000596245,0.4397000000178828]",,7,0,7,0,1,,,,
,,A000000000,2022-11-28_21h47.54.963,GoFitts,2022.2.4,Win32,75.43184733,,,,,,,,,,,,,,,,,,"[158.9185190102289,-176.49689605088108]","[-192.14153616405,139.5989974194624]",40.5,475,1,"[141,143,147,150,153,155,156,156,156,156,156,156,157,158,156,151,139,115,83,52,7,-43,-80,-104,-120,-129,-138,-142,-146,-150,-153,-155,-159,-164,-167,-170,-174,-179]","[-181,-185,-190,-194,-197,-198,-199,-199,-199,-199,-199,-199,-196,-194,-187,-178,-160,-132,-97,-69,-25,19,50,69,86,96,106,113,119,123,124,125,126,127,128,128,130,132]","[0,0,0,0,0,0,0,0,0,0,0,0,0,0,0,0,0,0,0,0,0,0,0,0,0,0,0,0,0,0,0,0,0,0,0,0,0,0]","[0,0,0,0,0,0,0,0,0,0,0,0,0,0,0,0,0,0,0,0,0,0,0,0,0,0,0,0,0,0,0,0,0,0,0,0,0,0]","[0,0,0,0,0,0,0,0,0,0,0,0,0,0,0,0,0,0,0,0,0,0,0,0,0,0,0,0,0,0,0,0,0,0,0,0,0,0]","[0.00009999999403831339,0.01309999999403999,0.026599999994040502,0.03980000001192252,0.05309999999403914,0.06680000001191999,0.07980000001192167,0.09340000000596049,0.10350000000000037,0.1197000000178825,0.13009999999404087,0.14349999999999952,0.16030000001192235,0.17020000001788205,0.18630000001192215,0.19930000001192028,0.2128000000119208,0.22650000000000148,0.23959999999404147,0.25,0.2634000000059622,0.27990000000595927,0.29330000001192147,0.3065999999940381,0.3197000000178818,0.33009999999404016,0.3463000000119223,0.35970000001788094,0.3730000000000011,0.38630000001192144,0.39690000000596015,0.41009999999403846,0.4264000000059589,0.44030000001191993,0.4560999999940414,0.46659999999403823,0.47980000001192025,0.4930999999940404]",,8,0,8,0,1,,,,
,,A000000000,2022-11-28_21h47.54.963,GoFitts,2022.2.4,Win32,75.43184733,,,,,,,,,,,,,,,,,,"[-192.14153616405,139.5989974194624]","[216.96704619011774,-96.59995273050254]",40.5,475,1,"[-179,-182,-186,-186,-187,-188,-188,-189,-189,-186,-174,-153,-117,-64,-19,53,131,182,217]","[132,133,133,134,134,134,134,134,130,126,116,102,85,58,35,2,-37,-62,-80]","[0,0,0,0,0,0,0,0,0,0,0,0,0,0,0,0,0,0,0]","[0,0,0,0,0,0,0,0,0,0,0,0,0,0,0,0,0,0,0]","[0,0,0,0,0,0,0,0,0,0,0,0,0,0,0,0,0,0,0]","[0.00019999998807662678,0.013299999982116617,0.023599999994040388,0.036999999999999034,0.05339999997615763,0.06349999999999767,0.0799999999999983,0.09049999999999869,0.1065999999940388,0.11700000000000088,0.13309999999403743,0.14649999999999963,0.1598999999761581,0.17319999998807845,0.18359999999403698,0.19679999998211883,0.21329999998211946,0.2265999999940398,0.2398999999761564]",,9,0,9,0,1,,,,
,,A000000000,2022-11-28_21h47.54.963,GoFitts,2022.2.4,Win32,75.43184733,,,,,,,,,,,,,,,,,,"[216.96704619011774,-96.59995273050254]","[-232.31005517427886,49.379026569217835]",40.5,475,1,"[217,236,246,253,255,256,256,256,257,257,257,257,257,257,257,257,254,245,228,197,150,93,31,-22,-70,-112,-140,-164,-176,-182,-186,-189,-191,-194,-197,-202,-207,-214,-221]","[-80,-91,-98,-103,-105,-106,-106,-107,-108,-108,-108,-109,-110,-111,-111,-112,-112,-111,-106,-97,-85,-70,-60,-49,-37,-25,-17,-8,-2,2,6,8,10,12,15,19,26,33,40]","[0,0,0,0,0,0,0,0,0,0,0,0,0,0,0,0,0,0,0,0,0,0,0,0,0,0,0,0,0,0,0,0,0,0,0,0,0,0,0]","[0,0,0,0,0,0,0,0,0,0,0,0,0,0,0,0,0,0,0,0,0,0,0,0,0,0,0,0,0,0,0,0,0,0,0,0,0,0,0]","[0,0,0,0,0,0,0,0,0,0,0,0,0,0,0,0,0,0,0,0,0,0,0,0,0,0,0,0,0,0,0,0,0,0,0,0,0,0,0]","[0.0002999999821184929,0.013199999988078304,0.026499999999998636,0.03969999998807694,0.05319999998807745,0.06659999999403965,0.07979999998211795,0.09040000000596038,0.10649999999999693,0.1170999999940392,0.13049999999999784,0.14399999999999835,0.16009999999403846,0.17069999998807717,0.18390000000595919,0.1976999999880782,0.21340000000595793,0.2266999999880781,0.23969999998807623,0.2534000000059571,0.26669999998807725,0.27959999999403706,0.2930999999940376,0.3065999999940381,0.3197999999821164,0.3329000000059601,0.34659999999403723,0.35990000000595757,0.37319999998807774,0.38649999999999807,0.39979999998211824,0.4131999999880769,0.4264000000059589,0.4397999999821174,0.4502999999821178,0.46659999999403823,0.4796999999880782,0.49299999999999855,0.5064000000059572]",,10,0,10,0,1,,,,
,,A000000000,2022-11-28_21h47.54.963,GoFitts,2022.2.4,Win32,75.43184733,,,,,,,,,,,,,,,,,,"[-232.31005517427886,49.379026569217835]","[237.5,0]",40.5,475,1,"[-221,-226,-231,-236,-240,-242,-244,-244,-244,-244,-244,-244,-241,-225,-203,-169,-118,-62,2,57,112,149,179,200,214,224]","[40,44,47,49,52,53,54,54,54,54,54,54,53,49,47,44,41,38,34,30,23,18,13,11,9,8]","[0,0,0,0,0,0,0,0,0,0,0,0,0,0,0,0,0,0,0,0,0,0,0,0,0,0]","[0,0,0,0,0,0,0,0,0,0,0,0,0,0,0,0,0,0,0,0,0,0,0,0,0,0]","[0,0,0,0,0,0,0,0,0,0,0,0,0,0,0,0,0,0,0,0,0,0,0,0,0,0]","[0.00020000001788389454,0.01309999999403999,0.026400000005963875,0.039900000005960834,0.05309999999404269,0.06650000000000134,0.07980000001192167,0.09280000001192334,0.10359999999404224,0.11690000000596257,0.13309999999404099,0.14650000000000318,0.15690000000596172,0.17320000001788216,0.18640000000596046,0.20000000000000284,0.21320000001788486,0.22650000000000148,0.24080000001192303,0.2530000000000001,0.2665000000000006,0.2799000000059628,0.2930999999940411,0.30630000001192315,0.31980000001192366,0.33290000000596365]",,11,0,11,0,1,,,,
,,A000000000,2022-11-28_21h47.54.963,GoFitts,2022.2.4,Win32,75.43184733,,,,,,,,,,,,,,,,,,"[237.5,0]","[-232.31005517427886,-49.37902656921778]",40.5,475,1,"[224,232,238,240,243,243,243,244,244,244,244,244,244,244,244,242,226,201,162,110,40,-29,-90,-141,-178,-202,-215]","[8,6,5,4,2,2,2,1,1,1,1,1,1,1,1,0,-1,-3,-5,-8,-13,-18,-25,-32,-39,-47,-54]","[0,0,0,0,0,0,0,0,0,0,0,0,0,0,0,0,0,0,0,0,0,0,0,0,0,0,0]","[0,0,0,0,0,0,0,0,0,0,0,0,0,0,0,0,0,0,0,0,0,0,0,0,0,0,0]","[0,0,0,0,0,0,0,0,0,0,0,0,0,0,0,0,0,0,0,0,0,0,0,0,0,0,0]","[0.00010000002384202844,0.013300000011920332,0.026800000011920844,0.039900000005960834,0.05310000002384285,0.06380000001192343,0.07710000002384376,0.09350000000000236,0.10370000001788071,0.120000000000001,0.1305000000000014,0.1437000000178834,0.15710000002384206,0.17040000000596223,0.18670000001788267,0.19750000000000156,0.2134000000059615,0.22670000001788182,0.23990000000596012,0.2533000000119223,0.26690000000596115,0.2799000000059628,0.29330000001192147,0.3066000000238418,0.31990000000596197,0.3333000000119206,0.3467000000178828]",,12,0,12,0,1,,,,
,,A000000000,2022-11-28_21h47.54.963,GoFitts,2022.2.4,Win32,75.43184733,,,,,,,,,,,,,,,,,,"[-232.31005517427886,-49.37902656921778]","[216.9670461901177,96.59995273050254]",40.5,475,1,"[-215,-222,-224,-226,-227,-231,-234,-236,-237,-237,-237,-237,-237,-237,-236,-221,-199,-160,-122,-59,21,76,116,143,158,167,172,173,174,176,177,179,182,184,186,191,193,197,198,202]","[-54,-60,-62,-65,-66,-68,-69,-69,-70,-70,-70,-70,-70,-70,-67,-59,-49,-35,-23,-4,14,25,38,46,52,56,59,61,63,64,66,68,71,72,76,79,81,84,86,87]","[0,0,0,0,0,0,0,0,0,0,0,0,0,0,0,0,0,0,0,0,0,0,0,0,0,0,0,0,0,0,0,0,0,0,0,0,0,0,0,0]","[0,0,0,0,0,0,0,0,0,0,0,0,0,0,0,0,0,0,0,0,0,0,0,0,0,0,0,0,0,0,0,0,0,0,0,0,0,0,0,0]","[0,0,0,0,0,0,0,0,0,0,0,0,0,0,0,0,0,0,0,0,0,0,0,0,0,0,0,0,0,0,0,0,0,0,0,0,0,0,0,0]","[0.00020000001788034183,0.012999999999998124,0.026400000005960322,0.03990000000595728,0.05020000001788105,0.06659999999403965,0.07959999999403777,0.09320000001788031,0.10349999999999682,0.1168000000119207,0.13020000001787935,0.14380000001191817,0.15730000001191868,0.17030000001192036,0.18340000000596035,0.1999999999999993,0.21309999999403928,0.2264000000059596,0.23690000000596,0.25030000001191866,0.26640000000595876,0.27980000001192096,0.29299999999999926,0.3063000000119196,0.31680000001192,0.33020000001787864,0.34659999999403723,0.35999999999999943,0.37320000001788145,0.3868000000119203,0.4002000000178789,0.41309999999403857,0.4264999999999972,0.4370999999940395,0.45290000000595754,0.4635999999940381,0.47690000000595845,0.49309999999403686,0.5035999999940373,0.5168000000119193]",,13,0,13,0,1,,,,
,,A000000000,2022-11-28_21h47.54.963,GoFitts,2022.2.4,Win32,75.43184733,,,,,,,,,,,,,,,,,,"[216.9670461901177,96.59995273050254]","[-192.14153616405002,-139.59899741946234]",40.5,475,1,"[202,207,210,214,217,218,218,218,218,214,203,185,157,121,86,51,20,-12,-39,-59,-75,-88,-100,-109,-118,-125,-132,-138,-143,-149,-155,-161,-165,-169,-174]","[87,89,90,91,91,91,91,91,91,87,81,70,55,38,22,7,-11,-30,-47,-61,-73,-83,-90,-97,-103,-107,-111,-113,-117,-120,-123,-126,-128,-129,-132]","[0,0,0,0,0,0,0,0,0,0,0,0,0,0,0,0,0,0,0,0,0,0,0,0,0,0,0,0,0,0,0,0,0,0,0]","[0,0,0,0,0,0,0,0,0,0,0,0,0,0,0,0,0,0,0,0,0,0,0,0,0,0,0,0,0,0,0,0,0,0,0]","[0,0,0,0,0,0,0,0,0,0,0,0,0,0,0,0,0,0,0,0,0,0,0,0,0,0,0,0,0,0,0,0,0,0,0]","[0.00009999999403831339,0.016099999994040104,0.02990000000595927,0.03980000001191897,0.05609999999403925,0.06970000001788179,0.08020000001787864,0.0934999999999988,0.106900000005961,0.12280000001192093,0.13609999999403755,0.14959999999403806,0.1629000000059584,0.17609999999404025,0.18940000000596058,0.20280000001191922,0.21499999999999986,0.2289999999999992,0.24299999999999855,0.25609999999403854,0.26959999999403905,0.28280000001192107,0.2960999999940377,0.309400000005958,0.3227000000178819,0.3359999999999985,0.34949999999999903,0.3599000000059611,0.37609999999403954,0.3894999999999982,0.4028000000119185,0.4160999999940387,0.429400000005959,0.4428000000119212,0.4559999999999995]",,14,0,14,0,1,,,,
,,A000000000,2022-11-28_21h47.54.963,GoFitts,2022.2.4,Win32,75.43184733,,,,,,,,,,,,,,,,,,,,,,1,,,,,,,,,,,,,1,0,0,1
,,A000000000,2022-11-28_21h47.54.963,GoFitts,2022.2.4,Win32,75.43184733,,,,,,,,,,,,,,,,return,0.3602,"[-191,-141]","[15.450849718747373,47.552825814757675]",80,100,2,"[-191,-191,-191,-191,-191,-188,-186,-182,-178,-171,-164,-154,-143,-131,-115,-98,-80,-60,-39,-21,-4,9,18,24,28,29,30,31,32,32]","[-141,-141,-141,-141,-141,-141,-141,-139,-138,-136,-133,-128,-122,-116,-108,-98,-86,-74,-63,-52,-40,-31,-21,-14,-8,-3,2,6,10,16]","[0,0,0,0,0,0,0,0,0,0,0,0,0,0,0,0,0,0,0,0,0,0,0,0,0,0,0,0,0,0]","[0,0,0,0,0,0,0,0,0,0,0,0,0,0,0,0,0,0,0,0,0,0,0,0,0,0,0,0,0,0]","[0,0,0,0,0,0,0,0,0,0,0,0,0,0,0,0,0,0,0,0,0,0,0,0,0,0,0,0,0,0]","[0.0004999999999988347,0.014300000011921554,0.026599999994040502,0.039900000005960834,0.0496999999880785,0.06769999998807918,0.07690000000595987,0.09299999999999997,0.10640000000595862,0.12019999998807762,0.1329000000059608,0.1460000000000008,0.15930000001192113,0.17299999999999827,0.18630000001192215,0.20090000000595865,0.2129000000059591,0.22619999998807927,0.2394000000059613,0.25280000001191993,0.26630000001192045,0.27940000000596044,0.29290000000596095,0.30609999999403925,0.3194999999999979,0.3328000000119218,0.3460999999940384,0.35940000000595873,0.36990000000595913,0.38649999999999807]",,0,0,0,0,1,,,,
,,A000000000,2022-11-28_21h47.54.963,GoFitts,2022.2.4,Win32,75.43184733,,,,,,,,,,,,,,,,,,"[15.450849718747373,47.552825814757675]","[-5.226423163382711,-49.72609476841367]",80,100,2,"[32,32,32,33,33,33,33,33,33,33,33,33,33,31,31,31,33,36,38,39,40,40,39,37,34,31]","[16,23,26,34,39,46,50,52,52,52,52,52,50,44,36,22,8,-8,-20,-29,-38,-46,-50,-57,-62,-65]","[0,0,0,0,0,0,0,0,0,0,0,0,0,0,0,0,0,0,0,0,0,0,0,0,0,0]","[0,0,0,0,0,0,0,0,0,0,0,0,0,0,0,0,0,0,0,0,0,0,0,0,0,0]","[0,0,0,0,0,0,0,0,0,0,0,0,0,0,0,0,0,0,0,0,0,0,0,0,0,0]","[0.00020000001788034183,0.012800000011921497,0.02320000001788003,0.03960000002384234,0.052800000011920645,0.06650000000000134,0.07960000002384149,0.09280000001191979,0.10620000001788199,0.11960000002384064,0.129999999999999,0.14649999999999963,0.15970000001788165,0.17010000002384373,0.18330000001192204,0.19660000002384237,0.2102000000178812,0.22620000001788299,0.2394999999999996,0.25280000001191993,0.26630000001192045,0.2796000000238408,0.28990000000596083,0.3062000000178813,0.31950000000000145,0.33270000001788347]",,1,0,1,0,1,,,,
,,A000000000,2022-11-28_21h47.54.963,GoFitts,2022.2.4,Win32,75.43184733,,,,,,,,,,,,,,,,,,"[-5.226423163382711,-49.72609476841367]","[-5.226423163382667,49.72609476841367]",80,100,2,"[31,27,23,20,17,14,11,7,4,1,-1,-3,-5,-6,-6,-7]","[-65,-68,-69,-69,-68,-64,-60,-52,-46,-41,-32,-24,-15,-5,6,17]","[0,0,0,0,0,0,0,0,0,0,0,0,0,0,0,0]","[0,0,0,0,0,0,0,0,0,0,0,0,0,0,0,0]","[0,0,0,0,0,0,0,0,0,0,0,0,0,0,0,0]","[0.00020000001788034183,0.013400000005958645,0.026400000005960322,0.039700000017880654,0.0531000000238393,0.06680000001191999,0.07710000002384021,0.09330000001191863,0.10649999999999693,0.11699999999999733,0.13330000001191777,0.14640000000595776,0.15980000001191996,0.1732000000178786,0.18649999999999878,0.1998000000119191]",,2,0,2,0,1,,,,
,,A000000000,2022-11-28_21h47.54.963,GoFitts,2022.2.4,Win32,75.43184733,,,,,,,,,,,,,,,,,,"[-5.226423163382667,49.72609476841367]","[15.450849718747362,-47.55282581475768]",80,100,2,"[-7,-8,-8,-9,-10,-10,-10,-10,-10,-10,-7,0,10,22,33,38]","[17,27,36,43,47,48,48,48,48,47,41,32,18,5,-9,-16]","[0,0,0,0,0,0,0,0,0,0,0,0,0,0,0,0]","[0,0,0,0,0,0,0,0,0,0,0,0,0,0,0,0]","[0,0,0,0,0,0,0,0,0,0,0,0,0,0,0,0]","[0.00020000001788034183,0.013300000011920332,0.026499999999998636,0.039900000005960834,0.0531000000238393,0.06660000002383981,0.07980000001192167,0.09340000000596049,0.10370000001788071,0.11720000001788122,0.1303000000119212,0.14370000001787986,0.15980000001191996,0.17320000001788216,0.18640000000596046,0.19690000000596086]",,3,0,3,0,1,,,,
,,A000000000,2022-11-28_21h47.54.963,GoFitts,2022.2.4,Win32,75.43184733,,,,,,,,,,,,,,,,,,"[15.450849718747362,-47.55282581475768]","[-24.99999999999999,43.30127018922194]",80,100,2,"[38,45,48,50,52,54,54,54,54,54,53,47,40,28,19,2,-10]","[-16,-26,-33,-37,-41,-47,-48,-48,-48,-48,-45,-38,-28,-19,-12,0,9]","[0,0,0,0,0,0,0,0,0,0,0,0,0,0,0,0,0]","[0,0,0,0,0,0,0,0,0,0,0,0,0,0,0,0,0]","[0,0,0,0,0,0,0,0,0,0,0,0,0,0,0,0,0]","[0.0001999999880801795,0.016199999988078417,0.029199999988080094,0.04269999998807705,0.05319999998807745,0.06950000000000145,0.08299999999999841,0.09619999998808026,0.10959999999403891,0.12279999998211721,0.13599999999999923,0.14959999999403806,0.16259999999403973,0.17609999999404025,0.18659999999404064,0.20250000000000057,0.2166999999880801]",,4,0,4,0,1,,,,
,,A000000000,2022-11-28_21h47.54.963,GoFitts,2022.2.4,Win32,75.43184733,,,,,,,,,,,,,,,,,,"[-24.99999999999999,43.30127018922194]","[33.45653031794292,-37.1572412738697]",80,100,2,"[-10,-19,-27,-32,-33,-34,-34,-34,-35,-33,-32,-26,-16,-6,6]","[9,14,18,21,22,22,22,22,21,16,12,7,2,-4,-9]","[0,0,0,0,0,0,0,0,0,0,0,0,0,0,0]","[0,0,0,0,0,0,0,0,0,0,0,0,0,0,0]","[0,0,0,0,0,0,0,0,0,0,0,0,0,0,0]","[0.00020000001788389454,0.012600000023841318,0.025700000017881308,0.03920000001788182,0.04970000001788222,0.06640000000596302,0.0765000000000029,0.09240000000596282,0.10600000000000165,0.11930000001192198,0.12950000000000017,0.1431000000238427,0.15930000001192113,0.17260000002384146,0.18590000000596163]",,5,0,5,0,1,,,,
,,A000000000,2022-11-28_21h47.54.963,GoFitts,2022.2.4,Win32,75.43184733,,,,,,,,,,,,,,,,,,"[33.45653031794292,-37.1572412738697]","[-40.450849718747364,29.38926261462366]",80,100,2,"[6,18,29,41,47,50,50,50,50,48,35,22,4,-16,-36,-47,-53,-54,-54,-54,-54,-54,-53,-46,-34,-16,5,24,39,48,51,52,52,52,52,52,50,43,30,13,-3,-16]","[-9,-13,-17,-21,-23,-24,-24,-24,-24,-24,-23,-21,-19,-17,-15,-13,-12,-12,-12,-12,-12,-12,-12,-12,-11,-10,-10,-9,-8,-7,-5,-5,-4,-2,-2,-1,0,1,2,2,4,4]","[0,0,0,0,0,0,0,0,0,0,0,0,0,0,0,0,0,0,0,0,0,0,0,0,0,0,0,0,0,0,0,0,0,0,0,0,0,0,0,0,0,0]","[0,0,0,0,0,0,0,0,0,0,0,0,0,0,0,0,0,0,0,0,0,0,0,0,0,0,0,0,0,0,0,0,0,0,0,0,0,0,0,0,0,0]","[0,0,0,0,0,0,0,0,0,0,0,0,0,0,0,0,0,0,0,0,0,0,0,0,0,0,0,0,0,0,0,0,0,0,0,0,0,0,0,0,0,0]","[0.0001999999880801795,0.013199999988081856,0.023500000000002075,0.03969999998808049,0.053199999988081004,0.06659999999403965,0.0768999999761597,0.09319999998808015,0.10650000000000048,0.1170999999940392,0.13309999999404099,0.14359999999404138,0.15700000000000003,0.1703999999761585,0.1833999999761602,0.19729999998212122,0.21369999998807998,0.2270000000000003,0.24549999999999983,0.2530000000000001,0.2663999999761586,0.276899999976159,0.29359999999403996,0.30659999999404164,0.31989999997615826,0.3330999999940403,0.3465999999940408,0.3595999999940389,0.3730000000000011,0.3861999999880794,0.39949999999999974,0.41319999998808044,0.4265999999940391,0.4400000000000013,0.4532999999821179,0.46359999999404167,0.4768999999761583,0.4902999999821205,0.5035000000000025,0.519599999994039,0.5330000000000013,0.54359999999404]",,6,0,6,0,1,,,,
,,A000000000,2022-11-28_21h47.54.963,GoFitts,2022.2.4,Win32,75.43184733,,,,,,,,,,,,,,,,,,"[-40.450849718747364,29.38926261462366]","[45.67727288213005,-20.336832153790006]",80,100,2,"[-16,-33,-43,-51,-53,-53,-53,-53,-53,-53,-53,-53,-53,-53,-51,-47,-39,-28,-9,16]","[4,4,5,6,6,6,6,6,6,6,6,6,6,6,7,7,5,1,-6,-14]","[0,0,0,0,0,0,0,0,0,0,0,0,0,0,0,0,0,0,0,0]","[0,0,0,0,0,0,0,0,0,0,0,0,0,0,0,0,0,0,0,0]","[0,0,0,0,0,0,0,0,0,0,0,0,0,0,0,0,0,0,0,0]","[0.0003000000119186552,0.016099999994040104,0.029200000017880257,0.04290000000596095,0.05590000000595907,0.06640000000595947,0.0799999999999983,0.09590000000595822,0.10650000000000048,0.12409999999404064,0.13309999999403743,0.14649999999999963,0.16009999999403846,0.17330000001192047,0.18970000001787923,0.20309999999403772,0.2160999999940394,0.22940000000595973,0.24249999999999972,0.25590000000595836]",,7,0,7,0,1,,,,
,,A000000000,2022-11-28_21h47.54.963,GoFitts,2022.2.4,Win32,75.43184733,,,,,,,,,,,,,,,,,,"[45.67727288213005,-20.336832153790006]","[-48.907380036690284,10.395584540887965]",80,100,2,"[16,40,65,80,89,91,91,91,91,91,90,86,74,61,41,19,-7,-30]","[-14,-22,-31,-34,-38,-39,-39,-39,-39,-39,-39,-39,-36,-31,-27,-24,-19,-16]","[0,0,0,0,0,0,0,0,0,0,0,0,0,0,0,0,0,0]","[0,0,0,0,0,0,0,0,0,0,0,0,0,0,0,0,0,0]","[0,0,0,0,0,0,0,0,0,0,0,0,0,0,0,0,0,0]","[0.00030000001192220793,0.013200000017882019,0.026600000023840664,0.039700000017880654,0.053200000017881166,0.06680000001191999,0.07700000000000173,0.09050000000000225,0.1039999999999992,0.11700000000000088,0.13060000002384342,0.14380000001192172,0.16000000000000014,0.17310000002384385,0.1866000000238408,0.19980000001192266,0.21330000001192317,0.2264000000059596]",,8,0,8,0,1,,,,
,,A000000000,2022-11-28_21h47.54.963,GoFitts,2022.2.4,Win32,75.43184733,,,,,,,,,,,,,,,,,,"[-48.907380036690284,10.395584540887965]","[50,0]",80,100,2,"[-30,-48,-62,-70,-75,-75,-75,-75,-75,-74,-69,-59,-43,-26,5,31]","[-16,-14,-13,-12,-12,-12,-12,-12,-12,-12,-12,-11,-10,-9,-8,-7]","[0,0,0,0,0,0,0,0,0,0,0,0,0,0,0,0]","[0,0,0,0,0,0,0,0,0,0,0,0,0,0,0,0]","[0,0,0,0,0,0,0,0,0,0,0,0,0,0,0,0]","[0.00019999998807662678,0.013199999988078304,0.02659999999403695,0.036899999976157005,0.05309999999403914,0.06689999997615814,0.07709999999404005,0.09309999999403828,0.10679999998211898,0.12029999998211593,0.1331999999880793,0.14659999999403794,0.16000000000000014,0.17050000000000054,0.18669999998807896,0.19989999997615726]",,9,0,9,0,1,,,,
,,A000000000,2022-11-28_21h47.54.963,GoFitts,2022.2.4,Win32,75.43184733,,,,,,,,,,,,,,,,,,"[50,0]","[-48.907380036690284,-10.395584540887953]",80,100,2,"[31,50,65,74,78,79,79,79,79,79,79,78,74,65,52,36,19,1,-14]","[-7,-6,-6,-6,-6,-5,-5,-5,-5,-5,-5,-2,-1,0,0,-1,-4,-8,-13]","[0,0,0,0,0,0,0,0,0,0,0,0,0,0,0,0,0,0,0]","[0,0,0,0,0,0,0,0,0,0,0,0,0,0,0,0,0,0,0]","[0,0,0,0,0,0,0,0,0,0,0,0,0,0,0,0,0,0,0]","[0.0000999999940418661,0.01309999999403999,0.025500000000000966,0.039599999994038626,0.050099999994039024,0.06669999998808152,0.07969999998807964,0.09019999998808004,0.10340000000596206,0.11700000000000088,0.13029999998212105,0.14649999999999963,0.15690000000596172,0.17319999998807845,0.18659999999404064,0.19979999998211895,0.21300000000000097,0.2266999999880781,0.23990000000596012]",,10,0,10,0,1,,,,
,,A000000000,2022-11-28_21h47.54.963,GoFitts,2022.2.4,Win32,75.43184733,,,,,,,,,,,,,,,,,,"[-48.907380036690284,-10.395584540887953]","[45.67727288213004,20.336832153790006]",80,100,2,"[-14,-28,-38,-44,-51,-52,-52,-52,-52,-52,-51,-46,-35,-23,-14,2,17]","[-13,-19,-23,-26,-27,-29,-29,-29,-29,-29,-25,-21,-13,-7,-3,6,15]","[0,0,0,0,0,0,0,0,0,0,0,0,0,0,0,0,0]","[0,0,0,0,0,0,0,0,0,0,0,0,0,0,0,0,0]","[0,0,0,0,0,0,0,0,0,0,0,0,0,0,0,0,0]","[0.00019999998807662678,0.01309999999403999,0.026499999999998636,0.03690000000596072,0.05299999999999727,0.06709999999403848,0.07990000000595998,0.0934999999999988,0.103699999988077,0.1170999999940392,0.13049999999999784,0.14349999999999952,0.15990000000595828,0.17309999999403658,0.18359999999403698,0.2000999999940376,0.2131999999880776]",,11,0,11,0,1,,,,
,,A000000000,2022-11-28_21h47.54.963,GoFitts,2022.2.4,Win32,75.43184733,,,,,,,,,,,,,,,,,,"[45.67727288213004,20.336832153790006]","[-40.45084971874737,-29.38926261462365]",80,100,2,"[17,32,42,53,58,60,60,60,60,60,57,47,33,17,-3,-20]","[15,23,30,37,39,41,41,41,41,41,39,34,26,16,5,-5]","[0,0,0,0,0,0,0,0,0,0,0,0,0,0,0,0]","[0,0,0,0,0,0,0,0,0,0,0,0,0,0,0,0]","[0,0,0,0,0,0,0,0,0,0,0,0,0,0,0,0]","[0.00020000001788389454,0.013200000017882019,0.02340000000596021,0.03970000001788421,0.053200000017881166,0.06660000002384336,0.07700000000000173,0.09350000000000236,0.10670000001788438,0.11700000000000088,0.1303000000119212,0.14670000001788353,0.15990000000596183,0.17320000001788216,0.18640000000596046,0.19970000001788435]",,12,0,12,0,1,,,,
,,A000000000,2022-11-28_21h47.54.963,GoFitts,2022.2.4,Win32,75.43184733,,,,,,,,,,,,,,,,,,"[-40.45084971874737,-29.38926261462365]","[33.456530317942914,37.157241273869715]",80,100,2,"[-20,-34,-43,-52,-57,-59,-60,-60,-60,-58,-56,-48,-41,-35,-27,-19,-13,-5,3]","[-5,-15,-22,-30,-38,-41,-44,-44,-45,-43,-37,-26,-16,-10,-1,8,14,21,27]","[0,0,0,0,0,0,0,0,0,0,0,0,0,0,0,0,0,0,0]","[0,0,0,0,0,0,0,0,0,0,0,0,0,0,0,0,0,0,0]","[0,0,0,0,0,0,0,0,0,0,0,0,0,0,0,0,0,0,0]","[0.00020000001788389454,0.013200000017882019,0.023599999994040388,0.03690000000596072,0.053400000005961346,0.06359999999403954,0.07949999999999946,0.09359999999404067,0.10409999999404107,0.11990000000596268,0.13040000000596308,0.14670000001788353,0.15980000001192352,0.17040000000596223,0.18370000001788256,0.19980000001192266,0.2104999999999997,0.22359999999403968,0.23959999999404147]",,13,0,13,0,1,,,,
,,A000000000,2022-11-28_21h47.54.963,GoFitts,2022.2.4,Win32,75.43184733,,,,,,,,,,,,,,,,,,"[33.456530317942914,37.157241273869715]","[-25.00000000000002,-43.301270189221924]",80,100,2,"[3,7,11,12,14,15,15,15,15,15,15,15,15,15,15,14,13,9,4,0,-7]","[27,32,35,37,39,39,39,40,40,40,40,40,40,38,36,33,27,18,7,-3,-16]","[0,0,0,0,0,0,0,0,0,0,0,0,0,0,0,0,0,0,0,0,0]","[0,0,0,0,0,0,0,0,0,0,0,0,0,0,0,0,0,0,0,0,0]","[0,0,0,0,0,0,0,0,0,0,0,0,0,0,0,0,0,0,0,0,0]","[0.00019999998807662678,0.013599999994038825,0.026699999988078815,0.03719999998807921,0.05079999998211804,0.06379999998211616,0.08039999997615865,0.0911999999880777,0.1042999999821177,0.11779999998211821,0.1338999999761583,0.14699999999999847,0.15769999998807904,0.1740999999940378,0.1869999999999976,0.1977999999821165,0.21069999998807631,0.2266999999880781,0.24029999998211693,0.25359999999403726,0.26689999997615743]",,14,0,14,0,1,,,,
,,A000000000,2022-11-28_21h47.54.963,GoFitts,2022.2.4,Win32,75.43184733,,,,,,,,,,,,,,,,,,,,,,2,,,,,,,,,,,,,2,0,0,1
,,A000000000,2022-11-28_21h47.54.963,GoFitts,2022.2.4,Win32,75.43184733,,,,,,,,,,,,,,,,return,0.3517,"[-15,-65]","[-42.500000000000036,-73.61215932167727]",77.8,170,3,"[-15,-15,-15,-15,-15,-15,-14]","[-65,-65,-65,-65,-65,-65,-65]","[0,0,0,0,0,0,0]","[0,0,0,0,0,0,0]","[0,0,0,0,0,0,0]","[0.0005999999940407008,0.017099999994037773,0.029099999994038228,0.03940000000595845,0.05290000000595896,0.07030000001191894,0.08240000000596126]",,0,0,0,0,1,,,,
,,A000000000,2022-11-28_21h47.54.963,GoFitts,2022.2.4,Win32,75.43184733,,,,,,,,,,,,,,,,,,"[-42.500000000000036,-73.61215932167727]","[26.266444521870532,80.83980388508805]",77.8,170,3,"[-14,-13,-13,-12,-12,-11,-11,-11,-11,-12,-12,-9,-8,-8,-8,-8,-9,-13,-16,-19,-21,-22,-21,-21,-17,-9,0,12]","[-65,-64,-64,-64,-63,-62,-62,-62,-62,-60,-57,-51,-48,-47,-47,-47,-47,-47,-47,-48,-48,-48,-47,-38,-19,2,22,45]","[0,0,0,0,0,0,0,0,0,0,0,0,0,0,0,0,0,0,0,0,0,0,0,0,0,0,0,0]","[0,0,0,0,0,0,0,0,0,0,0,0,0,0,0,0,0,0,0,0,0,0,0,0,0,0,0,0]","[0,0,0,0,0,0,0,0,0,0,0,0,0,0,0,0,0,0,0,0,0,0,0,0,0,0,0,0]","[0.00020000001788389454,0.013200000017882019,0.023200000017883582,0.039400000005962,0.05330000001192303,0.06330000001192104,0.07930000001192283,0.08970000001788137,0.10340000000596206,0.11959999999404047,0.13000000000000256,0.1460999999940391,0.159400000005963,0.17300000000000182,0.18350000000000222,0.19950000000000045,0.21040000000596137,0.22600000000000264,0.2394999999999996,0.2529000000059618,0.2634000000059622,0.27980000001192096,0.2927000000178843,0.30320000001788117,0.31950000000000145,0.3328000000119218,0.3433000000119222,0.3565000000000005]",,1,0,1,0,1,,,,
,,A000000000,2022-11-28_21h47.54.963,GoFitts,2022.2.4,Win32,75.43184733,,,,,,,,,,,,,,,,,,"[26.266444521870532,80.83980388508805]","[-8.88491937775061,-84.53436110630322]",77.8,170,3,"[12,28,36,44,49,51,51,52,52,52,52,52,52,52,50,46,44,40,35,30,26]","[45,64,73,79,84,86,88,88,88,88,88,88,83,75,59,40,18,-9,-34,-57,-76]","[0,0,0,0,0,0,0,0,0,0,0,0,0,0,0,0,0,0,0,0,0]","[0,0,0,0,0,0,0,0,0,0,0,0,0,0,0,0,0,0,0,0,0]","[0,0,0,0,0,0,0,0,0,0,0,0,0,0,0,0,0,0,0,0,0]","[0.00019999998807662678,0.015999999999998238,0.026399999976156607,0.039599999994038626,0.055999999999997385,0.06929999998211755,0.08259999999403789,0.09629999998211858,0.10939999997615502,0.1197999999821171,0.13579999998211534,0.14949999999999974,0.16289999997615467,0.1760999999940367,0.18929999998211855,0.20259999999403888,0.2160999999940394,0.229399999976156,0.24269999998807634,0.2559999999999967,0.26939999997615516]",,2,0,2,0,1,,,,
,,A000000000,2022-11-28_21h47.54.963,GoFitts,2022.2.4,Win32,75.43184733,,,,,,,,,,,,,,,,,,"[-8.88491937775061,-84.53436110630322]","[-8.884919377750533,84.53436110630324]",77.8,170,3,"[26,24,23,22,21,21,21,21,20,18,15,12,10,9,9,9,9,9,5]","[-76,-89,-99,-105,-110,-111,-112,-112,-110,-101,-92,-76,-58,-41,-19,-1,19,40,58]","[0,0,0,0,0,0,0,0,0,0,0,0,0,0,0,0,0,0,0]","[0,0,0,0,0,0,0,0,0,0,0,0,0,0,0,0,0,0,0]","[0,0,0,0,0,0,0,0,0,0,0,0,0,0,0,0,0,0,0]","[0.00019999998807662678,0.012999999999998124,0.026400000005960322,0.03690000000596072,0.05029999998211565,0.06390000000595819,0.07990000000595998,0.09309999999403828,0.10699999999999932,0.11969999998807879,0.13040000000595953,0.14369999998807614,0.15700000000000003,0.17050000000000054,0.18649999999999878,0.19979999998211895,0.2132999999821159,0.2265999999940398,0.2397999999821181]",,3,0,3,0,1,,,,
,,A000000000,2022-11-28_21h47.54.963,GoFitts,2022.2.4,Win32,75.43184733,,,,,,,,,,,,,,,,,,"[-8.884919377750533,84.53436110630324]","[26.266444521870515,-80.83980388508806]",77.8,170,3,"[5,2,-2,-5,-7,-8,-10,-10,-11,-11,-11,-9,-4,4,18,30,38,46]","[58,70,79,83,84,84,84,84,84,80,75,64,52,34,7,-16,-35,-51]","[0,0,0,0,0,0,0,0,0,0,0,0,0,0,0,0,0,0]","[0,0,0,0,0,0,0,0,0,0,0,0,0,0,0,0,0,0]","[0,0,0,0,0,0,0,0,0,0,0,0,0,0,0,0,0,0]","[0.0001999999880801795,0.013199999988078304,0.026499999999998636,0.039799999982118806,0.05329999998211932,0.06700000000000017,0.08000000000000185,0.09340000000596049,0.1065999999940388,0.11990000000595913,0.1302999999821175,0.14649999999999963,0.15700000000000003,0.17040000000596223,0.18649999999999878,0.20029999998211778,0.21319999998808115,0.2264000000059596]",,4,0,4,0,1,,,,
,,A000000000,2022-11-28_21h47.54.963,GoFitts,2022.2.4,Win32,75.43184733,,,,,,,,,,,,,,,,,,"[26.266444521870515,-80.83980388508806]","[-42.49999999999998,73.6121593216773]",77.8,170,3,"[46,50,52,52,52,51,50,49,46,43,35,26,18,2,-9,-17,-27,-34,-41]","[-51,-65,-74,-81,-85,-88,-89,-89,-89,-87,-75,-60,-46,-24,-9,6,21,34,45]","[0,0,0,0,0,0,0,0,0,0,0,0,0,0,0,0,0,0,0]","[0,0,0,0,0,0,0,0,0,0,0,0,0,0,0,0,0,0,0]","[0,0,0,0,0,0,0,0,0,0,0,0,0,0,0,0,0,0,0]","[0.0001999999880801795,0.013199999988078304,0.02630000001192201,0.039900000005960834,0.05309999999403914,0.06669999998807796,0.08009999999404016,0.09359999999404067,0.1065999999940388,0.11690000000595901,0.1331999999880793,0.14649999999999963,0.15690000000596172,0.17330000001192047,0.18630000001192215,0.19980000001192266,0.2131999999880776,0.2265999999940398,0.2398000000119218]",,5,0,5,0,1,,,,
,,A000000000,2022-11-28_21h47.54.963,GoFitts,2022.2.4,Win32,75.43184733,,,,,,,,,,,,,,,,,,"[-42.49999999999998,73.6121593216773]","[56.87610154050297,-63.16731016557849]",77.8,170,3,"[-41,-47,-50,-52,-53,-53,-53,-53,-53,-50,-42,-31,-9,10,42,64]","[45,56,61,65,68,68,68,68,66,58,48,34,14,1,-19,-34]","[0,0,0,0,0,0,0,0,0,0,0,0,0,0,0,0]","[0,0,0,0,0,0,0,0,0,0,0,0,0,0,0,0]","[0,0,0,0,0,0,0,0,0,0,0,0,0,0,0,0]","[0.00009999999403831339,0.012999999999998124,0.026700000017878978,0.03980000001191897,0.053200000017881166,0.06349999999999767,0.07709999999404005,0.09340000000596049,0.10380000001191902,0.1170999999940392,0.1303000000119212,0.14349999999999952,0.15990000000595828,0.17020000001788205,0.18649999999999878,0.1997000000178808]",,6,0,6,0,1,,,,
,,A000000000,2022-11-28_21h47.54.963,GoFitts,2022.2.4,Win32,75.43184733,,,,,,,,,,,,,,,,,,"[56.87610154050297,-63.16731016557849]","[-68.76644452187053,49.961746444860225]",77.8,170,3,"[64,83,92,95,96,96,96,96,91,84,72,55,35,15,-10,-31,-51]","[-34,-46,-53,-57,-58,-58,-58,-58,-55,-50,-42,-32,-21,-10,4,17,33]","[0,0,0,0,0,0,0,0,0,0,0,0,0,0,0,0,0]","[0,0,0,0,0,0,0,0,0,0,0,0,0,0,0,0,0]","[0,0,0,0,0,0,0,0,0,0,0,0,0,0,0,0,0]","[0.0004000000059605213,0.01309999999403999,0.026400000005960322,0.039599999994038626,0.05020000001788105,0.06659999999403965,0.07990000000595998,0.09330000001192218,0.1065999999940388,0.1197000000178825,0.13340000000595964,0.14630000001191945,0.15990000000596183,0.17030000001192036,0.18359999999404053,0.19680000001192255,0.21359999999403811]",,7,0,7,0,1,,,,
,,A000000000,2022-11-28_21h47.54.963,GoFitts,2022.2.4,Win32,75.43184733,,,,,,,,,,,,,,,,,,"[-68.76644452187053,49.961746444860225]","[77.65136389962109,-34.57261466144301]",77.8,170,3,"[-51,-61,-67,-71,-73,-74,-74,-74,-74,-74,-74,-69,-58,-43,-23,2,24,40,53]","[33,41,45,48,49,50,50,50,50,50,50,45,39,30,21,12,5,0,-5]","[0,0,0,0,0,0,0,0,0,0,0,0,0,0,0,0,0,0,0]","[0,0,0,0,0,0,0,0,0,0,0,0,0,0,0,0,0,0,0]","[0,0,0,0,0,0,0,0,0,0,0,0,0,0,0,0,0,0,0]","[0.00019999998807662678,0.012599999994037603,0.025900000005957935,0.03950000000000031,0.05259999999403675,0.06619999998807913,0.07929999998211912,0.09299999999999997,0.10619999998807828,0.1194000000059603,0.12959999999403848,0.1460999999940391,0.1592999999821174,0.17249999999999943,0.18590000000595808,0.19919999998807825,0.21249999999999858,0.2259999999999991,0.23940000000595774]",,8,0,8,0,1,,,,
,,A000000000,2022-11-28_21h47.54.963,GoFitts,2022.2.4,Win32,75.43184733,,,,,,,,,,,,,,,,,,"[77.65136389962109,-34.57261466144301]","[-83.14254606237348,17.672493719509543]",77.8,170,3,"[53,60,63,64,64,64,64,64,64,64,64,59,45,29,-5,-35,-64]","[-5,-8,-9,-10,-10,-10,-10,-10,-10,-10,-10,-10,-9,-4,7,16,26]","[0,0,0,0,0,0,0,0,0,0,0,0,0,0,0,0,0]","[0,0,0,0,0,0,0,0,0,0,0,0,0,0,0,0,0]","[0,0,0,0,0,0,0,0,0,0,0,0,0,0,0,0,0]","[0.0001999999880801795,0.01290000000595981,0.02630000001192201,0.039599999994038626,0.050099999994039024,0.06340000000595936,0.07680000001192155,0.09040000000596038,0.10390000000596089,0.1170999999940392,0.13090000000596191,0.1436999999880797,0.15980000001191996,0.17019999998807833,0.18659999999404064,0.19959999999403877,0.21300000000000097]",,9,0,9,0,1,,,,
,,A000000000,2022-11-28_21h47.54.963,GoFitts,2022.2.4,Win32,75.43184733,,,,,,,,,,,,,,,,,,"[-83.14254606237348,17.672493719509543]","[85,0]",77.8,170,3,"[-64,-87,-99,-103,-103,-103,-103,-103,-100,-93,-83,-70,-51,-23,1,22,39,54]","[26,33,37,39,39,39,39,39,37,31,27,20,14,11,10,9,9,8]","[0,0,0,0,0,0,0,0,0,0,0,0,0,0,0,0,0,0]","[0,0,0,0,0,0,0,0,0,0,0,0,0,0,0,0,0,0]","[0,0,0,0,0,0,0,0,0,0,0,0,0,0,0,0,0,0]","[0.00020000001788034183,0.013200000017878466,0.026499999999998636,0.04080000001192019,0.05340000000595779,0.06680000001191999,0.07710000002384021,0.093100000023842,0.10370000001788071,0.11990000000595913,0.13320000001787946,0.14349999999999952,0.15710000002384206,0.1731000000238403,0.18649999999999878,0.1998000000119191,0.2132000000178813,0.22649999999999793]",,10,0,10,0,1,,,,
,,A000000000,2022-11-28_21h47.54.963,GoFitts,2022.2.4,Win32,75.43184733,,,,,,,,,,,,,,,,,,"[85,0]","[-83.14254606237348,-17.67249371950952]",77.8,170,3,"[54,66,74,80,83,83,83,83,83,83,77,64,44,17,-15,-41,-68]","[8,8,8,8,8,8,8,8,8,7,3,0,-4,-8,-9,-11,-13]","[0,0,0,0,0,0,0,0,0,0,0,0,0,0,0,0,0]","[0,0,0,0,0,0,0,0,0,0,0,0,0,0,0,0,0]","[0,0,0,0,0,0,0,0,0,0,0,0,0,0,0,0,0]","[0.0000999999940418661,0.01309999999403999,0.026400000005960322,0.039900000005960834,0.053199999988081004,0.06669999998808152,0.08009999999404016,0.0902999999821219,0.10650000000000048,0.11679999998212054,0.1331999999880793,0.14640000000596132,0.1597999999821198,0.173199999988082,0.18640000000596046,0.1986999999880794,0.2126999999880823]",,11,0,11,0,1,,,,
,,A000000000,2022-11-28_21h47.54.963,GoFitts,2022.2.4,Win32,75.43184733,,,,,,,,,,,,,,,,,,"[-83.14254606237348,-17.67249371950952]","[77.65136389962107,34.57261466144301]",77.8,170,3,"[-68,-83,-90,-94,-95,-95,-95,-95,-95,-95,-88,-78,-61,-40,-12,14,38,57]","[-13,-13,-13,-14,-15,-15,-15,-15,-15,-15,-13,-8,-3,3,9,15,19,23]","[0,0,0,0,0,0,0,0,0,0,0,0,0,0,0,0,0,0]","[0,0,0,0,0,0,0,0,0,0,0,0,0,0,0,0,0,0]","[0,0,0,0,0,0,0,0,0,0,0,0,0,0,0,0,0,0]","[0.0001999999880801795,0.013699999988080691,0.023799999982120568,0.03719999998807921,0.05390000000596018,0.06700000000000017,0.07729999998212023,0.09350000000000236,0.10679999998211898,0.11719999998808106,0.13359999999403982,0.1466999999880798,0.16009999999403846,0.17350000000000065,0.18679999998212082,0.20050000000000168,0.2134999999999998,0.22679999998211997]",,12,0,12,0,1,,,,
,,A000000000,2022-11-28_21h47.54.963,GoFitts,2022.2.4,Win32,75.43184733,,,,,,,,,,,,,,,,,,"[77.65136389962107,34.57261466144301]","[-68.76644452187054,-49.96174644486021]",77.8,170,3,"[57,68,74,76,77,78,78,78,78,78,78,74,65,50,28,0,-26,-48]","[23,27,29,31,32,33,35,35,35,35,34,29,21,12,-1,-14,-25,-33]","[0,0,0,0,0,0,0,0,0,0,0,0,0,0,0,0,0,0]","[0,0,0,0,0,0,0,0,0,0,0,0,0,0,0,0,0,0]","[0,0,0,0,0,0,0,0,0,0,0,0,0,0,0,0,0,0]","[0.00009999999403831339,0.013500000000000512,0.026499999999998636,0.04029999998211764,0.053199999988081004,0.06359999999403954,0.07990000000595998,0.09319999998808015,0.1065999999940388,0.11969999998807879,0.1302999999821175,0.14649999999999963,0.15969999998807793,0.17300000000000182,0.18659999999404064,0.19979999998211895,0.21300000000000097,0.22650000000000148]",,13,0,13,0,1,,,,
,,A000000000,2022-11-28_21h47.54.963,GoFitts,2022.2.4,Win32,75.43184733,,,,,,,,,,,,,,,,,,"[-68.76644452187054,-49.96174644486021]","[56.87610154050295,63.16731016557851]",77.8,170,3,"[-48,-65,-73,-79,-79,-79,-79,-79,-78,-75,-66,-53,-35,-17,9,29,45,57]","[-33,-39,-43,-46,-48,-49,-49,-49,-50,-50,-44,-37,-26,-16,-2,9,18,26]","[0,0,0,0,0,0,0,0,0,0,0,0,0,0,0,0,0,0]","[0,0,0,0,0,0,0,0,0,0,0,0,0,0,0,0,0,0]","[0,0,0,0,0,0,0,0,0,0,0,0,0,0,0,0,0,0]","[0.0000999999940418661,0.01309999999403999,0.026200000017883696,0.03980000001192252,0.05020000001788105,0.06680000001192354,0.07690000000596342,0.08999999999999986,0.10350000000000037,0.120000000000001,0.13330000001192133,0.1465999999940415,0.15990000000596183,0.1703000000119239,0.18640000000596046,0.19980000001192266,0.21300000000000097,0.22640000000596316]",,14,0,14,0,1,,,,
,,A000000000,2022-11-28_21h47.54.963,GoFitts,2022.2.4,Win32,75.43184733,,,,,,,,,,,,,,,,,,,,,,3,,,,,,,,,,,,,3,0,0,1
,,A000000000,2022-11-28_21h47.54.963,GoFitts,2022.2.4,Win32,75.43184733,,,,,,,,,,,,,,,,return,0.367,"[-56,-75]","[84.9796734531105,-261.5405419811673]",32.3,550,4,"[-56,-56,-55,-55,-54,-52,-52,-51,-49,-48,-46,-44,-42,-36,-32,-28,-27,-26,-26,-26,-26,-26,-25,-23,-21,-18,-13,-6,-1,9,17,25,28,32,35,37,40,43,47,50,52,55,57,60,62,65,68,70,74,80]","[-75,-74,-73,-72,-70,-68,-68,-67,-66,-66,-64,-63,-61,-58,-55,-54,-52,-51,-51,-51,-51,-51,-54,-59,-70,-83,-102,-119,-133,-150,-162,-169,-172,-174,-175,-177,-181,-184,-188,-192,-195,-200,-205,-211,-217,-224,-232,-238,-248,-255]","[0,0,0,0,0,0,0,0,0,0,0,0,0,0,0,0,0,0,0,0,0,0,0,0,0,0,0,0,0,0,0,0,0,0,0,0,0,0,0,0,0,0,0,0,0,0,0,0,0,0]","[0,0,0,0,0,0,0,0,0,0,0,0,0,0,0,0,0,0,0,0,0,0,0,0,0,0,0,0,0,0,0,0,0,0,0,0,0,0,0,0,0,0,0,0,0,0,0,0,0,0]","[0,0,0,0,0,0,0,0,0,0,0,0,0,0,0,0,0,0,0,0,0,0,0,0,0,0,0,0,0,0,0,0,0,0,0,0,0,0,0,0,0,0,0,0,0,0,0,0,0,0]","[0.0004999999999988347,0.01719999998807964,0.029299999982118408,0.039399999976158284,0.052899999976158796,0.07000000000000028,0.07949999999999946,0.09299999999999997,0.10929999998212026,0.12250000000000227,0.13599999999999923,0.1490000000000009,0.1592999999821174,0.1755999999940414,0.18929999998211855,0.20229999998212023,0.21559999999404056,0.22909999999404107,0.24229999998211937,0.25279999998211977,0.2661999999880784,0.2823999999761604,0.29589999997615735,0.30639999997615774,0.32279999998212006,0.33569999998807987,0.3490000000000002,0.3625000000000007,0.3726999999880789,0.3891999999880795,0.40239999997615783,0.41569999998807816,0.42889999997615647,0.442499999999999,0.4527999999821226,0.4663999999761579,0.47949999999999804,0.4928999999761565,0.5091999999880805,0.5222999999821205,0.5328999999761557,0.548199999988082,0.5622999999821197,0.5757999999821202,0.5888999999761602,0.6023999999761607,0.6156999999880775,0.6263999999761616,0.6391999999880831,0.6558999999761603]",,0,0,0,0,1,,,,
,,A000000000,2022-11-28_21h47.54.963,GoFitts,2022.2.4,Win32,75.43184733,,,,,,,,,,,,,,,,,,"[84.9796734531105,-261.5405419811673]","[-137.49999999999994,238.15698604072065]",32.3,550,4,"[80,83,84,87,87,87,88,88,88,88,88,87,83,76,62,45,21,5,-18,-37,-53,-67,-77,-84,-88,-91,-95,-97,-104,-105,-109,-112,-115,-116,-117,-120,-123,-125]","[-255,-261,-264,-267,-268,-268,-268,-268,-268,-268,-268,-266,-259,-242,-215,-180,-138,-102,-48,3,41,81,119,143,159,168,181,189,199,204,211,214,218,220,223,226,230,232]","[0,0,0,0,0,0,0,0,0,0,0,0,0,0,0,0,0,0,0,0,0,0,0,0,0,0,0,0,0,0,0,0,0,0,0,0,0,0]","[0,0,0,0,0,0,0,0,0,0,0,0,0,0,0,0,0,0,0,0,0,0,0,0,0,0,0,0,0,0,0,0,0,0,0,0,0,0]","[0,0,0,0,0,0,0,0,0,0,0,0,0,0,0,0,0,0,0,0,0,0,0,0,0,0,0,0,0,0,0,0,0,0,0,0,0,0]","[0.0001999999880837322,0.01300000000000523,0.02609999999404522,0.039500000000003865,0.050099999994039024,0.06329999998212088,0.07690000000596342,0.09000000000000341,0.10369999998808055,0.11700000000000443,0.13069999998808157,0.14359999999404494,0.15690000000596172,0.17300000000000182,0.18619999998808368,0.19979999998211895,0.2129000000059662,0.2234000000059666,0.23959999999404147,0.253099999994042,0.2635000000000005,0.27679999998212423,0.2929000000059645,0.3061999999880811,0.31969999998808163,0.330199999988082,0.3435999999940407,0.35669999998808066,0.37000000000000455,0.3835999999940398,0.40009999999404045,0.41319999998808044,0.43229999998212065,0.43979999998212094,0.45000000000000284,0.46329999998211946,0.47679999998211997,0.4930000000000021]",,1,0,1,0,1,,,,
,,A000000000,2022-11-28_21h47.54.963,GoFitts,2022.2.4,Win32,75.43184733,,,,,,,,,,,,,,,,,,"[-137.49999999999994,238.15698604072065]","[184.01091674868607,-204.36482700628335]",32.3,550,4,"[-125,-128,-131,-133,-135,-136,-137,-137,-137,-137,-133,-127,-119,-102,-79,-48,-1,34,63,83,101,115,126,130,131,133,134,135,137,141,142,144,146,148,150,155,162,167,171,174,176]","[232,235,237,238,239,239,239,240,240,238,229,218,202,174,141,100,42,-2,-42,-69,-95,-114,-132,-138,-142,-146,-149,-152,-156,-162,-166,-168,-170,-172,-175,-178,-182,-185,-189,-191,-193]","[0,0,0,0,0,0,0,0,0,0,0,0,0,0,0,0,0,0,0,0,0,0,0,0,0,0,0,0,0,0,0,0,0,0,0,0,0,0,0,0,0]","[0,0,0,0,0,0,0,0,0,0,0,0,0,0,0,0,0,0,0,0,0,0,0,0,0,0,0,0,0,0,0,0,0,0,0,0,0,0,0,0,0]","[0,0,0,0,0,0,0,0,0,0,0,0,0,0,0,0,0,0,0,0,0,0,0,0,0,0,0,0,0,0,0,0,0,0,0,0,0,0,0,0,0]","[0.00019999998807662678,0.01309999999403999,0.026099999994038114,0.039599999994038626,0.050099999994039024,0.06659999999403965,0.0797999999821215,0.09859999999404323,0.10319999998807816,0.11989999997615541,0.13289999997616064,0.14619999998807742,0.15659999999404306,0.1697999999821178,0.18329999998211832,0.19650000000000034,0.21289999997615894,0.22619999998808282,0.23959999999404147,0.24989999997615797,0.2632999999821166,0.27669999998808237,0.29299999999999926,0.3062999999821159,0.31959999999403976,0.3327999999821216,0.3460999999940384,0.35669999998808066,0.3728999999761555,0.3862999999821213,0.39959999999403806,0.4127999999821199,0.42600000000000193,0.4365999999940371,0.44979999998211895,0.4631999999880776,0.4796999999880782,0.4928999999761601,0.5065999999940374,0.5195999999940426,0.5327999999821174]",,2,0,2,0,1,,,,
,,A000000000,2022-11-28_21h47.54.963,GoFitts,2022.2.4,Win32,75.43184733,,,,,,,,,,,,,,,,,,"[184.01091674868607,-204.36482700628335]","[-222.4796734531105,161.64094438043014]",32.3,550,4,"[176,177,178,179,180,180,180,180,180,180,180,179,170,154,129,95,51,11,-29,-70,-103,-132,-153,-171,-183,-199,-209,-218,-224,-229,-232,-235,-238,-239,-239,-239,-236]","[-193,-194,-195,-196,-197,-197,-198,-198,-198,-198,-198,-198,-193,-182,-164,-138,-104,-68,-40,-10,14,34,52,69,82,96,108,116,122,128,132,136,141,147,151,153,157]","[0,0,0,0,0,0,0,0,0,0,0,0,0,0,0,0,0,0,0,0,0,0,0,0,0,0,0,0,0,0,0,0,0,0,0,0,0]","[0,0,0,0,0,0,0,0,0,0,0,0,0,0,0,0,0,0,0,0,0,0,0,0,0,0,0,0,0,0,0,0,0,0,0,0,0]","[0,0,0,0,0,0,0,0,0,0,0,0,0,0,0,0,0,0,0,0,0,0,0,0,0,0,0,0,0,0,0,0,0,0,0,0,0]","[0.00019999998807662678,0.01309999999403999,0.02579999998211946,0.03909999999403624,0.05039999997615752,0.06379999998211616,0.07709999999404005,0.09329999998211491,0.10349999999999682,0.12009999999403931,0.1303999999761558,0.14359999999403783,0.16009999999403846,0.1734999999999971,0.18650000000000233,0.1998999999761608,0.2131999999880776,0.2266999999880781,0.2397999999821181,0.2530000000000001,0.2663999999761586,0.2798999999761591,0.2930999999940411,0.3066999999880764,0.3167999999821163,0.3299999999999983,0.3465999999940408,0.3598999999761574,0.3733999999761579,0.38639999997615604,0.39989999997615655,0.41339999997615706,0.4265999999940391,0.4398999999761557,0.45329999998212145,0.46349999999999625,0.4799999999999969]",,3,0,3,0,1,,,,
,,A000000000,2022-11-28_21h47.54.963,GoFitts,2022.2.4,Win32,75.43184733,,,,,,,,,,,,,,,,,,"[-222.4796734531105,161.64094438043014]","[251.22500085171527,-111.85257684584504]",32.3,550,4,"[-236,-233,-230,-228,-227,-226,-226,-226,-224,-223,-220,-218,-212,-200,-174,-136,-78,-28,55,107,140,164,177,184,191,195,199,208,214,219,225,230,234,238]","[157,160,162,163,163,163,163,163,161,159,153,148,138,120,89,58,12,-21,-70,-90,-98,-102,-105,-106,-107,-107,-107,-107,-108,-110,-111,-112,-112,-112]","[0,0,0,0,0,0,0,0,0,0,0,0,0,0,0,0,0,0,0,0,0,0,0,0,0,0,0,0,0,0,0,0,0,0]","[0,0,0,0,0,0,0,0,0,0,0,0,0,0,0,0,0,0,0,0,0,0,0,0,0,0,0,0,0,0,0,0,0,0]","[0,0,0,0,0,0,0,0,0,0,0,0,0,0,0,0,0,0,0,0,0,0,0,0,0,0,0,0,0,0,0,0,0,0]","[0.0004000000059605213,0.012900000005956258,0.02640000000595677,0.039800000011915415,0.04999999999999716,0.06680000001191644,0.07990000000595643,0.08990000000596154,0.1065999999940388,0.11690000000595546,0.1329000000059608,0.14330000001191934,0.15669999998807782,0.17009999999403647,0.1863000000119186,0.19969999998807708,0.2129000000059591,0.22359999999403612,0.23969999998807623,0.2530000000000001,0.26640000000595876,0.2798000000119174,0.2929000000059574,0.3034000000059578,0.3199000000059584,0.3329999999999984,0.34340000000595694,0.35990000000595757,0.3729000000059557,0.38649999999999807,0.3999000000059567,0.41309999999403857,0.4233000000119205,0.4395999999940372]",,4,0,4,0,1,,,,
,,A000000000,2022-11-28_21h47.54.963,GoFitts,2022.2.4,Win32,75.43184733,,,,,,,,,,,,,,,,,,"[251.22500085171527,-111.85257684584504]","[-268.9905902017966,57.17571497488381]",32.3,550,4,"[238,240,240,241,241,241,243,243,243,243,243,242,232,209,169,115,31,-51,-139,-192,-220,-236,-240,-240,-240,-240,-241,-243,-245,-247,-250,-254,-258]","[-112,-112,-112,-112,-112,-112,-112,-112,-112,-112,-112,-112,-111,-109,-103,-92,-74,-53,-25,-9,2,8,11,13,15,20,23,27,31,36,42,48,54]","[0,0,0,0,0,0,0,0,0,0,0,0,0,0,0,0,0,0,0,0,0,0,0,0,0,0,0,0,0,0,0,0,0]","[0,0,0,0,0,0,0,0,0,0,0,0,0,0,0,0,0,0,0,0,0,0,0,0,0,0,0,0,0,0,0,0,0]","[0,0,0,0,0,0,0,0,0,0,0,0,0,0,0,0,0,0,0,0,0,0,0,0,0,0,0,0,0,0,0,0,0]","[0.00019999998807662678,0.013399999976158483,0.023599999994040388,0.040199999988075774,0.05339999997615763,0.06359999999403954,0.08050000000000068,0.0940000000000012,0.10709999999403408,0.1170999999940392,0.13339999997615593,0.14399999999999835,0.15709999999403834,0.170499999999997,0.18679999998211372,0.19729999998211412,0.2138999999761566,0.22379999998211986,0.24029999998211338,0.2534999999999954,0.26369999998807714,0.277000000000001,0.29329999998211775,0.3064999999999998,0.31709999999403493,0.3335000000000008,0.3465999999940408,0.3568999999761573,0.37049999999999983,0.3836999999880746,0.39989999997615655,0.41319999998808044,0.4264999999999972]",,5,0,5,0,1,,,,
,,A000000000,2022-11-28_21h47.54.963,GoFitts,2022.2.4,Win32,75.43184733,,,,,,,,,,,,,,,,,,"[-268.9905902017966,57.17571497488381]","[275,0]",32.3,550,4,"[-258,-262,-264,-269,-272,-275,-275,-276,-276,-276,-276,-276,-275,-270,-253,-224,-172,-120,-33,24,94,132,158,171,181,186,191,195,202,209,216,223,228,232,234,236,240,246,254,262]","[54,60,64,68,70,70,70,70,70,70,70,70,69,66,60,54,48,42,37,34,30,26,22,19,17,15,13,12,10,9,8,7,7,6,5,5,3,1,-1,-3]","[0,0,0,0,0,0,0,0,0,0,0,0,0,0,0,0,0,0,0,0,0,0,0,0,0,0,0,0,0,0,0,0,0,0,0,0,0,0,0,0]","[0,0,0,0,0,0,0,0,0,0,0,0,0,0,0,0,0,0,0,0,0,0,0,0,0,0,0,0,0,0,0,0,0,0,0,0,0,0,0,0]","[0,0,0,0,0,0,0,0,0,0,0,0,0,0,0,0,0,0,0,0,0,0,0,0,0,0,0,0,0,0,0,0,0,0,0,0,0,0,0,0]","[0.0000999999940418661,0.013200000017882019,0.026499999999998636,0.03980000001192252,0.05299999999999727,0.06659999999403965,0.07990000000596353,0.09040000000596393,0.10370000001788071,0.11699999999999733,0.13320000001787946,0.14659999999403794,0.15709999999403834,0.17040000000596223,0.18640000000596046,0.1998000000119191,0.21320000001788486,0.22359999999404323,0.23990000000596012,0.25,0.2667000000178845,0.2795999999940406,0.2929000000059645,0.3062000000178813,0.3199000000059584,0.3329999999999984,0.3463000000119223,0.35990000000596467,0.3730999999940394,0.3862000000178796,0.39959999999403806,0.4130000000000038,0.423700000017881,0.43990000000596297,0.45320000001787974,0.4635999999940381,0.4799000000059621,0.4932000000178789,0.5064000000059607,0.5195999999940426]",,6,0,6,0,1,,,,
,,A000000000,2022-11-28_21h47.54.963,GoFitts,2022.2.4,Win32,75.43184733,,,,,,,,,,,,,,,,,,"[275,0]","[-268.9905902017966,-57.175714974883746]",32.3,550,4,"[262,271,276,281,282,283,283,283,283,283,278,266,252,216,170,124,77,24,-20,-61,-90,-111,-129,-139,-147,-156,-162,-167,-173,-178,-185,-193,-198,-205,-211,-216,-222,-227,-234,-240,-243,-248,-251,-252,-253]","[-3,-5,-6,-7,-7,-7,-7,-7,-7,-8,-9,-10,-10,-13,-15,-17,-17,-20,-21,-22,-22,-23,-24,-24,-24,-24,-24,-25,-25,-28,-29,-31,-33,-36,-40,-43,-46,-48,-51,-52,-53,-55,-55,-55,-55]","[0,0,0,0,0,0,0,0,0,0,0,0,0,0,0,0,0,0,0,0,0,0,0,0,0,0,0,0,0,0,0,0,0,0,0,0,0,0,0,0,0,0,0,0,0]","[0,0,0,0,0,0,0,0,0,0,0,0,0,0,0,0,0,0,0,0,0,0,0,0,0,0,0,0,0,0,0,0,0,0,0,0,0,0,0,0,0,0,0,0,0]","[0,0,0,0,0,0,0,0,0,0,0,0,0,0,0,0,0,0,0,0,0,0,0,0,0,0,0,0,0,0,0,0,0,0,0,0,0,0,0,0,0,0,0,0,0]","[0.0001999999880837322,0.013299999982123722,0.026400000005963875,0.03990000000596439,0.053199999988081004,0.06669999998808152,0.08009999999404016,0.09329999998212202,0.10379999998212242,0.11729999998212293,0.13309999999404454,0.1466999999880798,0.15700000000000358,0.1732999999821203,0.18650000000000233,0.20000000000000284,0.2134000000059615,0.2264000000059596,0.240000000000002,0.2532999999821186,0.2665000000000006,0.27990000000595927,0.29329999998211775,0.306400000005965,0.31700000000000017,0.3330999999940403,0.3439000000059593,0.35690000000596456,0.37040000000596507,0.38659999999403993,0.3999000000059638,0.4132999999821223,0.42369999998808083,0.44019999998808146,0.4530999999940448,0.46659999999404533,0.4799000000059621,0.4934000000059626,0.5065999999940445,0.520099999994045,0.530099999994043,0.5437999999821201,0.5570000000000022,0.5705000000000027,0.5839000000059613]",,7,0,7,0,1,,,,
,,A000000000,2022-11-28_21h47.54.963,GoFitts,2022.2.4,Win32,75.43184733,,,,,,,,,,,,,,,,,,"[-268.9905902017966,-57.175714974883746]","[251.22500085171524,111.85257684584504]",32.3,550,4,"[-253,-253,-253,-253,-253,-253,-253,-253,-253,-251,-243,-220,-169,-106,-40,68,150,224,274,310,333,343,345,345,345,345,345,345,344,342,340,334,328,321,311,301,288,279,273,269,266,264]","[-55,-55,-55,-55,-55,-55,-55,-55,-55,-54,-51,-43,-25,-4,14,42,61,75,84,89,93,95,96,96,96,97,99,100,101,102,104,105,105,105,105,104,102,102,102,102,102,102]","[0,0,0,0,0,0,0,0,0,0,0,0,0,0,0,0,0,0,0,0,0,0,0,0,0,0,0,0,0,0,0,0,0,0,0,0,0,0,0,0,0,0]","[0,0,0,0,0,0,0,0,0,0,0,0,0,0,0,0,0,0,0,0,0,0,0,0,0,0,0,0,0,0,0,0,0,0,0,0,0,0,0,0,0,0]","[0,0,0,0,0,0,0,0,0,0,0,0,0,0,0,0,0,0,0,0,0,0,0,0,0,0,0,0,0,0,0,0,0,0,0,0,0,0,0,0,0,0]","[0.0002999999821184929,0.01629999998211673,0.02629999998211474,0.03990000000595728,0.053599999994041525,0.06700000000000017,0.08029999998211679,0.09369999998807543,0.10699999999999932,0.11999999999999744,0.1331999999880793,0.14649999999999608,0.16250000000000142,0.1760999999940367,0.18619999998807657,0.2026999999880772,0.21600000000000108,0.22940000000595973,0.24259999999404158,0.2560000000000002,0.269199999988075,0.2826999999880755,0.2959999999999994,0.309299999982116,0.3199000000059584,0.3357999999821146,0.34940000000595717,0.3629000000059577,0.3731999999880813,0.38649999999999807,0.3999000000059567,0.4159999999999968,0.4262999999821204,0.43990000000596297,0.4530999999940377,0.46649999999999636,0.48259999999403647,0.49569999998807646,0.5065000000000026,0.5199000000059613,0.533099999994036,0.5466999999880784]",,8,0,8,0,1,,,,
,,A000000000,2022-11-28_21h47.54.963,GoFitts,2022.2.4,Win32,75.43184733,,,,,,,,,,,,,,,,,,"[251.22500085171524,111.85257684584504]","[-222.47967345311054,-161.64094438043008]",32.3,550,4,"[264,264,262,262,261,261,260,260,260,260,260,260,260,260,260,260,260,260,260,259,259,259,259,259,259,259,259,259,259,259,255,252,244,236,229,225,218,216,214,213,212,212,212,212,212,211,211,210,209,208,204,198,189,179,168,159,150,142,136,131,129,125,123,122,121,121,121,121,121,121,121,120,120,120,120,120,120,119,118,118,117,115,114,111,108,104,101,99,94,90,84,78,73,68,65,63,59,57,55,52,49,45,42,40,39,39,39,39,39,39,39,39,39,39,39,39,39,39,39,39,39,39,39,39,39,39,39,39,39,39,37,32,26,20,16,12,10,4,-3,-13,-23,-34,-43,-48,-52,-55,-60,-67,-74,-83,-90,-99,-112,-129,-143,-157,-172,-186,-195,-207,-215]","[102,102,103,103,104,104,104,104,105,105,105,105,105,105,105,105,105,105,103,103,102,102,102,102,102,102,102,102,102,102,101,101,99,96,95,93,91,90,90,90,90,90,90,90,90,90,90,90,90,88,85,81,76,70,62,56,49,44,39,36,34,32,31,31,30,30,29,29,29,29,29,29,29,29,29,29,29,28,27,27,26,26,25,22,20,18,17,15,14,11,9,6,5,3,2,1,1,-1,-1,-3,-5,-9,-12,-14,-15,-15,-15,-15,-15,-15,-15,-15,-15,-15,-15,-15,-15,-15,-15,-15,-15,-15,-15,-15,-15,-15,-15,-15,-15,-15,-16,-21,-25,-29,-32,-35,-38,-44,-50,-55,-63,-71,-77,-83,-86,-89,-92,-97,-99,-104,-105,-108,-113,-120,-126,-132,-139,-144,-148,-154,-156]","[0,0,0,0,0,0,0,0,0,0,0,0,0,0,0,0,0,0,0,0,0,0,0,0,0,0,0,0,0,0,0,0,0,0,0,0,0,0,0,0,0,0,0,0,0,0,0,0,0,0,0,0,0,0,0,0,0,0,0,0,0,0,0,0,0,0,0,0,0,0,0,0,0,0,0,0,0,0,0,0,0,0,0,0,0,0,0,0,0,0,0,0,0,0,0,0,0,0,0,0,0,0,0,0,0,0,0,0,0,0,0,0,0,0,0,0,0,0,0,0,0,0,0,0,0,0,0,0,0,0,0,0,0,0,0,0,0,0,0,0,0,0,0,0,0,0,0,0,0,0,0,0,0,0,0,0,0,0,0,0,0]","[0,0,0,0,0,0,0,0,0,0,0,0,0,0,0,0,0,0,0,0,0,0,0,0,0,0,0,0,0,0,0,0,0,0,0,0,0,0,0,0,0,0,0,0,0,0,0,0,0,0,0,0,0,0,0,0,0,0,0,0,0,0,0,0,0,0,0,0,0,0,0,0,0,0,0,0,0,0,0,0,0,0,0,0,0,0,0,0,0,0,0,0,0,0,0,0,0,0,0,0,0,0,0,0,0,0,0,0,0,0,0,0,0,0,0,0,0,0,0,0,0,0,0,0,0,0,0,0,0,0,0,0,0,0,0,0,0,0,0,0,0,0,0,0,0,0,0,0,0,0,0,0,0,0,0,0,0,0,0,0,0]","[0,0,0,0,0,0,0,0,0,0,0,0,0,0,0,0,0,0,0,0,0,0,0,0,0,0,0,0,0,0,0,0,0,0,0,0,0,0,0,0,0,0,0,0,0,0,0,0,0,0,0,0,0,0,0,0,0,0,0,0,0,0,0,0,0,0,0,0,0,0,0,0,0,0,0,0,0,0,0,0,0,0,0,0,0,0,0,0,0,0,0,0,0,0,0,0,0,0,0,0,0,0,0,0,0,0,0,0,0,0,0,0,0,0,0,0,0,0,0,0,0,0,0,0,0,0,0,0,0,0,0,0,0,0,0,0,0,0,0,0,0,0,0,0,0,0,0,0,0,0,0,0,0,0,0,0,0,0,0,0,0]","[0.0001999999880837322,0.01579999998212145,0.026000000000003354,0.03969999998808049,0.052599999994043856,0.06959999999403976,0.08259999999404499,0.09309999999403828,0.10650000000000404,0.11969999998807879,0.1357999999821189,0.14659999999404505,0.16190000000596427,0.17300000000000182,0.18650000000000233,0.2020000000000053,0.21709999999404062,0.22650000000000148,0.23959999999404147,0.25569999998808157,0.2665999999940425,0.2796999999880825,0.29299999999999926,0.30890000000596274,0.3197999999821235,0.33569999998807987,0.34619999998808026,0.35979999998212264,0.37559999999404425,0.3860000000000028,0.40240000000596154,0.4127999999821199,0.4291999999880787,0.44229999998211866,0.4557999999821192,0.46609999999404295,0.48240000000595984,0.4957999999821183,0.506199999988084,0.5226999999880846,0.5329000000059594,0.5491999999880832,0.5594999999999999,0.5759000000059658,0.5891999999880824,0.6024999999999991,0.6129000000059648,0.6265000000000001,0.6397999999821238,0.6527999999821219,0.669000000000004,0.6822999999821207,0.6955000000000027,0.7087999999821193,0.7221999999880779,0.7355000000000018,0.7490000000000023,0.762299999982119,0.7755999999940428,0.7890000000000015,0.79940000000596,0.8155000000000001,0.826299999982119,0.8421999999880825,0.8554999999999993,0.8659000000059649,0.8825000000000003,0.8956999999880821,0.9060999999940407,0.9224999999999994,0.9329999999999998,0.9492999999821237,0.9594000000059637,0.9730999999940408,0.9892999999821228,0.9996999999880813,1.0134000000059658,1.028599999994043,1.0425999999940387,1.0529000000059625,1.0689000000059607,1.082599999994045,1.0929000000059617,1.1087999999821179,1.1222999999821184,1.1356999999880841,1.149000000000001,1.1594000000059594,1.1726999999880832,1.1860999999940418,1.1992999999821237,1.2155999999940406,1.2287999999821224,1.2424999999999997,1.2526999999880815,1.2660000000000053,1.2794999999999987,1.295500000000004,1.3090999999940394,1.3225000000000051,1.3325000000000031,1.3490000000000038,1.3592999999821203,1.3729000000059628,1.3892999999821214,1.39969999998808,1.4130999999940386,1.426699999988081,1.439900000005963,1.452799999982119,1.4664000000059616,1.4825999999940436,1.4957999999821183,1.506099999994042,1.520099999994045,1.5331999999880779,1.54640000000596,1.561699999988079,1.57559999999404,1.586400000005959,1.5996999999880828,1.6157999999821229,1.6291999999880815,1.6425000000000054,1.6529999999999987,1.6661999999880805,1.6825999999940393,1.693000000000005,1.7062999999821216,1.719799999982122,1.7329000000059622,1.7490000000000023,1.762400000005961,1.775500000000001,1.78929999998212,1.802299999982118,1.8126999999880837,1.8291999999880844,1.8424000000059593,1.8557999999821178,1.8689999999999998,1.8822999999821235,1.8955000000000055,1.9087999999821221,1.922099999994039,1.9325000000000045,1.9460999999940398,1.9624000000059638,1.975400000005962,1.9889000000059625,1.9994000000059629,2.0126999999880795,2.02619999998808,2.04229999998212,2.055500000000002,2.0687999999821187,2.0821999999880845,2.0957999999821197,2.1061999999880783,2.1225000000000023,2.135699999988084]",,9,0,9,0,1,,,,
,,A000000000,2022-11-28_21h47.54.963,GoFitts,2022.2.4,Win32,75.43184733,,,,,,,,,,,,,,,,,,"[-222.47967345311054,-161.64094438043008]","[184.01091674868601,204.3648270062834]",32.3,550,4,"[-215,-225,-229,-232,-233,-233,-233,-233,-233,-233,-232,-230,-227,-221,-209,-193,-160,-112,-43,8,76,116,141,155,167,171,173]","[-156,-160,-162,-164,-164,-164,-164,-164,-164,-164,-164,-161,-155,-147,-133,-118,-92,-56,-1,42,102,136,158,171,185,191,196]","[0,0,0,0,0,0,0,0,0,0,0,0,0,0,0,0,0,0,0,0,0,0,0,0,0,0,0]","[0,0,0,0,0,0,0,0,0,0,0,0,0,0,0,0,0,0,0,0,0,0,0,0,0,0,0]","[0,0,0,0,0,0,0,0,0,0,0,0,0,0,0,0,0,0,0,0,0,0,0,0,0,0,0]","[0.0002999999821184929,0.007799999982118777,0.021299999982112183,0.034799999982112695,0.045099999994036466,0.06159999999403709,0.07169999998807697,0.08499999999999375,0.09849999999999426,0.11490000000596012,0.12809999999403487,0.14149999999999352,0.15440000000595688,0.16829999998211775,0.18129999998211588,0.19179999998211628,0.2052999999821168,0.2184999999999988,0.23449999999999704,0.2450999999940393,0.2614000000059562,0.2744000000059543,0.2877999999821128,0.2980999999940366,0.31469999998807907,0.32779999998211196,0.34149999999999636]",,10,0,10,0,1,,,,
,,A000000000,2022-11-28_21h47.54.963,GoFitts,2022.2.4,Win32,75.43184733,,,,,,,,,,,,,,,,,,"[184.01091674868601,204.3648270062834]","[-137.5000000000001,-238.1569860407206]",32.3,550,4,"[173,174,176,176,177,179,181,185,188,190,191,192,192,192,192,190,184,174,153,133,92,53,16,-16,-38,-59,-70,-77,-83,-88,-93,-97,-100,-102,-102,-104,-105,-107,-109,-111,-112,-112,-112,-113,-114,-117,-119,-121,-122,-123]","[196,198,200,201,203,204,206,210,213,216,217,217,217,217,217,214,205,188,160,133,84,35,-10,-49,-79,-111,-134,-149,-166,-178,-187,-195,-200,-204,-206,-211,-214,-218,-221,-223,-225,-225,-225,-226,-227,-228,-229,-230,-231,-232]","[0,0,0,0,0,0,0,0,0,0,0,0,0,0,0,0,0,0,0,0,0,0,0,0,0,0,0,0,0,0,0,0,0,0,0,0,0,0,0,0,0,0,0,0,0,0,0,0,0,0]","[0,0,0,0,0,0,0,0,0,0,0,0,0,0,0,0,0,0,0,0,0,0,0,0,0,0,0,0,0,0,0,0,0,0,0,0,0,0,0,0,0,0,0,0,0,0,0,0,0,0]","[0,0,0,0,0,0,0,0,0,0,0,0,0,0,0,0,0,0,0,0,0,0,0,0,0,0,0,0,0,0,0,0,0,0,0,0,0,0,0,0,0,0,0,0,0,0,0,0,0,0]","[0.00019999998807662678,0.013999999999995794,0.02630000001192201,0.039800000011915415,0.052900000005955405,0.06659999999403965,0.07969999998807964,0.09299999999999642,0.10649999999999693,0.11959999999403692,0.13019999998807918,0.14640000000596132,0.15680000001191985,0.1699999999999946,0.18340000000596035,0.19699999999999562,0.2131999999880776,0.2264000000059596,0.23969999998807623,0.25,0.26640000000595876,0.2795999999940406,0.29299999999999926,0.306199999988074,0.31659999999403965,0.3329999999999984,0.34640000000595705,0.35669999998807356,0.3719999999999999,0.3859000000059609,0.3996999999880799,0.41290000000596194,0.4234999999999971,0.43669999998807896,0.4500999999940376,0.46649999999999636,0.4796999999880782,0.49030000001192064,0.5034999999999954,0.5170999999940378,0.5329000000059594,0.5434000000059598,0.556999999999995,0.573199999988077,0.5840999999940379,0.5969000000059594,0.6103000000119181,0.6234999999999999,0.6370000000000005,0.6533000000119173]",,11,0,11,0,1,,,,
,,A000000000,2022-11-28_21h47.54.963,GoFitts,2022.2.4,Win32,75.43184733,,,,,,,,,,,,,,,,,,"[-137.5000000000001,-238.1569860407206]","[84.97967345311055,261.5405419811672]",32.3,550,4,"[-123,-123,-123,-123,-123,-124,-124,-123,-121,-112,-100,-70,-43,40,67,87,101,110,116,120,122,124,124,125,125,125,124,120,115,108,103,99]","[-232,-232,-232,-232,-232,-232,-232,-227,-218,-195,-170,-105,-48,82,124,156,184,204,216,226,233,237,238,239,239,239,242,244,247,250,253,255]","[0,0,0,0,0,0,0,0,0,0,0,0,0,0,0,0,0,0,0,0,0,0,0,0,0,0,0,0,0,0,0,0]","[0,0,0,0,0,0,0,0,0,0,0,0,0,0,0,0,0,0,0,0,0,0,0,0,0,0,0,0,0,0,0,0]","[0,0,0,0,0,0,0,0,0,0,0,0,0,0,0,0,0,0,0,0,0,0,0,0,0,0,0,0,0,0,0,0]","[0.00020000001788389454,0.01300000000000523,0.023499999999998522,0.036999999999999034,0.05020000001788105,0.06340000000596291,0.07959999999403777,0.09280000001191979,0.10609999999404351,0.1194000000059603,0.1299000000059607,0.1460000000000008,0.15640000000595933,0.18599999999999994,0.19920000001788196,0.2129000000059591,0.2259999999999991,0.23940000000596484,0.2528000000119235,0.26599999999999824,0.27920000001788026,0.29280000001192263,0.3064999999999998,0.319500000000005,0.3325000000000031,0.3430999999940383,0.3593000000119204,0.37270000001788617,0.3862000000178796,0.3992000000178848,0.4128000000119201,0.4260999999940438]",,12,0,12,0,1,,,,
,,A000000000,2022-11-28_21h47.54.963,GoFitts,2022.2.4,Win32,75.43184733,,,,,,,,,,,,,,,,,,"[84.97967345311055,261.5405419811672]","[-28.745327398604914,-273.49352122627516]",32.3,550,4,"[99,96,93,92,91,90,90,90,90,88,87,83,82,74,65,56,44,33,22,15,10,7,6,4,3,2,1,1,0,0,-1,-2,-3,-5,-8,-11,-15,-45,-25]","[255,258,261,264,264,265,265,265,265,261,253,234,217,188,141,95,41,-10,-64,-106,-144,-172,-196,-211,-220,-226,-230,-232,-235,-238,-239,-242,-243,-245,-247,-248,-249,-194,-286]","[0,0,0,0,0,0,0,0,0,0,0,0,0,0,0,0,0,0,0,0,0,0,0,0,0,0,0,0,0,0,0,0,0,0,0,0,0,0,0]","[0,0,0,0,0,0,0,0,0,0,0,0,0,0,0,0,0,0,0,0,0,0,0,0,0,0,0,0,0,0,0,0,0,0,0,0,0,0,0]","[0,0,0,0,0,0,0,0,0,0,0,0,0,0,0,0,0,0,0,0,0,0,0,0,0,0,0,0,0,0,0,0,0,0,0,0,0,0,0]","[0.0001999999880837322,0.01300000000000523,0.026499999999998636,0.03969999998808049,0.05309999999403914,0.06659999999403965,0.07679999998212139,0.0902999999821219,0.10629999998212014,0.11679999998212054,0.13029999998212105,0.14640000000596132,0.15690000000596172,0.17009999999404357,0.1865999999940442,0.19959999999404232,0.21309999999404283,0.22650000000000148,0.2397999999821181,0.2530000000000001,0.26669999998808436,0.2795999999940406,0.29299999999999926,0.3064999999999998,0.31969999998808163,0.33319999998808214,0.3464999999999989,0.3596999999880808,0.37040000000596507,0.3866999999880818,0.39700000000000557,0.41309999999403857,0.42359999999403897,0.43990000000596297,0.45300000000000296,0.4662999999821196,0.47679999998211997,2.170599999994039,2.185799999982123]",,13,0,13,0,1,,,,
,,A000000000,2022-11-28_21h47.54.963,GoFitts,2022.2.4,Win32,75.43184733,,,,,,,,,,,,,,,,,,"[-28.745327398604914,-273.49352122627516]","[-28.745327398604665,273.49352122627516]",32.3,550,4,"[-25,-29,-31,-35,-37,-38,-38,-38,-38,-39,-39,-39,-39,-39,-36,-30,-19,-11,-9,-9,-10,-15,-20,-24,-26,-26,-26]","[-286,-289,-289,-291,-291,-291,-291,-291,-291,-289,-284,-278,-271,-259,-237,-204,-157,-102,-32,50,118,171,210,232,244,252,258]","[0,0,0,0,0,0,0,0,0,0,0,0,0,0,0,0,0,0,0,0,0,0,0,0,0,0,0]","[0,0,0,0,0,0,0,0,0,0,0,0,0,0,0,0,0,0,0,0,0,0,0,0,0,0,0]","[0,0,0,0,0,0,0,0,0,0,0,0,0,0,0,0,0,0,0,0,0,0,0,0,0,0,0]","[0.0006999999880790142,0.017400000005963534,0.024199999988077536,0.037400000005959555,0.0508000000119182,0.06400000000000006,0.07730000001192394,0.09080000001191735,0.10390000000595734,0.11769999998807634,0.13100000000000023,0.1443000000119241,0.15759999999404073,0.17080000001192275,0.18409999999403936,0.19740000000596325,0.21069999998807987,0.22399999999999665,0.2374000000059624,0.25059999999403715,0.2640000000000029,0.2774999999999963,0.2908000000119202,0.30400000000000205,0.3174000000059607,0.33080000001191934,0.3441999999880778]",,14,0,14,0,1,,,,
,,A000000000,2022-11-28_21h47.54.963,GoFitts,2022.2.4,Win32,75.43184733,,,,,,,,,,,,,,,,,,,,,,4,,,,,,,,,,,,,4,0,0,1
