key_resp_4.keys,key_resp_4.rt,身分證字號,date,expName,psychopyVersion,OS,frameRate,mouse_2.x,mouse_2.y,mouse_2.leftButton,mouse_2.midButton,mouse_2.rightButton,mouse_2.time,cont.keys,cont.rt,retry_testing.thisRepN,retry_testing.thisTrialN,retry_testing.thisN,retry_testing.thisIndex,retry_testing.ran,key_resp.keys,key_resp.rt,key_resp_3.keys,key_resp_3.rt,from,to,w,a,sequence_loop.thisN,mouse.x,mouse.y,mouse.leftButton,mouse.midButton,mouse.rightButton,mouse.time,key_resp_2.keys,trial_loop.thisRepN,trial_loop.thisTrialN,trial_loop.thisN,trial_loop.thisIndex,trial_loop.ran,sequence_loop.thisRepN,sequence_loop.thisTrialN,sequence_loop.thisIndex,sequence_loop.ran
return,4.0246,A000000000,2022-11-30_10h59.02.803,GoFitts,2022.2.4,Win32,60.54734803,,,,,,,,,,,,,,,,,,,,,,,,,,,,,,,,,,,,,,
,,A000000000,2022-11-30_10h59.02.803,GoFitts,2022.2.4,Win32,60.54734803,"[44.79998779296875,44.79998779296875,44.79998779296875,44.79998779296875,44.79998779296875,44.79998779296875,44.79998779296875,44.79998779296875,44.79998779296875,44.79998779296875,44.79998779296875,44.79998779296875,44.79998779296875,44.79998779296875,44.79998779296875,44.79998779296875,44.79998779296875,44.79998779296875,44.79998779296875,44.79998779296875,44.79998779296875,44.79998779296875,44.79998779296875,44.79998779296875,44.79998779296875,44.79998779296875,44.79998779296875,44.79998779296875,44.79998779296875,44.79998779296875,44.79998779296875,41.60003662109375,32.79998779296875,21.60003662109375,13.60003662109375,7.20001220703125,4.79998779296875,4.79998779296875,4.79998779296875,4,4,4,8,14.4000244140625,36,70.4000244140625,108.79998779296875,148,188,223.20001220703125,262.4000244140625,286.4000244140625,298.4000244140625,298.4000244140625,298.4000244140625,298.4000244140625,298.4000244140625,298.4000244140625,298.4000244140625,298.4000244140625,298.4000244140625,298.4000244140625,298.4000244140625,299.2000732421875,300,302.4000244140625,307.2000732421875,313.5999755859375,321.5999755859375,332.800048828125,339.2000732421875,343.2000732421875,345.5999755859375,345.5999755859375,346.4000244140625,347.2000732421875,347.2000732421875,347.2000732421875,347.2000732421875,347.2000732421875,347.2000732421875,347.2000732421875,347.2000732421875,347.2000732421875,347.2000732421875,347.2000732421875,345.5999755859375,335.2000732421875,317.5999755859375,285.5999755859375,248,203.20001220703125,154.4000244140625,92,51.20001220703125,12.79998779296875,-16,-36,-49.5999755859375,-53.5999755859375,-56,-64.79998779296875,-67.20001220703125,-70.39996337890625,-72.79998779296875,-72.79998779296875,-72.79998779296875,-72,-68.79998779296875,-66.39996337890625,-64,-58.39996337890625,-52.79998779296875,-47.20001220703125,-41.5999755859375,-36,-31.20001220703125,-24.79998779296875,-22.39996337890625,-22.39996337890625,11.20001220703125,16.79998779296875,16.79998779296875,16,14.4000244140625,11.20001220703125,11.20001220703125,11.20001220703125,11.20001220703125,11.20001220703125,11.20001220703125,11.20001220703125,11.20001220703125,11.20001220703125,11.20001220703125,11.20001220703125,11.20001220703125,11.20001220703125,11.20001220703125,11.20001220703125,11.20001220703125,11.20001220703125,11.20001220703125,11.20001220703125,7.20001220703125,3.20001220703125,-10.39996337890625,-38.39996337890625,-64,-103.20001220703125,-141.5999755859375,-178.39996337890625,-217.5999755859375,-251.20001220703125,-280.79998779296875,-290.3999938964844,-294.3999938964844,-295.1999816894531,-295.1999816894531,-295.1999816894531,-295.1999816894531,-295.1999816894531,-295.1999816894531,-297.6000061035156,-300,-302.3999938964844,-307.1999816894531,-315.1999816894531,-326.3999938964844,-339.1999816894531,-352,-359.1999816894531,-360.79998779296875,-361.6000061035156,-361.6000061035156,-361.6000061035156,-361.6000061035156,-361.6000061035156,-361.6000061035156,-361.6000061035156,-361.6000061035156,-361.6000061035156,-361.6000061035156,-361.6000061035156,-360.79998779296875,-345.6000061035156,-316.79998779296875,-275.1999816894531,-212,-166.39996337890625,-128,-95.20001220703125,-64,-50.39996337890625,-43.20001220703125,-41.5999755859375,-40,-40,-36.79998779296875,-34.39996337890625,-31.20001220703125,-27.20001220703125,-24,-21.5999755859375,-18.39996337890625,-12.79998779296875]","[57.600006103515625,57.600006103515625,57.600006103515625,57.600006103515625,57.600006103515625,57.600006103515625,57.600006103515625,57.600006103515625,57.600006103515625,57.600006103515625,57.600006103515625,57.600006103515625,57.600006103515625,57.600006103515625,57.600006103515625,57.600006103515625,57.600006103515625,57.600006103515625,57.600006103515625,57.600006103515625,57.600006103515625,57.600006103515625,57.600006103515625,57.600006103515625,57.600006103515625,57.600006103515625,57.600006103515625,57.600006103515625,57.600006103515625,57.600006103515625,57.600006103515625,56.79998779296875,52.79998779296875,48.79998779296875,47.199981689453125,46.399993896484375,46.399993896484375,46.399993896484375,46.399993896484375,49.600006103515625,55.199981689453125,63.199981689453125,68.79998779296875,71.19998168945312,71.19998168945312,64,52.79998779296875,40,21.600006103515625,3.199981689453125,-8.800018310546875,-12.800018310546875,-12.800018310546875,-12.800018310546875,-12.800018310546875,-12.800018310546875,-12.800018310546875,-12.800018310546875,-12.800018310546875,-12.800018310546875,-12.800018310546875,-12.800018310546875,-12.800018310546875,-10.399993896484375,-9.600006103515625,-8,-5.600006103515625,-1.600006103515625,2.399993896484375,8,9.600006103515625,11.199981689453125,11.199981689453125,11.199981689453125,11.199981689453125,11.199981689453125,11.199981689453125,11.199981689453125,11.199981689453125,11.199981689453125,11.199981689453125,11.199981689453125,11.199981689453125,11.199981689453125,11.199981689453125,11.199981689453125,12.79998779296875,23.199981689453125,46.399993896484375,89.60000610351562,130.39999389648438,173.60000610351562,219.1999969482422,263.1999969482422,290.3999938964844,314.4000015258789,333.5999984741211,351.1999969482422,372,384.79999923706055,401.6000003814697,428.7999999523163,432,432,432,432,432,429.59999990463257,420.80000019073486,412,400.79999923706055,392,384,377.5999984741211,373.5999984741211,370.39999771118164,367.1999969482422,360.7999954223633,359.1999969482422,359.1999969482422,329.5999984741211,326.4000015258789,326.4000015258789,332,336.7999954223633,340.7999954223633,340.7999954223633,340.7999954223633,340.7999954223633,340.7999954223633,340.7999954223633,340.7999954223633,340.7999954223633,340.7999954223633,340.7999954223633,340.7999954223633,340.7999954223633,340.7999954223633,340.7999954223633,340.7999954223633,340.7999954223633,340.7999954223633,340.7999954223633,340.7999954223633,334.4000015258789,321.5999984741211,300,262.3999938964844,227.1999969482422,177.59999084472656,136,91.19998168945312,52,17.600006103515625,-4.800018310546875,-7.20001220703125,-7.20001220703125,-7.20001220703125,-6.399993896484375,-6.399993896484375,-6.399993896484375,-6.399993896484375,-6.399993896484375,-4.800018310546875,-2.399993896484375,-0.800018310546875,2.399993896484375,5.600006103515625,7.199981689453125,7.199981689453125,2.399993896484375,-2.399993896484375,-4,-4.800018310546875,-4.800018310546875,-4.800018310546875,-4.800018310546875,-4.800018310546875,-4.800018310546875,-4.800018310546875,-4.800018310546875,-4.800018310546875,-4.800018310546875,-4.800018310546875,-8,-18.399993896484375,-38.399993896484375,-67.20001220703125,-112,-149.60003662109375,-186.4000244140625,-219.20001220703125,-256.79998779296875,-280,-294.4000244140625,-304.79998779296875,-310.4000244140625,-315.20001220703125,-324.79998779296875,-335.20001220703125,-346.4000244140625,-351.20001220703125,-356.79998779296875,-359.20001220703125,-361.60003662109375,-364.79998779296875]","[0,0,0,0,0,0,0,0,0,0,0,0,0,0,0,0,0,0,0,0,0,0,0,0,0,0,0,0,0,0,0,0,0,0,0,0,0,0,0,0,0,0,0,0,0,0,0,0,0,0,0,0,0,0,0,0,0,0,0,0,0,0,0,0,0,0,0,0,0,0,0,0,0,0,0,0,0,0,0,0,0,0,0,0,0,0,0,0,0,0,0,0,0,0,0,0,0,0,0,0,0,0,0,0,0,0,0,0,0,0,0,0,0,0,0,0,0,0,0,0,0,0,0,0,0,0,0,0,0,0,0,0,0,0,0,0,0,0,0,0,0,0,0,0,0,0,0,0,0,0,0,0,0,0,0,0,0,0,0,0,0,0,0,0,0,0,0,0,0,0,0,0,0,0,0,0,0,0,0,0,0,0,0,0,0,0,0,0,0,0,0,0,0,0,0,0,0,0,0,0,0,0,0,0,0,0]","[0,0,0,0,0,0,0,0,0,0,0,0,0,0,0,0,0,0,0,0,0,0,0,0,0,0,0,0,0,0,0,0,0,0,0,0,0,0,0,0,0,0,0,0,0,0,0,0,0,0,0,0,0,0,0,0,0,0,0,0,0,0,0,0,0,0,0,0,0,0,0,0,0,0,0,0,0,0,0,0,0,0,0,0,0,0,0,0,0,0,0,0,0,0,0,0,0,0,0,0,0,0,0,0,0,0,0,0,0,0,0,0,0,0,0,0,0,0,0,0,0,0,0,0,0,0,0,0,0,0,0,0,0,0,0,0,0,0,0,0,0,0,0,0,0,0,0,0,0,0,0,0,0,0,0,0,0,0,0,0,0,0,0,0,0,0,0,0,0,0,0,0,0,0,0,0,0,0,0,0,0,0,0,0,0,0,0,0,0,0,0,0,0,0,0,0,0,0,0,0,0,0,0,0,0,0]","[0,0,0,0,0,0,0,0,0,0,0,0,0,0,0,0,0,0,0,0,0,0,0,0,0,0,0,0,0,0,0,0,0,0,0,0,0,0,0,0,0,0,0,0,0,0,0,0,0,0,0,0,0,0,0,0,0,0,0,0,0,0,0,0,0,0,0,0,0,0,0,0,0,0,0,0,0,0,0,0,0,0,0,0,0,0,0,0,0,0,0,0,0,0,0,0,0,0,0,0,0,0,0,0,0,0,0,0,0,0,0,0,0,0,0,0,0,0,0,0,0,0,0,0,0,0,0,0,0,0,0,0,0,0,0,0,0,0,0,0,0,0,0,0,0,0,0,0,0,0,0,0,0,0,0,0,0,0,0,0,0,0,0,0,0,0,0,0,0,0,0,0,0,0,0,0,0,0,0,0,0,0,0,0,0,0,0,0,0,0,0,0,0,0,0,0,0,0,0,0,0,0,0,0,0,0]","[0.0032000000029803743,0.020200000002979834,0.03129999999701916,0.04809999999404013,0.06429999999702041,0.08099999999999952,0.09759999999404023,0.11470000000297986,0.13140000000596075,0.14820000000297995,0.1647999999970189,0.18140000000595968,0.1980000000000004,0.2147999999970196,0.23109999999403996,0.2482000000029796,0.2647999999970203,0.2814000000059611,0.29800000000000004,0.314599999994039,0.33129999999701987,0.34809999999403907,0.3645999999940397,0.3812000000029805,0.3979000000059596,0.4147000000029806,0.4312999999970195,0.4480999999940387,0.4647000000029795,0.4812999999970202,0.4980999999940394,0.5150000000000006,0.5312999999970192,0.5480999999940401,0.564599999994039,0.5812999999970199,0.5980999999940391,0.6142999999970193,0.6309000000059601,0.6477000000029793,0.66420000000298,0.6812999999970195,0.69770000000298,0.7144000000059609,0.7305999999940394,0.7477000000029808,0.7649000000059605,0.7814999999999994,0.7980999999940401,0.8147000000029809,0.8307999999970193,0.8482000000029792,0.8642999999970193,0.8804000000059595,0.8970000000000002,0.9139000000059596,0.9307000000029806,0.9472999999970195,0.964299999997019,0.9809000000059598,0.9974000000059604,1.0142000000029796,1.03059999999404,1.0474999999999994,1.0644000000059606,1.0809000000059594,1.0975999999940402,1.1142999999970193,1.1305999999940397,1.147499999999999,1.16579999999702,1.1805999999940386,1.1974000000059597,1.2139000000059603,1.2307000000029795,1.2479999999999993,1.263799999997019,1.2804000000059599,1.2969000000059605,1.3140999999940401,1.3302999999970204,1.3470999999940396,1.3637000000029804,1.3804000000059595,1.3970999999940386,1.4137000000029794,1.4307000000029806,1.4480999999940387,1.4640000000000004,1.4807999999970196,1.49709999999404,1.5135999999940388,1.5307000000029802,1.5467000000029802,1.5637000000029797,1.580700000002981,1.59740000000596,1.6135000000000002,1.6302999999970194,1.6472000000029805,1.6637999999970194,1.68029999999702,1.6969000000059609,1.7134000000059597,1.7305999999940394,1.7469000000059598,1.7635000000000005,1.78059999999404,1.7967000000029802,1.8137999999970198,1.8305000000000007,1.846700000002981,1.8637999999970187,1.879999999999999,1.8972999999970188,1.9139000000059596,1.930799999997019,1.946799999997019,1.9630999999940393,1.9797999999970202,1.9972999999970202,2.0140999999940394,2.03040000000596,2.0470000000000006,2.0634999999999994,2.0810999999940396,2.0969000000059594,2.11320000000298,2.1302000000029793,2.1470000000000002,2.1634000000059608,2.18029999999702,2.1970999999940393,2.21370000000298,2.230299999997019,2.24690000000596,2.2632999999970203,2.2800999999940395,2.2969000000059605,2.31379999999702,2.32990000000596,2.3465000000000007,2.36320000000298,2.380099999994039,2.3972000000029805,2.4134000000059608,2.4299999999999997,2.446799999997019,2.4634000000059597,2.4799000000059603,2.49709999999404,2.513799999997019,2.5299999999999994,2.5467999999970203,2.563200000002981,2.58,2.5970999999940396,2.6137999999970187,2.63509999999404,2.6692000000029807,2.688200000002981,2.702700000002981,2.7189999999999994,2.736400000005961,2.7527000000029798,2.76909999999404,2.7850999999940402,2.8017999999970193,2.81829999999702,2.834799999997019,2.8529999999999998,2.868400000005961,2.88509999999404,2.9015999999940387,2.9187999999970202,2.9355999999940394,2.952599999994039,2.9692000000029797,2.98559999999404,3.002200000002981,3.01890000000596,3.035499999999999,3.0527000000029805,3.069099999994039,3.08720000000298,3.1025999999940392,3.11920000000298,3.135799999997019,3.153099999994039,3.1687999999970202,3.18590000000596,3.202799999997021,3.2194999999999983,3.2350999999940395,3.252099999994039,3.2692000000029804,3.28490000000596,3.301599999994041,3.3184999999999985,3.3349000000059608,3.3514000000059614,3.368299999997019,3.385,3.401799999997019,3.419500000000001,3.4352000000029808]",return,1.4323,0,0,0,0,1,,,,,,,,,,,,,,,,,,,,,,,,,
,,A000000000,2022-11-30_10h59.02.803,GoFitts,2022.2.4,Win32,60.54734803,,,,,,,,,,,,,,return,0.6444,,,,,,,,,,,,,,,,,,,,,,,
,,A000000000,2022-11-30_10h59.02.803,GoFitts,2022.2.4,Win32,60.54734803,,,,,,,,,,,,,,,,return,0.4934,"[24,8.79998779296875]","[33.45653031794292,-37.1572412738697]",80,100,0,"[24,24,24,24,24,24,24,20.79998779296875,20.79998779296875,17.60003662109375,16,14.4000244140625,14.4000244140625,13.60003662109375,12.79998779296875,9.60003662109375,9.60003662109375,9.60003662109375,8.79998779296875,8.79998779296875,5.60003662109375,4,4,4.79998779296875]","[8.79998779296875,8.79998779296875,8.79998779296875,8.79998779296875,8.79998779296875,11.199981689453125,15.199981689453125,20.79998779296875,23.199981689453125,27.199981689453125,29.600006103515625,31.199981689453125,31.199981689453125,32,33.600006103515625,36,36,36,36,36,27.199981689453125,14.399993896484375,0.79998779296875,-16.800018310546875]","[0,0,0,0,0,0,0,0,0,0,0,0,0,0,0,0,0,0,0,0,0,0,0,0]","[0,0,0,0,0,0,0,0,0,0,0,0,0,0,0,0,0,0,0,0,0,0,0,0]","[0,0,0,0,0,0,0,0,0,0,0,0,0,0,0,0,0,0,0,0,0,0,0,0]","[0.002199999988079071,0.016199999988078417,0.03279999999701744,0.04899999999999949,0.06529999999701985,0.08379999999701937,0.10079999999701883,0.1170999999940392,0.1338999999910584,0.14899999999999736,0.16549999999999798,0.18239999999105905,0.1993999999910585,0.2161999999880777,0.23319999998807717,0.24959999999403948,0.2660999999940401,0.28269999998807904,0.29979999999702045,0.3162999999970175,0.33289999999106,0.3498999999910595,0.3666999999880787,0.3832999999970177]",,0,0,0,0,1,,,,
,,A000000000,2022-11-30_10h59.02.803,GoFitts,2022.2.4,Win32,60.54734803,,,,,,,,,,,,,,,,,,"[33.45653031794292,-37.1572412738697]","[-40.450849718747364,29.38926261462366]",80,100,0,"[4.79998779296875,10.4000244140625,17.60003662109375,25.60003662109375,29.60003662109375,30.4000244140625,31.20001220703125,31.20001220703125,32,32,32,32,32,32,30.4000244140625,29.60003662109375,27.20001220703125,26.4000244140625,22.4000244140625,19.20001220703125,16,9.60003662109375,-3.20001220703125,-18.39996337890625]","[-16.800018310546875,-24.800018310546875,-30.399993896484375,-30.399993896484375,-30.399993896484375,-30.399993896484375,-29.600006103515625,-29.600006103515625,-29.600006103515625,-29.600006103515625,-29.600006103515625,-29.600006103515625,-29.600006103515625,-29.600006103515625,-29.600006103515625,-29.600006103515625,-31.20001220703125,-31.20001220703125,-31.20001220703125,-31.20001220703125,-28,-19.20001220703125,4,32.79998779296875]","[0,0,0,0,0,0,0,0,0,0,0,0,0,0,0,0,0,0,0,0,0,0,0,0]","[0,0,0,0,0,0,0,0,0,0,0,0,0,0,0,0,0,0,0,0,0,0,0,0]","[0,0,0,0,0,0,0,0,0,0,0,0,0,0,0,0,0,0,0,0,0,0,0,0]","[0.0004000000059605213,0.014900000005958702,0.031200000002979067,0.048500000000000654,0.06490000000595941,0.08140000000596004,0.0982999999970211,0.11490000000596012,0.1322000000029817,0.14849999999999852,0.16529999999702127,0.18229999999702073,0.19860000000894118,0.21529999999701843,0.2327000000029784,0.2494000000059593,0.26599999999999824,0.282799999997021,0.29910000000894144,0.3157999999970187,0.33279999999701815,0.3497000000029793,0.3657000000029811,0.3811000000089422]",,1,0,1,0,1,,,,
,,A000000000,2022-11-30_10h59.02.803,GoFitts,2022.2.4,Win32,60.54734803,,,,,,,,,,,,,,,,,,"[-40.450849718747364,29.38926261462366]","[45.67727288213005,-20.336832153790006]",80,100,0,"[-18.39996337890625,-35.20001220703125,-42.39996337890625,-46.39996337890625,-51.20001220703125,-52.79998779296875,-55.20001220703125,-55.20001220703125,-57.5999755859375,-57.5999755859375,-48.79998779296875,-33.5999755859375,-13.5999755859375,12.79998779296875,28.79998779296875]","[32.79998779296875,60.79998779296875,72,74.39999389648438,74.39999389648438,73.60000610351562,72,72,69.60000610351562,66.39999389648438,53.600006103515625,36.79998779296875,19.199981689453125,3.199981689453125,-7.20001220703125]","[0,0,0,0,0,0,0,0,0,0,0,0,0,0,0]","[0,0,0,0,0,0,0,0,0,0,0,0,0,0,0]","[0,0,0,0,0,0,0,0,0,0,0,0,0,0,0]","[0.00039999999106044015,0.01659999999403894,0.03320000000298151,0.05000000000000071,0.06659999999403965,0.08359999999403911,0.10009999999403973,0.1163999999910601,0.13370000000297821,0.14989999999106018,0.16689999999105964,0.1832999999970184,0.1999999999999993,0.217200000002979,0.23370000000297964]",,2,0,2,0,1,,,,
,,A000000000,2022-11-30_10h59.02.803,GoFitts,2022.2.4,Win32,60.54734803,,,,,,,,,,,,,,,,,,"[45.67727288213005,-20.336832153790006]","[-48.907380036690284,10.395584540887965]",80,100,0,"[28.79998779296875,37.60003662109375,40,41.60003662109375,41.60003662109375,41.60003662109375,41.60003662109375,39.20001220703125,37.60003662109375,35.20001220703125,31.20001220703125,26.4000244140625,20,14.4000244140625,0,-24.79998779296875]","[-7.20001220703125,-10.399993896484375,-12,-12.800018310546875,-16,-20,-22.399993896484375,-23.20001220703125,-19.20001220703125,-14.399993896484375,-8.800018310546875,-3.20001220703125,1.600006103515625,5.600006103515625,10.399993896484375,12.79998779296875]","[0,0,0,0,0,0,0,0,0,0,0,0,0,0,0,0]","[0,0,0,0,0,0,0,0,0,0,0,0,0,0,0,0]","[0,0,0,0,0,0,0,0,0,0,0,0,0,0,0,0]","[0.0004000000059605213,0.017299999997018034,0.03249999999999886,0.049100000008941436,0.06570000000298037,0.08270000000297983,0.09940000000596072,0.11620000000297992,0.13250000000000028,0.1487999999970171,0.16679999999701778,0.1832999999970184,0.20010000000894124,0.21599999999999753,0.2332000000029808,0.24879999999701852]",,3,0,3,0,1,,,,
,,A000000000,2022-11-30_10h59.02.803,GoFitts,2022.2.4,Win32,60.54734803,,,,,,,,,,,,,,,,,,"[-48.907380036690284,10.395584540887965]","[50,0]",80,100,0,"[-24.79998779296875,-49.5999755859375,-70.39996337890625,-77.5999755859375,-80,-77.5999755859375,-56,-34.39996337890625,-18.39996337890625,-12,-8.79998779296875,-5.5999755859375,-1.5999755859375,0.79998779296875,4.79998779296875,11.20001220703125,19.20001220703125]","[12.79998779296875,12.79998779296875,12,8.79998779296875,6.399993896484375,3.199981689453125,-1.600006103515625,-6.399993896484375,-9.600006103515625,-11.20001220703125,-12.800018310546875,-14.399993896484375,-16.800018310546875,-18.399993896484375,-20,-20,-19.20001220703125]","[0,0,0,0,0,0,0,0,0,0,0,0,0,0,0,0,0]","[0,0,0,0,0,0,0,0,0,0,0,0,0,0,0,0,0]","[0,0,0,0,0,0,0,0,0,0,0,0,0,0,0,0,0]","[0.00030000001192220793,0.016100000008943738,0.032700000002982677,0.05010000000894266,0.06660000000894328,0.07770000000298083,0.10140000000596316,0.1161000000089416,0.13380000001192371,0.15040000000596265,0.16620000000298063,0.1828000000119232,0.20010000000894124,0.21660000000894186,0.23330000001192275,0.25020000000298026,0.26680000001192283]",,4,0,4,0,1,,,,
,,A000000000,2022-11-30_10h59.02.803,GoFitts,2022.2.4,Win32,60.54734803,,,,,,,,,,,,,,,,,,"[50,0]","[-48.907380036690284,-10.395584540887953]",80,100,0,"[19.20001220703125,24.79998779296875,29.60003662109375,30.4000244140625,31.20001220703125,31.20001220703125,32,32,26.4000244140625,8.79998779296875,-12.79998779296875]","[-19.20001220703125,-14.399993896484375,-9.600006103515625,-8,-6.399993896484375,-6.399993896484375,-6.399993896484375,-5.600006103515625,-5.600006103515625,-5.600006103515625,-5.600006103515625]","[0,0,0,0,0,0,0,0,0,0,0]","[0,0,0,0,0,0,0,0,0,0,0]","[0,0,0,0,0,0,0,0,0,0,0]","[0.0007000000029790954,0.015999999999998238,0.0329999999999977,0.04920000000297975,0.06599999999999895,0.08259999999403789,0.09929999999701877,0.1157999999970194,0.13240000000595842,0.14940000000595788,0.16570000000297824]",,5,0,5,0,1,,,,
,,A000000000,2022-11-30_10h59.02.803,GoFitts,2022.2.4,Win32,60.54734803,,,,,,,,,,,,,,,,,,"[-48.907380036690284,-10.395584540887953]","[45.67727288213004,20.336832153790006]",80,100,0,"[-12.79998779296875,-28,-28.79998779296875,-29.5999755859375,-24,-10.39996337890625,-2.39996337890625,-2.39996337890625,-2.39996337890625,-7.20001220703125,-20.79998779296875,-48,-60.79998779296875,-72.79998779296875,-73.5999755859375,-73.5999755859375,-68.79998779296875,-51.20001220703125,-24.79998779296875,7.20001220703125]","[-5.600006103515625,-5.600006103515625,-5.600006103515625,-4.800018310546875,-2.399993896484375,0.79998779296875,3.199981689453125,3.199981689453125,3.199981689453125,0,-6.399993896484375,-13.600006103515625,-20,-21.600006103515625,-21.600006103515625,-21.600006103515625,-19.20001220703125,-6.399993896484375,3.199981689453125,18.399993896484375]","[0,0,0,0,0,0,0,0,0,0,0,0,0,0,0,0,0,0,0,0]","[0,0,0,0,0,0,0,0,0,0,0,0,0,0,0,0,0,0,0,0]","[0,0,0,0,0,0,0,0,0,0,0,0,0,0,0,0,0,0,0,0]","[0.0005000000000023874,0.016099999994040104,0.03300000000000125,0.05090000000596362,0.06709999999404204,0.08450000000000202,0.10000000000000142,0.11600000000000321,0.13259999999404215,0.1502000000029824,0.16679999999702133,0.18340000000596035,0.20029999999702142,0.21629999999701965,0.23300000000000054,0.24900000000000233,0.26309999999404,0.2832000000029815,0.2992999999970216,0.3162999999970211]",,6,0,6,0,1,,,,
,,A000000000,2022-11-30_10h59.02.803,GoFitts,2022.2.4,Win32,60.54734803,,,,,,,,,,,,,,,,,,"[45.67727288213004,20.336832153790006]","[-40.45084971874737,-29.38926261462365]",80,100,0,"[7.20001220703125,34.4000244140625,61.60003662109375,78.4000244140625,79.20001220703125,79.20001220703125,73.60003662109375,65.60003662109375,57.60003662109375,48,35.20001220703125,12.79998779296875,-20.79998779296875]","[18.399993896484375,31.199981689453125,43.199981689453125,50.399993896484375,50.399993896484375,50.399993896484375,48.79998779296875,43.199981689453125,37.600006103515625,30.399993896484375,20,6.399993896484375,-15.20001220703125]","[0,0,0,0,0,0,0,0,0,0,0,0,0]","[0,0,0,0,0,0,0,0,0,0,0,0,0]","[0,0,0,0,0,0,0,0,0,0,0,0,0]","[0.0004000000059605213,0.01579999999702153,0.032700000002979124,0.04979999999702045,0.06629999999702108,0.08270000000297983,0.09940000000596072,0.1170999999940392,0.13309999999404099,0.14979999999701832,0.1670000000000016,0.18309999999403814,0.19920000000298188]",,7,0,7,0,1,,,,
,,A000000000,2022-11-30_10h59.02.803,GoFitts,2022.2.4,Win32,60.54734803,,,,,,,,,,,,,,,,,,"[-40.45084971874737,-29.38926261462365]","[33.456530317942914,37.157241273869715]",80,100,0,"[-20.79998779296875,-37.5999755859375,-39.20001220703125,-39.20001220703125,-33.5999755859375,-21.5999755859375,-8.79998779296875,4]","[-15.20001220703125,-24.800018310546875,-27.20001220703125,-27.20001220703125,-24,-12.800018310546875,-2.399993896484375,10.399993896484375]","[0,0,0,0,0,0,0,0]","[0,0,0,0,0,0,0,0]","[0,0,0,0,0,0,0,0]","[0.00039999999106044015,0.0167999999970192,0.03300000000000125,0.04949999999999832,0.06689999999105822,0.08339999999105885,0.10000000000000142,0.1170999999940392]",,8,0,8,0,1,,,,
,,A000000000,2022-11-30_10h59.02.803,GoFitts,2022.2.4,Win32,60.54734803,,,,,,,,,,,,,,,,,,"[33.456530317942914,37.157241273869715]","[-25.00000000000002,-43.301270189221924]",80,100,0,"[4,13.60003662109375,15.20001220703125,14.4000244140625,10.4000244140625,0.79998779296875,-4.79998779296875,-8,-8,-8,-8,-8,-13.5999755859375,-21.5999755859375,-32.79998779296875]","[10.399993896484375,22.399993896484375,26.399993896484375,28.79998779296875,28.79998779296875,28.79998779296875,25.600006103515625,22.399993896484375,21.600006103515625,21.600006103515625,21.600006103515625,20.79998779296875,15.199981689453125,4,-10.399993896484375]","[0,0,0,0,0,0,0,0,0,0,0,0,0,0,0]","[0,0,0,0,0,0,0,0,0,0,0,0,0,0,0]","[0,0,0,0,0,0,0,0,0,0,0,0,0,0,0]","[0.0004000000059605213,0.017100000008941407,0.032500000000002416,0.04879999999702278,0.0654000000059618,0.08200000000000074,0.09840000000596305,0.11500000000000199,0.1322000000029817,0.1489000000059626,0.16550000000000153,0.18240000000596268,0.19870000000298305,0.21490000000596154,0.23150000000000048]",,9,0,9,0,1,,,,
,,A000000000,2022-11-30_10h59.02.803,GoFitts,2022.2.4,Win32,60.54734803,,,,,,,,,,,,,,,,,,"[-25.00000000000002,-43.301270189221924]","[15.450849718747373,47.552825814757675]",80,100,0,"[-32.79998779296875,-42.39996337890625,-47.20001220703125,-47.20001220703125,-47.20001220703125,-36,-14.39996337890625,12.79998779296875]","[-10.399993896484375,-26.399993896484375,-32.800018310546875,-32.800018310546875,-32.800018310546875,-22.399993896484375,-0.800018310546875,20.79998779296875]","[0,0,0,0,0,0,0,0]","[0,0,0,0,0,0,0,0]","[0,0,0,0,0,0,0,0]","[0.0004000000059605213,0.016700000002977333,0.033100000008939645,0.05060000000893794,0.0676000000089374,0.08410000000893803,0.10080000001191891,0.11760000000893811]",,10,0,10,0,1,,,,
,,A000000000,2022-11-30_10h59.02.803,GoFitts,2022.2.4,Win32,60.54734803,,,,,,,,,,,,,,,,,,"[15.450849718747373,47.552825814757675]","[-5.226423163382711,-49.72609476841367]",80,100,0,"[12.79998779296875,28,32.79998779296875,32.79998779296875,32.79998779296875,24.79998779296875,8,-4.79998779296875]","[20.79998779296875,32.79998779296875,35.199981689453125,35.199981689453125,34.399993896484375,24,-0.800018310546875,-20]","[0,0,0,0,0,0,0,0]","[0,0,0,0,0,0,0,0]","[0,0,0,0,0,0,0,0]","[0.0007999999970209615,0.015999999999998238,0.03240000000596055,0.04920000000297975,0.06629999999702108,0.08299999999999841,0.09929999999701877,0.11590000000596135]",,11,0,11,0,1,,,,
,,A000000000,2022-11-30_10h59.02.803,GoFitts,2022.2.4,Win32,60.54734803,,,,,,,,,,,,,,,,,,"[-5.226423163382711,-49.72609476841367]","[-5.226423163382667,49.72609476841367]",80,100,0,"[-4.79998779296875,-16.79998779296875,-23.20001220703125,-26.39996337890625,-26.39996337890625,-27.20001220703125,-23.20001220703125,-18.39996337890625,-13.5999755859375,-8]","[-20,-37.600006103515625,-46.399993896484375,-49.600006103515625,-49.600006103515625,-49.600006103515625,-39.20001220703125,-24,-4,14.399993896484375]","[0,0,0,0,0,0,0,0,0,0]","[0,0,0,0,0,0,0,0,0,0]","[0,0,0,0,0,0,0,0,0,0]","[0.00030000001192220793,0.01540000000596109,0.03200000000000003,0.048500000000000654,0.06530000001192349,0.08290000000596365,0.09940000000596072,0.11540000000596251,0.13170000000298288,0.1489000000059626]",,12,0,12,0,1,,,,
,,A000000000,2022-11-30_10h59.02.803,GoFitts,2022.2.4,Win32,60.54734803,,,,,,,,,,,,,,,,,,"[-5.226423163382667,49.72609476841367]","[15.450849718747362,-47.55282581475768]",80,100,0,"[-8,-3.20001220703125,-1.5999755859375,-1.5999755859375,-1.5999755859375,-1.5999755859375,-1.5999755859375,-3.20001220703125,-4.79998779296875,-4.79998779296875]","[14.399993896484375,32.79998779296875,39.199981689453125,39.199981689453125,39.199981689453125,39.199981689453125,34.399993896484375,20,-6.399993896484375,-18.399993896484375]","[0,0,0,0,0,0,0,0,0,0]","[0,0,0,0,0,0,0,0,0,0]","[0,0,0,0,0,0,0,0,0,0]","[0.00039999999105688744,0.0162000000029785,0.0328999999910593,0.04979999999702045,0.06659999999403965,0.08289999999106001,0.09959999999403735,0.11589999999105771,0.1332999999970177,0.14929999999701948]",,13,0,13,0,1,,,,
,,A000000000,2022-11-30_10h59.02.803,GoFitts,2022.2.4,Win32,60.54734803,,,,,,,,,,,,,,,,,,"[15.450849718747362,-47.55282581475768]","[-24.99999999999999,43.30127018922194]",80,100,0,"[-4.79998779296875,-4.79998779296875,-4.79998779296875,-4.79998779296875,-4.79998779296875,-4.79998779296875,-4.79998779296875,-4.79998779296875]","[-18.399993896484375,-24.800018310546875,-26.399993896484375,-26.399993896484375,-25.600006103515625,-15.20001220703125,-2.399993896484375,13.600006103515625]","[0,0,0,0,0,0,0,0]","[0,0,0,0,0,0,0,0]","[0,0,0,0,0,0,0,0]","[0.000600000008940782,0.016400000005962312,0.03300000000000125,0.0499000000059624,0.06570000000298037,0.08320000000298222,0.0997000000029793,0.1161000000089416]",,14,0,14,0,1,,,,
,,A000000000,2022-11-30_10h59.02.803,GoFitts,2022.2.4,Win32,60.54734803,,,,,,,,,,,,,,,,,,,,,,0,,,,,,,,,,,,,0,0,0,1
,,A000000000,2022-11-30_10h59.02.803,GoFitts,2022.2.4,Win32,60.54734803,,,,,,,,,,,,,,,,return,0.6599,"[-30.39996337890625,16.79998779296875]","[26.266444521870515,-80.83980388508806]",77.8,170,1,"[-30.39996337890625,20.79998779296875,24,27.20001220703125,29.60003662109375,29.60003662109375,29.60003662109375,29.60003662109375,29.60003662109375,29.60003662109375,29.60003662109375,29.60003662109375,28.79998779296875,22.4000244140625,17.60003662109375,17.60003662109375,17.60003662109375,17.60003662109375,17.60003662109375,17.60003662109375,17.60003662109375,17.60003662109375,17.60003662109375,17.60003662109375,13.60003662109375,5.60003662109375,2.4000244140625,0.79998779296875,-0.79998779296875,-0.79998779296875,0,4,10.4000244140625]","[16.79998779296875,10.399993896484375,9.600006103515625,9.600006103515625,8.79998779296875,8.79998779296875,8.79998779296875,8.79998779296875,8.79998779296875,8,8,5.600006103515625,4,0.79998779296875,-4,-4,-4,-4,-4,-4,-4,-4,-4,-4,-4,-4,-4,-4,-5.600006103515625,-10.399993896484375,-19.20001220703125,-32.800018310546875,-53.600006103515625]","[0,0,0,0,0,0,0,0,0,0,0,0,0,0,0,0,0,0,0,0,0,0,0,0,0,0,0,0,0,0,0,0,0]","[0,0,0,0,0,0,0,0,0,0,0,0,0,0,0,0,0,0,0,0,0,0,0,0,0,0,0,0,0,0,0,0,0]","[0,0,0,0,0,0,0,0,0,0,0,0,0,0,0,0,0,0,0,0,0,0,0,0,0,0,0,0,0,0,0,0,0]","[0.0020000000000024443,0.09100000000000108,0.10440000000595973,0.12110000000894061,0.13690000000596214,0.15470000000298256,0.1701000000089401,0.1871000000089431,0.20430000001192283,0.22180000001192113,0.23770000000298097,0.2487000000029802,0.272000000000002,0.2882000000029805,0.30460000000894283,0.32120000000298177,0.3376000000089405,0.35350000000000037,0.3707000000029801,0.381600000008941,0.40440000000596044,0.4200000000000017,0.4367000000029826,0.4535000000000018,0.46780000001192334,0.48830000001192175,0.5041000000089397,0.5206000000089404,0.5366000000089421,0.5532000000029811,0.5703000000119225,0.5875000000000021,0.6045000000000016]",,0,0,0,0,1,,,,
,,A000000000,2022-11-30_10h59.02.803,GoFitts,2022.2.4,Win32,60.54734803,,,,,,,,,,,,,,,,,,"[26.266444521870515,-80.83980388508806]","[-42.49999999999998,73.6121593216773]",77.8,170,1,"[10.4000244140625,15.20001220703125,15.20001220703125,15.20001220703125,15.20001220703125,15.20001220703125,17.60003662109375,18.4000244140625,20,19.20001220703125,19.20001220703125,18.4000244140625,16,13.60003662109375,9.60003662109375,9.60003662109375,9.60003662109375,10.4000244140625,10.4000244140625,8,6.4000244140625,3.20001220703125,0.79998779296875,-7.20001220703125]","[-53.600006103515625,-79.20001220703125,-91.20001220703125,-94.4000244140625,-96,-96,-94.4000244140625,-88,-81.60003662109375,-75.20001220703125,-67.20001220703125,-60.800018310546875,-53.600006103515625,-44.800018310546875,-24.800018310546875,-3.20001220703125,22.399993896484375,45.600006103515625,68.79998779296875,75.19998168945312,77.60000610351562,77.60000610351562,77.60000610351562,75.19998168945312]","[0,0,0,0,0,0,0,0,0,0,0,0,0,0,0,0,0,0,0,0,0,0,0,0]","[0,0,0,0,0,0,0,0,0,0,0,0,0,0,0,0,0,0,0,0,0,0,0,0]","[0,0,0,0,0,0,0,0,0,0,0,0,0,0,0,0,0,0,0,0,0,0,0,0]","[0.00029999999701857405,0.016500000000000625,0.03190000000595816,0.048500000000000654,0.06550000000000011,0.08259999999403789,0.09949999999999903,0.11620000000297992,0.1325999999940386,0.1484000000059602,0.16570000000297824,0.18220000000297887,0.1987999999970178,0.21579999999701727,0.23259999999404002,0.24859999999403826,0.26500000000000057,0.28149999999999764,0.29809999999404013,0.3149000000059594,0.3315999999940402,0.3485999999940397,0.36590000000596135,0.3819000000059596]",,1,0,1,0,1,,,,
,,A000000000,2022-11-30_10h59.02.803,GoFitts,2022.2.4,Win32,60.54734803,,,,,,,,,,,,,,,,,,"[-42.49999999999998,73.6121593216773]","[56.87610154050297,-63.16731016557849]",77.8,170,1,"[-7.20001220703125,-15.20001220703125,-25.5999755859375,-33.5999755859375,-39.20001220703125,-44,-45.5999755859375,-46.39996337890625,-46.39996337890625,-46.39996337890625,-46.39996337890625,-46.39996337890625,-46.39996337890625,-46.39996337890625,-46.39996337890625,-46.39996337890625,-46.39996337890625,-33.5999755859375,-14.39996337890625,10.4000244140625,36,56]","[75.19998168945312,70.39999389648438,64.79998779296875,63.199981689453125,62.399993896484375,62.399993896484375,62.399993896484375,62.399993896484375,62.399993896484375,62.399993896484375,62.399993896484375,62.399993896484375,62.399993896484375,62.399993896484375,62.399993896484375,62.399993896484375,60.79998779296875,52,38.399993896484375,20.79998779296875,-4.800018310546875,-30.399993896484375]","[0,0,0,0,0,0,0,0,0,0,0,0,0,0,0,0,0,0,0,0,0,0]","[0,0,0,0,0,0,0,0,0,0,0,0,0,0,0,0,0,0,0,0,0,0]","[0,0,0,0,0,0,0,0,0,0,0,0,0,0,0,0,0,0,0,0,0,0]","[0.0005999999940407008,0.01699999999999946,0.03429999999702105,0.04959999999404019,0.06579999999702224,0.08300000000000196,0.09950000000000259,0.11599999999999966,0.1323999999910619,0.14949999999999974,0.1663999999910608,0.18339999999106027,0.20000000000000284,0.21659999999404178,0.23220000000298313,0.2492999999970209,0.2690000000000019,0.28529999999702227,0.30020000000298097,0.31620000000298276,0.3332000000029822,0.34939999999106064]",,2,0,2,0,1,,,,
,,A000000000,2022-11-30_10h59.02.803,GoFitts,2022.2.4,Win32,60.54734803,,,,,,,,,,,,,,,,,,"[56.87610154050297,-63.16731016557849]","[-68.76644452187053,49.961746444860225]",77.8,170,1,"[56,69.60003662109375,76,76.79998779296875,76.79998779296875,76.79998779296875,78.4000244140625,79.20001220703125,79.20001220703125,79.20001220703125,79.20001220703125,79.20001220703125,79.20001220703125,79.20001220703125,76.79998779296875,69.60003662109375,52,22.4000244140625,-17.5999755859375,-68,-98.39996337890625,-106.39996337890625,-104.79998779296875,-96,-83.20001220703125,-72.79998779296875]","[-30.399993896484375,-49.600006103515625,-60,-66.39999389648438,-70.39999389648438,-72,-76.80001831054688,-78.39999389648438,-78.39999389648438,-78.39999389648438,-79.20001220703125,-79.20001220703125,-79.20001220703125,-79.20001220703125,-76,-68.80001831054688,-58.399993896484375,-44.800018310546875,-32.800018310546875,-20,-12.800018310546875,-8.800018310546875,-7.20001220703125,-1.600006103515625,8,15.199981689453125]","[0,0,0,0,0,0,0,0,0,0,0,0,0,0,0,0,0,0,0,0,0,0,0,0,0,0]","[0,0,0,0,0,0,0,0,0,0,0,0,0,0,0,0,0,0,0,0,0,0,0,0,0,0]","[0,0,0,0,0,0,0,0,0,0,0,0,0,0,0,0,0,0,0,0,0,0,0,0,0,0]","[0.0004999999999988347,0.01759999999404016,0.03259999999404073,0.04979999999702045,0.06609999999404081,0.08320000000297867,0.10000000000000142,0.1163999999910601,0.13250000000000028,0.14399999999999835,0.16550000000000153,0.18270000000298126,0.1937999999970188,0.2102000000029811,0.2278999999910596,0.25049999999999883,0.2667999999970192,0.2835000000000001,0.300099999994039,0.31650000000000134,0.33289999999106,0.3500000000000014,0.3657999999970194,0.38229999999702,0.39970000000298,0.4167999999970178]",,3,0,3,0,1,,,,
,,A000000000,2022-11-30_10h59.02.803,GoFitts,2022.2.4,Win32,60.54734803,,,,,,,,,,,,,,,,,,"[-68.76644452187053,49.961746444860225]","[77.65136389962109,-34.57261466144301]",77.8,170,1,"[-72.79998779296875,-66.39996337890625,-64.79998779296875,-66.39996337890625,-71.20001220703125,-74.39996337890625,-75.20001220703125,-75.20001220703125,-75.20001220703125,-75.20001220703125,-76.79998779296875,-76.79998779296875,-76.79998779296875,-76.79998779296875,-76.79998779296875,-67.20001220703125,-48.79998779296875,-24.79998779296875,3.20001220703125,16.79998779296875,34.4000244140625,49.60003662109375]","[15.199981689453125,18.399993896484375,23.199981689453125,26.399993896484375,30.399993896484375,33.600006103515625,33.600006103515625,33.600006103515625,33.600006103515625,33.600006103515625,34.399993896484375,35.199981689453125,37.600006103515625,38.399993896484375,38.399993896484375,31.199981689453125,12.79998779296875,-10.399993896484375,-34.399993896484375,-44,-54.399993896484375,-60.800018310546875]","[0,0,0,0,0,0,0,0,0,0,0,0,0,0,0,0,0,0,0,0,0,0]","[0,0,0,0,0,0,0,0,0,0,0,0,0,0,0,0,0,0,0,0,0,0]","[0,0,0,0,0,0,0,0,0,0,0,0,0,0,0,0,0,0,0,0,0,0]","[0.0009999999999976694,0.016099999994040104,0.032700000002979124,0.04949999999999832,0.06640000000595947,0.0829000000059601,0.09940000000596072,0.11609999999403797,0.1325999999940386,0.14890000000595904,0.1659000000059585,0.18270000000298126,0.19920000000297833,0.21659999999403823,0.23249999999999815,0.252700000002978,0.2677999999970204,0.28320000000297796,0.3022999999970182,0.31590000000596064,0.33140000000596004,0.34870000000297807]",,4,0,4,0,1,,,,
,,A000000000,2022-11-30_10h59.02.803,GoFitts,2022.2.4,Win32,60.54734803,,,,,,,,,,,,,,,,,,"[77.65136389962109,-34.57261466144301]","[-83.14254606237348,17.672493719509543]",77.8,170,1,"[49.60003662109375,60.79998779296875,69.60003662109375,76,76,76,77.60003662109375,77.60003662109375,76.79998779296875,76.79998779296875,76.79998779296875,76.79998779296875,76,72.79998779296875,68.79998779296875,62.4000244140625,53.60003662109375,34.4000244140625,11.20001220703125,-1.5999755859375,-10.39996337890625,-16.79998779296875,-25.5999755859375,-37.5999755859375,-46.39996337890625,-49.5999755859375,-50.39996337890625,-51.20001220703125,-52,-52,-52,-52,-52,-53.5999755859375]","[-60.800018310546875,-64.80001831054688,-68,-69.60000610351562,-69.60000610351562,-69.60000610351562,-68.80001831054688,-64.80001831054688,-61.600006103515625,-59.20001220703125,-56.800018310546875,-55.20001220703125,-51.20001220703125,-47.20001220703125,-42.399993896484375,-37.600006103515625,-35.20001220703125,-34.399993896484375,-34.399993896484375,-34.399993896484375,-34.399993896484375,-32.800018310546875,-30.399993896484375,-27.20001220703125,-24.800018310546875,-24,-22.399993896484375,-20.800018310546875,-17.600006103515625,-15.20001220703125,-11.20001220703125,-10.399993896484375,-9.600006103515625,-5.600006103515625]","[0,0,0,0,0,0,0,0,0,0,0,0,0,0,0,0,0,0,0,0,0,0,0,0,0,0,0,0,0,0,0,0,0,0]","[0,0,0,0,0,0,0,0,0,0,0,0,0,0,0,0,0,0,0,0,0,0,0,0,0,0,0,0,0,0,0,0,0,0]","[0,0,0,0,0,0,0,0,0,0,0,0,0,0,0,0,0,0,0,0,0,0,0,0,0,0,0,0,0,0,0,0,0,0]","[0.00039999999105688744,0.0167999999970192,0.03220000000298029,0.0490999999940378,0.06620000000297921,0.07699999999999818,0.09370000000297907,0.1170999999940392,0.13359999999403982,0.15009999999404045,0.1664999999999992,0.18239999999105905,0.19909999999403993,0.2167999999970185,0.23300000000000054,0.2487000000029802,0.265799999997018,0.2825999999940372,0.2987000000029809,0.3157999999970187,0.3329999999999984,0.3485999999940397,0.3657000000029811,0.38229999999702,0.3999999999999986,0.41689999999105964,0.4332000000029801,0.44979999999701903,0.46659999999403823,0.4832000000029808,0.49979999999701974,0.5167999999970192,0.5333999999910581,0.5492999999970181]",,5,0,5,0,1,,,,
,,A000000000,2022-11-30_10h59.02.803,GoFitts,2022.2.4,Win32,60.54734803,,,,,,,,,,,,,,,,,,"[-83.14254606237348,17.672493719509543]","[85,0]",77.8,170,1,"[-53.5999755859375,-56,-56.79998779296875,-59.20001220703125,-61.5999755859375,-62.39996337890625,-62.39996337890625,-63.20001220703125,-63.20001220703125,-64,-64,-64,-64,-64,-64,-62.39996337890625,-55.20001220703125,-36,-7.20001220703125,30.4000244140625,64.79998779296875,96.79998779296875,113.60003662109375,121.60003662109375,123.20001220703125,123.20001220703125,123.20001220703125,123.20001220703125,123.20001220703125,123.20001220703125,122.4000244140625,120.79998779296875,118.4000244140625]","[-5.600006103515625,-3.20001220703125,-1.600006103515625,1.600006103515625,3.199981689453125,4,4,5.600006103515625,5.600006103515625,6.399993896484375,6.399993896484375,6.399993896484375,7.199981689453125,7.199981689453125,8.79998779296875,9.600006103515625,6.399993896484375,-4.800018310546875,-24.800018310546875,-40.800018310546875,-49.600006103515625,-53.600006103515625,-51.20001220703125,-48,-46.399993896484375,-44.800018310546875,-42.399993896484375,-40.800018310546875,-34.399993896484375,-27.20001220703125,-24.800018310546875,-20,-17.600006103515625]","[0,0,0,0,0,0,0,0,0,0,0,0,0,0,0,0,0,0,0,0,0,0,0,0,0,0,0,0,0,0,0,0,0]","[0,0,0,0,0,0,0,0,0,0,0,0,0,0,0,0,0,0,0,0,0,0,0,0,0,0,0,0,0,0,0,0,0]","[0,0,0,0,0,0,0,0,0,0,0,0,0,0,0,0,0,0,0,0,0,0,0,0,0,0,0,0,0,0,0,0,0]","[0.0005999999940371481,0.01609999999403655,0.03220000000298029,0.04890000000595762,0.06599999999999895,0.08259999999403789,0.09949999999999903,0.11659999999403681,0.13320000000297938,0.14999999999999858,0.16659999999403752,0.17720000000297986,0.19409999999403738,0.2167999999970185,0.23349999999999937,0.24990000000595813,0.26640000000595876,0.2832999999970198,0.2989000000059576,0.3167999999970199,0.3324000000059577,0.34920000000298046,0.36570000000297753,0.382700000002977,0.39899999999999736,0.41629999999701894,0.43279999999701957,0.44959999999403877,0.4662000000029778,0.48259999999403647,0.49929999999701735,0.5159000000059599,0.5322000000029803]",,6,0,6,0,1,,,,
,,A000000000,2022-11-30_10h59.02.803,GoFitts,2022.2.4,Win32,60.54734803,,,,,,,,,,,,,,,,,,"[85,0]","[-83.14254606237348,-17.67249371950952]",77.8,170,1,"[118.4000244140625,116,112.79998779296875,109.60003662109375,102.4000244140625,92,81.60003662109375,72,67.20001220703125,66.4000244140625,66.4000244140625,66.4000244140625,66.4000244140625,66.4000244140625,66.4000244140625,66.4000244140625,59.20001220703125,40.79998779296875,20.79998779296875,-4,-29.5999755859375,-44.79998779296875,-48.79998779296875]","[-17.600006103515625,-15.20001220703125,-14.399993896484375,-12.800018310546875,-12.800018310546875,-12.800018310546875,-12.800018310546875,-12.800018310546875,-12.800018310546875,-12.800018310546875,-12.800018310546875,-12.800018310546875,-12.800018310546875,-12.800018310546875,-12.800018310546875,-12.800018310546875,-12,-15.20001220703125,-17.600006103515625,-21.600006103515625,-28,-30.399993896484375,-30.399993896484375]","[0,0,0,0,0,0,0,0,0,0,0,0,0,0,0,0,0,0,0,0,0,0,0]","[0,0,0,0,0,0,0,0,0,0,0,0,0,0,0,0,0,0,0,0,0,0,0]","[0,0,0,0,0,0,0,0,0,0,0,0,0,0,0,0,0,0,0,0,0,0,0]","[0.00029999999701857405,0.016500000000000625,0.032900000005959384,0.04949999999999832,0.06659999999403965,0.08340000000595893,0.09940000000596072,0.11599999999999966,0.13340000000595964,0.15009999999404045,0.16699999999999804,0.17790000000595896,0.1944999999999979,0.21120000000297878,0.2332000000029808,0.24770000000297898,0.2679000000059588,0.28379999999701866,0.2990999999940378,0.31599999999999895,0.3329000000059601,0.3492999999970188,0.36659999999404036]",,7,0,7,0,1,,,,
,,A000000000,2022-11-30_10h59.02.803,GoFitts,2022.2.4,Win32,60.54734803,,,,,,,,,,,,,,,,,,"[-83.14254606237348,-17.67249371950952]","[77.65136389962107,34.57261466144301]",77.8,170,1,"[-48.79998779296875,-48.79998779296875,-48.79998779296875,-48.79998779296875,-48.79998779296875,-51.20001220703125,-56,-58.39996337890625,-59.20001220703125,-59.20001220703125,-59.20001220703125,-60.79998779296875,-60.79998779296875,-60.79998779296875,-60.79998779296875,-60.79998779296875,-57.5999755859375,-49.5999755859375,-30.39996337890625,8,41.60003662109375,68]","[-30.399993896484375,-30.399993896484375,-30.399993896484375,-30.399993896484375,-30.399993896484375,-30.399993896484375,-29.600006103515625,-28,-28,-28,-28,-27.20001220703125,-24.800018310546875,-22.399993896484375,-19.20001220703125,-16.800018310546875,-14.399993896484375,-11.20001220703125,-5.600006103515625,2.399993896484375,12,18.399993896484375]","[0,0,0,0,0,0,0,0,0,0,0,0,0,0,0,0,0,0,0,0,0,0]","[0,0,0,0,0,0,0,0,0,0,0,0,0,0,0,0,0,0,0,0,0,0]","[0,0,0,0,0,0,0,0,0,0,0,0,0,0,0,0,0,0,0,0,0,0]","[0.00029999999701857405,0.015799999997017977,0.032599999994037177,0.04400000000000048,0.0669000000059583,0.08340000000595893,0.10020000000297813,0.11570000000297753,0.13209999999403976,0.14899999999999736,0.1664000000059609,0.1832999999970184,0.19970000000298072,0.21629999999701965,0.23320000000297725,0.24899999999999878,0.26540000000595754,0.2834000000059582,0.2997999999970169,0.31640000000595947,0.3324999999999996,0.34890000000595833]",,8,0,8,0,1,,,,
,,A000000000,2022-11-30_10h59.02.803,GoFitts,2022.2.4,Win32,60.54734803,,,,,,,,,,,,,,,,,,"[77.65136389962107,34.57261466144301]","[-68.76644452187054,-49.96174644486021]",77.8,170,1,"[68,87.20001220703125,89.60003662109375,89.60003662109375,88,87.20001220703125,87.20001220703125,86.4000244140625,85.60003662109375,84.79998779296875,83.20001220703125,81.60003662109375,81.60003662109375,79.20001220703125,71.20001220703125,56.79998779296875,26.4000244140625,-12,-50.39996337890625]","[18.399993896484375,24,24.79998779296875,24.79998779296875,25.600006103515625,25.600006103515625,25.600006103515625,25.600006103515625,25.600006103515625,25.600006103515625,24.79998779296875,24,24,22.399993896484375,17.600006103515625,10.399993896484375,3.199981689453125,-7.20001220703125,-18.399993896484375]","[0,0,0,0,0,0,0,0,0,0,0,0,0,0,0,0,0,0,0]","[0,0,0,0,0,0,0,0,0,0,0,0,0,0,0,0,0,0,0]","[0,0,0,0,0,0,0,0,0,0,0,0,0,0,0,0,0,0,0]","[0.0004999999999988347,0.016700000002977333,0.03339999999105814,0.04989999999105876,0.06639999999105939,0.0837000000029775,0.10009999999403973,0.1170999999940392,0.1339999999999968,0.1504999999999974,0.1672999999970166,0.1839999999999975,0.20049999999999812,0.21139999999105896,0.23420000000297847,0.25049999999999883,0.26659999999403894,0.2832999999970198,0.30049999999999955]",,9,0,9,0,1,,,,
,,A000000000,2022-11-30_10h59.02.803,GoFitts,2022.2.4,Win32,60.54734803,,,,,,,,,,,,,,,,,,"[-68.76644452187054,-49.96174644486021]","[56.87610154050295,63.16731016557851]",77.8,170,1,"[-50.39996337890625,-87.20001220703125,-99.20001220703125,-100,-100,-100,-100,-96,-96,-94.39996337890625,-93.5999755859375,-93.5999755859375,-91.20001220703125,-89.5999755859375,-87.20001220703125,-85.5999755859375,-84,-81.5999755859375,-78.39996337890625,-72.79998779296875,-48.79998779296875,-18.39996337890625,8.79998779296875,31.20001220703125]","[-18.399993896484375,-29.600006103515625,-31.20001220703125,-32,-32,-32,-32,-34.399993896484375,-34.399993896484375,-35.20001220703125,-36,-36,-36.800018310546875,-40,-43.20001220703125,-44,-44.800018310546875,-44.800018310546875,-42.399993896484375,-33.600006103515625,-16.800018310546875,3.199981689453125,22.399993896484375,35.199981689453125]","[0,0,0,0,0,0,0,0,0,0,0,0,0,0,0,0,0,0,0,0,0,0,0,0]","[0,0,0,0,0,0,0,0,0,0,0,0,0,0,0,0,0,0,0,0,0,0,0,0]","[0,0,0,0,0,0,0,0,0,0,0,0,0,0,0,0,0,0,0,0,0,0,0,0]","[0.00030000001192220793,0.01600000000000179,0.03320000000298151,0.04830000001192403,0.06520000000298154,0.0765000000000029,0.09310000000894192,0.1161000000089416,0.13260000000894223,0.14910000000894286,0.16580000001192374,0.18210000000894055,0.19910000000894357,0.2158000000119209,0.23260000000894365,0.24910000000894073,0.2660000000000018,0.2826000000089408,0.29880000001192286,0.31560000000894206,0.33180000001192056,0.3482000000029828,0.365000000000002,0.38240000000596197]",,10,0,10,0,1,,,,
,,A000000000,2022-11-30_10h59.02.803,GoFitts,2022.2.4,Win32,60.54734803,,,,,,,,,,,,,,,,,,"[56.87610154050295,63.16731016557851]","[-42.500000000000036,-73.61215932167727]",77.8,170,1,"[31.20001220703125,44.79998779296875,53.60003662109375,54.4000244140625,54.4000244140625,54.4000244140625,54.4000244140625,54.4000244140625,56,57.60003662109375,58.4000244140625,58.4000244140625,58.4000244140625,58.4000244140625,58.4000244140625,56.79998779296875,48.79998779296875,40,24.79998779296875,10.4000244140625,-3.20001220703125,-15.20001220703125,-22.39996337890625]","[35.199981689453125,40.79998779296875,42.399993896484375,42.399993896484375,42.399993896484375,42.399993896484375,42.399993896484375,42.399993896484375,44,45.600006103515625,46.399993896484375,47.199981689453125,47.199981689453125,47.199981689453125,47.199981689453125,46.399993896484375,33.600006103515625,21.600006103515625,5.600006103515625,-8,-20.800018310546875,-36.800018310546875,-44.800018310546875]","[0,0,0,0,0,0,0,0,0,0,0,0,0,0,0,0,0,0,0,0,0,0,0]","[0,0,0,0,0,0,0,0,0,0,0,0,0,0,0,0,0,0,0,0,0,0,0]","[0,0,0,0,0,0,0,0,0,0,0,0,0,0,0,0,0,0,0,0,0,0,0]","[0.0007000000029826481,0.016400000005962312,0.032299999997022155,0.04920000000297975,0.0661000000089409,0.07700000000000173,0.0940000000000012,0.11620000000297992,0.13329999999702125,0.14949999999999974,0.16540000000596322,0.18299999999999983,0.19979999999702258,0.2102000000029811,0.22729999999702244,0.24390000000596146,0.2667000000029809,0.282799999997021,0.2992999999970216,0.31560000000894206,0.33200000000000074,0.34920000000298046,0.36560000000894277]",,11,0,11,0,1,,,,
,,A000000000,2022-11-30_10h59.02.803,GoFitts,2022.2.4,Win32,60.54734803,,,,,,,,,,,,,,,,,,"[-42.500000000000036,-73.61215932167727]","[26.266444521870532,80.83980388508805]",77.8,170,1,"[-22.39996337890625,-25.5999755859375,-27.20001220703125,-28,-28.79998779296875,-28.79998779296875,-29.5999755859375,-31.20001220703125,-31.20001220703125,-31.20001220703125,-31.20001220703125,-31.20001220703125,-28,-23.20001220703125,-19.20001220703125,-12,-4,4.79998779296875,13.60003662109375,23.20001220703125]","[-44.800018310546875,-50.399993896484375,-53.600006103515625,-54.399993896484375,-54.399993896484375,-55.20001220703125,-56.800018310546875,-58.399993896484375,-58.399993896484375,-58.399993896484375,-58.399993896484375,-55.20001220703125,-48.800018310546875,-40.800018310546875,-28,-15.20001220703125,1.600006103515625,16,29.600006103515625,45.600006103515625]","[0,0,0,0,0,0,0,0,0,0,0,0,0,0,0,0,0,0,0,0]","[0,0,0,0,0,0,0,0,0,0,0,0,0,0,0,0,0,0,0,0]","[0,0,0,0,0,0,0,0,0,0,0,0,0,0,0,0,0,0,0,0]","[0.0004999999999988347,0.017700000002982108,0.03379999999701866,0.04959999999404019,0.06659999999403965,0.08370000000298106,0.10070000000298052,0.11729999999701946,0.13370000000298177,0.14450000000000074,0.16120000000298162,0.18409999999403936,0.20070000000298194,0.21699999999999875,0.23339999999106098,0.25049999999999883,0.26750000000000185,0.2839999999999989,0.3007000000029798,0.3168999999910582]",,12,0,12,0,1,,,,
,,A000000000,2022-11-30_10h59.02.803,GoFitts,2022.2.4,Win32,60.54734803,,,,,,,,,,,,,,,,,,"[26.266444521870532,80.83980388508805]","[-8.88491937775061,-84.53436110630322]",77.8,170,1,"[23.20001220703125,30.4000244140625,33.60003662109375,33.60003662109375,32.79998779296875,32.79998779296875,32.79998779296875,32.79998779296875,32.79998779296875,32.79998779296875,32.79998779296875,32.79998779296875,32.79998779296875,29.60003662109375,27.20001220703125,24.79998779296875,24.79998779296875,26.4000244140625,28,28,28,27.20001220703125,27.20001220703125,27.20001220703125]","[45.600006103515625,57.600006103515625,65.60000610351562,67.19998168945312,71.19998168945312,71.19998168945312,71.19998168945312,71.19998168945312,71.19998168945312,71.19998168945312,71.19998168945312,71.19998168945312,71.19998168945312,65.60000610351562,52.79998779296875,33.600006103515625,4.79998779296875,-16.800018310546875,-35.20001220703125,-46.399993896484375,-55.20001220703125,-62.399993896484375,-67.20001220703125,-70.39999389648438]","[0,0,0,0,0,0,0,0,0,0,0,0,0,0,0,0,0,0,0,0,0,0,0,0]","[0,0,0,0,0,0,0,0,0,0,0,0,0,0,0,0,0,0,0,0,0,0,0,0]","[0,0,0,0,0,0,0,0,0,0,0,0,0,0,0,0,0,0,0,0,0,0,0,0]","[0.0005999999940407008,0.016699999988080805,0.033500000000000085,0.04939999999105993,0.06609999999404081,0.08229999999701931,0.09909999999403851,0.1164999999999985,0.1331999999880793,0.14979999999701832,0.16600000000000037,0.18229999999702073,0.19889999999105967,0.21569999998807887,0.23259999999404002,0.24899999999999878,0.26959999999403905,0.2838999999910605,0.2994999999999983,0.3160999999940408,0.33219999998807737,0.35069999998808044,0.36569999998807745,0.3825999999940386]",,13,0,13,0,1,,,,
,,A000000000,2022-11-30_10h59.02.803,GoFitts,2022.2.4,Win32,60.54734803,,,,,,,,,,,,,,,,,,"[-8.88491937775061,-84.53436110630322]","[-8.884919377750533,84.53436110630324]",77.8,170,1,"[27.20001220703125,27.20001220703125,27.20001220703125,27.20001220703125,25.60003662109375,25.60003662109375,25.60003662109375,25.60003662109375,25.60003662109375,24.79998779296875,22.4000244140625,19.20001220703125,16,13.60003662109375,13.60003662109375,12.79998779296875,11.20001220703125,8,7.20001220703125,4.79998779296875,0,-8,-16.79998779296875,-28.79998779296875,-43.20001220703125,-54.39996337890625,-55.20001220703125,-55.20001220703125,-53.5999755859375,-44,-36.79998779296875,-32]","[-70.39999389648438,-74.39999389648438,-80.79998779296875,-84,-86.4000244140625,-86.4000244140625,-86.4000244140625,-86.4000244140625,-86.4000244140625,-84.79998779296875,-77.60000610351562,-72,-69.60000610351562,-68,-68,-67.20001220703125,-64.80001831054688,-56.800018310546875,-43.20001220703125,-34.399993896484375,-19.20001220703125,-5.600006103515625,4.79998779296875,19.199981689453125,33.600006103515625,42.399993896484375,43.199981689453125,43.199981689453125,46.399993896484375,52,56,59.199981689453125]","[0,0,0,0,0,0,0,0,0,0,0,0,0,0,0,0,0,0,0,0,0,0,0,0,0,0,0,0,0,0,0,0]","[0,0,0,0,0,0,0,0,0,0,0,0,0,0,0,0,0,0,0,0,0,0,0,0,0,0,0,0,0,0,0,0]","[0,0,0,0,0,0,0,0,0,0,0,0,0,0,0,0,0,0,0,0,0,0,0,0,0,0,0,0,0,0,0,0]","[0.0004999999999988347,0.01640000000595876,0.03180000001191985,0.04960000000894027,0.06620000000297921,0.08210000000893913,0.0934999999999988,0.11010000000894138,0.12710000000894084,0.14399999999999835,0.1664999999999992,0.1819000000059603,0.19899999999999807,0.21670000000298018,0.2326000000089401,0.24420000000298003,0.2665000000000006,0.2829000000059594,0.3001000000089391,0.3157000000029804,0.33210000000893913,0.3509000000059608,0.3681000000089405,0.38270000000298054,0.39920000000298117,0.4178000000119191,0.4343000000119197,0.4503000000119215,0.467200000002979,0.4836000000089413,0.49950000000000117,0.5156000000089414]",,14,0,14,0,1,,,,
,,A000000000,2022-11-30_10h59.02.803,GoFitts,2022.2.4,Win32,60.54734803,,,,,,,,,,,,,,,,,,,,,,1,,,,,,,,,,,,,1,0,0,1
,,A000000000,2022-11-30_10h59.02.803,GoFitts,2022.2.4,Win32,60.54734803,,,,,,,,,,,,,,,,return,0.5671,"[13.60003662109375,-40]","[-16.985875280993813,-161.6098079973444]",60.5,325,2,"[13.60003662109375,10.4000244140625,10.4000244140625,8.79998779296875,2.4000244140625,-1.5999755859375,-1.5999755859375,-1.5999755859375,-1.5999755859375,-0.79998779296875,-0.79998779296875,-0.79998779296875,-0.79998779296875,-1.5999755859375,-2.39996337890625,-2.39996337890625,-2.39996337890625,-2.39996337890625,-2.39996337890625,-2.39996337890625,-2.39996337890625,-2.39996337890625,-2.39996337890625,-2.39996337890625,-2.39996337890625,-2.39996337890625,-2.39996337890625,-1.5999755859375,-1.5999755859375,-0.79998779296875,-3.20001220703125,-7.20001220703125,-7.20001220703125,-5.5999755859375,-6.39996337890625,-7.20001220703125,-8.79998779296875,-8.79998779296875,-8.79998779296875,-11.20001220703125,-13.5999755859375,-13.5999755859375,-15.20001220703125,-15.20001220703125,-15.20001220703125,-15.20001220703125,-15.20001220703125,-15.20001220703125,-15.20001220703125,-15.20001220703125]","[-40,-36.800018310546875,-35.20001220703125,-33.600006103515625,-32,-31.20001220703125,-30.399993896484375,-29.600006103515625,-28.800018310546875,-27.20001220703125,-27.20001220703125,-27.20001220703125,-31.20001220703125,-43.20001220703125,-46.399993896484375,-46.399993896484375,-46.399993896484375,-46.399993896484375,-46.399993896484375,-46.399993896484375,-46.399993896484375,-46.399993896484375,-46.399993896484375,-46.399993896484375,-46.399993896484375,-47.20001220703125,-47.20001220703125,-45.600006103515625,-45.600006103515625,-44.800018310546875,-43.20001220703125,-44.800018310546875,-47.20001220703125,-53.600006103515625,-57.600006103515625,-67.20001220703125,-80.79998779296875,-92,-103.20001220703125,-112,-118.4000244140625,-124,-127.20001220703125,-128,-128,-128,-128,-128,-128,-132]","[0,0,0,0,0,0,0,0,0,0,0,0,0,0,0,0,0,0,0,0,0,0,0,0,0,0,0,0,0,0,0,0,0,0,0,0,0,0,0,0,0,0,0,0,0,0,0,0,0,0]","[0,0,0,0,0,0,0,0,0,0,0,0,0,0,0,0,0,0,0,0,0,0,0,0,0,0,0,0,0,0,0,0,0,0,0,0,0,0,0,0,0,0,0,0,0,0,0,0,0,0]","[0,0,0,0,0,0,0,0,0,0,0,0,0,0,0,0,0,0,0,0,0,0,0,0,0,0,0,0,0,0,0,0,0,0,0,0,0,0,0,0,0,0,0,0,0,0,0,0,0,0]","[0.0010999999940395355,0.02170000000297989,0.03740000000596311,0.05420000000298231,0.07240000000596325,0.08820000000298123,0.10350000000000037,0.12199999999999989,0.1385000000000005,0.15420000000298018,0.1707000000029808,0.1817999999970219,0.19920000000298188,0.22170000000298273,0.23770000000298097,0.25340000000596064,0.26500000000000057,0.28170000000298145,0.30400000000000205,0.3202999999970224,0.33440000000596015,0.3515000000000015,0.37029999999701957,0.3815000000000026,0.3982999999970218,0.42109999999404124,0.43759999999404187,0.44879999999702136,0.470299999997021,0.48220000000298313,0.50579999999702,0.5217000000029799,0.5382999999970224,0.5539000000059602,0.5700999999940422,0.5877000000029824,0.605400000005961,0.6212999999970208,0.6382000000029819,0.6550999999940395,0.6715999999940401,0.6882000000029826,0.7050000000000018,0.7207000000029815,0.7370000000000019,0.7535999999940408,0.770500000000002,0.7875000000000014,0.8042999999970206,0.8209000000059632]",,0,0,0,0,1,,,,
,,A000000000,2022-11-30_10h59.02.803,GoFitts,2022.2.4,Win32,60.54734803,,,,,,,,,,,,,,,,,,"[-16.985875280993813,-161.6098079973444]","[-16.985875280993668,161.60980799734443]",60.5,325,2,"[-15.20001220703125,-16.79998779296875,-18.39996337890625,-19.20001220703125,-19.20001220703125,-19.20001220703125,-19.20001220703125,-19.20001220703125,-19.20001220703125,-19.20001220703125,-19.20001220703125,-19.20001220703125,-19.20001220703125,-19.20001220703125,-19.20001220703125,-19.20001220703125,-19.20001220703125,-14.39996337890625,-12,-10.39996337890625,-8.79998779296875,-4,2.4000244140625,3.20001220703125,3.20001220703125,3.20001220703125,0.79998779296875]","[-132,-138.4000244140625,-145.60003662109375,-147.20001220703125,-147.20001220703125,-147.20001220703125,-147.20001220703125,-147.20001220703125,-147.20001220703125,-147.20001220703125,-147.20001220703125,-147.20001220703125,-148,-150.4000244140625,-150.4000244140625,-150.4000244140625,-144,-120,-97.60003662109375,-72.80001831054688,-45.600006103515625,0,40.79998779296875,87.19998168945312,112.79998779296875,131.19998168945312,137.60000610351562]","[0,0,0,0,0,0,0,0,0,0,0,0,0,0,0,0,0,0,0,0,0,0,0,0,0,0,0]","[0,0,0,0,0,0,0,0,0,0,0,0,0,0,0,0,0,0,0,0,0,0,0,0,0,0,0]","[0,0,0,0,0,0,0,0,0,0,0,0,0,0,0,0,0,0,0,0,0,0,0,0,0,0,0]","[0.0004000000059605213,0.016600000008942573,0.03260000000894081,0.04879999999701923,0.0661000000089409,0.0835000000000008,0.09960000000894098,0.11070000000298208,0.12729999999702102,0.14379999999702164,0.16090000000596305,0.17740000000596012,0.19420000000298288,0.21690000000596044,0.23340000000596106,0.2437000000029812,0.26070000000298066,0.28229999999702216,0.29910000000894144,0.3160000000000025,0.332200000002981,0.3489000000059619,0.3657999999970194,0.38329999999702125,0.40110000000894175,0.4162999999970225,0.4329000000059615]",,1,0,1,0,1,,,,
,,A000000000,2022-11-30_10h59.02.803,GoFitts,2022.2.4,Win32,60.54734803,,,,,,,,,,,,,,,,,,"[-16.985875280993668,161.60980799734443]","[50.21526158592892,-154.54668389796245]",60.5,325,2,"[0.79998779296875,0,-2.39996337890625,-3.20001220703125,-4.79998779296875,-8,-10.39996337890625,-14.39996337890625,-18.39996337890625,-25.5999755859375,-32.79998779296875,-35.20001220703125,-35.20001220703125,-35.20001220703125,-35.20001220703125,-35.20001220703125,-35.20001220703125,-35.20001220703125,-33.5999755859375,-16.79998779296875,-3.20001220703125,13.60003662109375,24.79998779296875,32,32.79998779296875,34.4000244140625,36.79998779296875,38.4000244140625,40,41.60003662109375,43.20001220703125,44,44,44,44,44,44]","[137.60000610351562,140.79998779296875,143.19998168945312,145.60000610351562,147.19998168945312,151.19998168945312,153.60000610351562,155.19998168945312,155.19998168945312,155.19998168945312,155.19998168945312,155.19998168945312,155.19998168945312,155.19998168945312,155.19998168945312,155.19998168945312,155.19998168945312,155.19998168945312,148.79998779296875,113.60000610351562,73.60000610351562,16,-27.20001220703125,-61.600006103515625,-80.79998779296875,-91.20001220703125,-99.20001220703125,-104.79998779296875,-109.60003662109375,-115.20001220703125,-121.60003662109375,-122.4000244140625,-122.4000244140625,-122.4000244140625,-122.4000244140625,-123.20001220703125,-136.79998779296875]","[0,0,0,0,0,0,0,0,0,0,0,0,0,0,0,0,0,0,0,0,0,0,0,0,0,0,0,0,0,0,0,0,0,0,0,0,0]","[0,0,0,0,0,0,0,0,0,0,0,0,0,0,0,0,0,0,0,0,0,0,0,0,0,0,0,0,0,0,0,0,0,0,0,0,0]","[0,0,0,0,0,0,0,0,0,0,0,0,0,0,0,0,0,0,0,0,0,0,0,0,0,0,0,0,0,0,0,0,0,0,0,0,0]","[0.0005999999940407008,0.01559999999404127,0.03300000000000125,0.04959999999404019,0.06639999999105939,0.08320000000298222,0.10009999999403973,0.11629999999702179,0.13300000000000267,0.1502999999970207,0.1662999999970225,0.1830999999940417,0.19970000000298072,0.2098999999910589,0.2270000000000003,0.24939999999105922,0.2660000000000018,0.2825000000000024,0.2938999999910621,0.31650000000000134,0.3330999999940403,0.34939999999106064,0.3660999999940415,0.38200000000000145,0.39870000000298234,0.4153999999910596,0.43270000000298126,0.4492000000029819,0.4652000000029801,0.48289999999106215,0.5007000000029826,0.5152999999970227,0.5320999999940419,0.5430999999940411,0.5594999999999999,0.5770000000000017,0.5997000000029828]",,2,0,2,0,1,,,,
,,A000000000,2022-11-30_10h59.02.803,GoFitts,2022.2.4,Win32,60.54734803,,,,,,,,,,,,,,,,,,"[50.21526158592892,-154.54668389796245]","[-81.24999999999996,140.7291281149713]",60.5,325,2,"[44,41.60003662109375,38.4000244140625,38.4000244140625,40.79998779296875,45.60003662109375,53.60003662109375,60.79998779296875,64,64.79998779296875,64.79998779296875,64.79998779296875,62.4000244140625,59.20001220703125,54.4000244140625,47.20001220703125,40,26.4000244140625,5.60003662109375,-17.5999755859375,-37.5999755859375,-46.39996337890625,-55.20001220703125,-57.5999755859375,-58.39996337890625,-59.20001220703125,-60,-61.5999755859375]","[-136.79998779296875,-159.20001220703125,-183.20001220703125,-187.20001220703125,-186.4000244140625,-167.20001220703125,-140.79998779296875,-109.60003662109375,-100.79998779296875,-99.20001220703125,-99.20001220703125,-99.20001220703125,-104.79998779296875,-107.20001220703125,-108.79998779296875,-106.4000244140625,-99.20001220703125,-79.20001220703125,-39.20001220703125,1.600006103515625,44,79.19998168945312,108.79998779296875,113.60000610351562,115.19998168945312,116,116.79998779296875,119.19998168945312]","[0,0,0,0,0,0,0,0,0,0,0,0,0,0,0,0,0,0,0,0,0,0,0,0,0,0,0,0]","[0,0,0,0,0,0,0,0,0,0,0,0,0,0,0,0,0,0,0,0,0,0,0,0,0,0,0,0]","[0,0,0,0,0,0,0,0,0,0,0,0,0,0,0,0,0,0,0,0,0,0,0,0,0,0,0,0]","[0.000900000005959356,0.015200000002977276,0.03320000000297796,0.04890000000595762,0.06499999999999773,0.08149999999999835,0.09820000000297924,0.11540000000595896,0.13210000000893984,0.14810000000893808,0.16430000001192013,0.1758000000119182,0.19849999999999923,0.2153000000119185,0.23220000000297958,0.24930000001192099,0.26470000000297844,0.2817000000029779,0.29920000000297975,0.3142000000029803,0.33149999999999835,0.3481000000089409,0.3651000000089404,0.38140000000596075,0.40190000000595916,0.4158000000119202,0.43120000000297765,0.4481000000089388]",,3,0,3,0,1,,,,
,,A000000000,2022-11-30_10h59.02.803,GoFitts,2022.2.4,Win32,60.54734803,,,,,,,,,,,,,,,,,,"[-81.24999999999996,140.7291281149713]","[108.7337235333145,-120.76103414007653]",60.5,325,2,"[-61.5999755859375,-63.20001220703125,-66.39996337890625,-70.39996337890625,-74.39996337890625,-79.20001220703125,-83.20001220703125,-83.20001220703125,-83.20001220703125,-83.20001220703125,-83.20001220703125,-83.20001220703125,-83.20001220703125,-83.20001220703125,-83.20001220703125,-80.79998779296875,-68,-41.5999755859375,-13.5999755859375,19.20001220703125,41.60003662109375,62.4000244140625,81.60003662109375,95.20001220703125]","[119.19998168945312,120.79998779296875,125.60000610351562,131.19998168945312,135.19998168945312,139.19998168945312,140.79998779296875,140.79998779296875,140.79998779296875,140.79998779296875,140.79998779296875,140.79998779296875,140.79998779296875,140.79998779296875,139.19998168945312,128.79998779296875,107.19998168945312,69.60000610351562,32,-13.600006103515625,-45.600006103515625,-74.39999389648438,-98.4000244140625,-116]","[0,0,0,0,0,0,0,0,0,0,0,0,0,0,0,0,0,0,0,0,0,0,0,0]","[0,0,0,0,0,0,0,0,0,0,0,0,0,0,0,0,0,0,0,0,0,0,0,0]","[0,0,0,0,0,0,0,0,0,0,0,0,0,0,0,0,0,0,0,0,0,0,0,0]","[0.0004000000059605213,0.01620000000298205,0.03279999999702099,0.049500000000001876,0.06590000000596064,0.08420000000298344,0.10009999999403973,0.11579999999702295,0.12750000000000128,0.14440000000596243,0.16670000000298302,0.18340000000596035,0.19420000000297932,0.21070000000297995,0.23150000000000404,0.2510000000000048,0.26759999999404016,0.2842999999970246,0.30100000000000193,0.31679999999702346,0.3337000000029846,0.3490999999940385,0.3657000000029811,0.38300000000000267]",,4,0,4,0,1,,,,
,,A000000000,2022-11-30_10h59.02.803,GoFitts,2022.2.4,Win32,60.54734803,,,,,,,,,,,,,,,,,,"[108.7337235333145,-120.76103414007653]","[-131.46526158592894,95.51510349752691]",60.5,325,2,"[95.20001220703125,107.20001220703125,110.4000244140625,112,114.4000244140625,114.4000244140625,114.4000244140625,114.4000244140625,114.4000244140625,115.20001220703125,115.20001220703125,115.20001220703125,116,116,116,116,111.20001220703125,93.60003662109375,71.20001220703125,38.4000244140625,-7.20001220703125,-56,-83.20001220703125,-103.20001220703125,-112,-115.20001220703125,-120,-120,-120]","[-116,-132.79998779296875,-136.79998779296875,-138.4000244140625,-141.60003662109375,-142.4000244140625,-143.20001220703125,-143.20001220703125,-143.20001220703125,-143.20001220703125,-141.60003662109375,-140,-140,-140,-140,-137.60003662109375,-128.79998779296875,-100,-69.60000610351562,-32.800018310546875,3.199981689453125,31.199981689453125,41.600006103515625,49.600006103515625,56,59.199981689453125,62.399993896484375,64.79998779296875,69.60000610351562]","[0,0,0,0,0,0,0,0,0,0,0,0,0,0,0,0,0,0,0,0,0,0,0,0,0,0,0,0,0]","[0,0,0,0,0,0,0,0,0,0,0,0,0,0,0,0,0,0,0,0,0,0,0,0,0,0,0,0,0]","[0,0,0,0,0,0,0,0,0,0,0,0,0,0,0,0,0,0,0,0,0,0,0,0,0,0,0,0,0]","[0.00039999999106044015,0.018499999999995964,0.032299999997022155,0.04939999999105993,0.06619999998807913,0.08359999999403556,0.10019999998807805,0.11659999999403681,0.13309999999403743,0.14969999998807992,0.16609999999403868,0.1823999999910555,0.19979999999701903,0.21659999999403823,0.232999999999997,0.2441999999880764,0.26689999999106107,0.2833999999910617,0.2996999999880785,0.315599999994042,0.3322999999970193,0.3488999999910618,0.3666999999880787,0.38279999999701886,0.39939999999106135,0.4160999999940387,0.4326999999880812,0.44909999999403993,0.46649999999999636]",,5,0,5,0,1,,,,
,,A000000000,2022-11-30_10h59.02.803,GoFitts,2022.2.4,Win32,60.54734803,,,,,,,,,,,,,,,,,,"[-131.46526158592894,95.51510349752691]","[148.45113686692267,-66.09470449981752]",60.5,325,2,"[-120,-119.20001220703125,-119.20001220703125,-120.79998779296875,-124,-125.5999755859375,-127.20001220703125,-127.20001220703125,-127.20001220703125,-127.20001220703125,-127.20001220703125,-128,-128,-128,-127.20001220703125,-119.20001220703125,68,104,143.20001220703125]","[69.60000610351562,78.39999389648438,90.39999389648438,97.60000610351562,102.39999389648438,104.79998779296875,105.60000610351562,105.60000610351562,105.60000610351562,105.60000610351562,106.39999389648438,107.19998168945312,107.19998168945312,107.19998168945312,104,92.79998779296875,-50.399993896484375,-61.600006103515625,-68.80001831054688]","[0,0,0,0,0,0,0,0,0,0,0,0,0,0,0,0,0,0,0]","[0,0,0,0,0,0,0,0,0,0,0,0,0,0,0,0,0,0,0]","[0,0,0,0,0,0,0,0,0,0,0,0,0,0,0,0,0,0,0]","[0.0005000000000023874,0.015900000005963477,0.03179999999701977,0.04829999999702039,0.06610000000894445,0.08250000000000313,0.09860000000894331,0.11479999999701818,0.13160000000894456,0.1434000000059612,0.1602000000029804,0.1821000000089441,0.1989000000059633,0.21579999999702437,0.234600000008939,0.2502999999970186,0.35370000000298063,0.36770000000298353,0.3944000000059589]",,6,0,6,0,1,,,,
,,A000000000,2022-11-30_10h59.02.803,GoFitts,2022.2.4,Win32,60.54734803,,,,,,,,,,,,,,,,,,"[148.45113686692267,-66.09470449981752]","[-158.94898511924342,33.78564975788589]",60.5,325,2,"[143.20001220703125,148.79998779296875,152,152,152,152,152,152,152,152,150.4000244140625,150.4000244140625,150.4000244140625,150.4000244140625,147.20001220703125,141.60003662109375,119.20001220703125,80.79998779296875,17.60003662109375,-48,-100,-128,-140]","[-68.80001831054688,-70.39999389648438,-70.39999389648438,-70.39999389648438,-70.39999389648438,-70.39999389648438,-70.39999389648438,-70.39999389648438,-70.39999389648438,-68.80001831054688,-67.20001220703125,-67.20001220703125,-67.20001220703125,-67.20001220703125,-66.39999389648438,-66.39999389648438,-66.39999389648438,-61.600006103515625,-44.800018310546875,-24,-9.600006103515625,4.79998779296875,19.199981689453125]","[0,0,0,0,0,0,0,0,0,0,0,0,0,0,0,0,0,0,0,0,0,0,0]","[0,0,0,0,0,0,0,0,0,0,0,0,0,0,0,0,0,0,0,0,0,0,0]","[0,0,0,0,0,0,0,0,0,0,0,0,0,0,0,0,0,0,0,0,0,0,0]","[0.0010000000000047748,0.007700000002984098,0.020000000000003126,0.03620000000298518,0.047700000002983245,0.06450000000000244,0.08140000000596359,0.09790000000596422,0.1144999999999996,0.13140000000596075,0.15350000000000108,0.17020000000298552,0.18149999999999977,0.19809999999404226,0.22159999999404079,0.2380999999940414,0.254700000002984,0.2712000000029846,0.2882000000029805,0.30450000000000443,0.31959999999403976,0.33620000000298234,0.3535999999940387]",,7,0,7,0,1,,,,
,,A000000000,2022-11-30_10h59.02.803,GoFitts,2022.2.4,Win32,60.54734803,,,,,,,,,,,,,,,,,,"[-158.94898511924342,33.78564975788589]","[162.5,0]",60.5,325,2,"[-140,-142.39996337890625,-142.39996337890625,-142.39996337890625,-145.5999755859375,-147.20001220703125,-152.79998779296875,-158.39996337890625,-162.39996337890625,-168,-169.5999755859375,-169.5999755859375,-169.5999755859375,-169.5999755859375,-166.39996337890625,-156.79998779296875,-149.5999755859375,-131.20001220703125,-111.20001220703125,-72,-24,36,76.79998779296875,110.4000244140625,129.60003662109375,140.79998779296875]","[19.199981689453125,35.199981689453125,44,46.399993896484375,49.600006103515625,49.600006103515625,52,54.399993896484375,54.399993896484375,56,56.79998779296875,56.79998779296875,56.79998779296875,56.79998779296875,57.600006103515625,59.199981689453125,59.199981689453125,55.199981689453125,48.79998779296875,38.399993896484375,27.199981689453125,23.199981689453125,23.199981689453125,23.199981689453125,23.199981689453125,20]","[0,0,0,0,0,0,0,0,0,0,0,0,0,0,0,0,0,0,0,0,0,0,0,0,0,0]","[0,0,0,0,0,0,0,0,0,0,0,0,0,0,0,0,0,0,0,0,0,0,0,0,0,0]","[0,0,0,0,0,0,0,0,0,0,0,0,0,0,0,0,0,0,0,0,0,0,0,0,0,0]","[0.0004000000059605213,0.017900000005958816,0.032900000005959384,0.049700000002978584,0.06590000000596064,0.08329999999701698,0.10020000000297813,0.11650000000000205,0.13349999999999795,0.15010000000894053,0.16679999999701778,0.18320000000297654,0.19979999999701903,0.21090000000595666,0.2276000000089411,0.2502000000029767,0.2672999999970216,0.28690000000595717,0.3004000000059577,0.31590000000596064,0.33260000000893797,0.34920000000298046,0.36549999999999727,0.3829000000059608,0.39940000000596143,0.41590000000596206]",,8,0,8,0,1,,,,
,,A000000000,2022-11-30_10h59.02.803,GoFitts,2022.2.4,Win32,60.54734803,,,,,,,,,,,,,,,,,,"[162.5,0]","[-158.94898511924342,-33.78564975788585]",60.5,325,2,"[140.79998779296875,144,144,144,144,144,144,146.4000244140625,147.20001220703125,147.20001220703125,147.20001220703125,147.20001220703125,148,136.79998779296875,121.60003662109375,96,50.4000244140625,3.20001220703125,-50.39996337890625,-92.79998779296875,-128.79998779296875,-140.79998779296875,-146.39996337890625,-148.79998779296875,-149.5999755859375]","[20,19.199981689453125,19.199981689453125,19.199981689453125,19.199981689453125,19.199981689453125,19.199981689453125,19.199981689453125,19.199981689453125,19.199981689453125,19.199981689453125,19.199981689453125,17.600006103515625,12,8,5.600006103515625,5.600006103515625,5.600006103515625,5.600006103515625,6.399993896484375,6.399993896484375,6.399993896484375,5.600006103515625,0.79998779296875,-8]","[0,0,0,0,0,0,0,0,0,0,0,0,0,0,0,0,0,0,0,0,0,0,0,0,0]","[0,0,0,0,0,0,0,0,0,0,0,0,0,0,0,0,0,0,0,0,0,0,0,0,0]","[0,0,0,0,0,0,0,0,0,0,0,0,0,0,0,0,0,0,0,0,0,0,0,0,0]","[0.00029999999701857405,0.01640000000595876,0.03279999999701744,0.049599999994036637,0.06109999999404181,0.07759999999403533,0.09440000000596172,0.11129999999701568,0.13470000000297944,0.1504000000059591,0.16129999999701994,0.17759999999403675,0.19459999999403976,0.2175999999940359,0.2334000000059575,0.25059999999403715,0.2674999999999983,0.2842000000029721,0.29990000000595884,0.3170999999940314,0.3340999999940344,0.35029999999701644,0.3664000000059566,0.3839999999999968,0.4005999999940322]",,9,0,9,0,1,,,,
,,A000000000,2022-11-30_10h59.02.803,GoFitts,2022.2.4,Win32,60.54734803,,,,,,,,,,,,,,,,,,"[-158.94898511924342,-33.78564975788585]","[148.45113686692264,66.09470449981752]",60.5,325,2,"[-149.5999755859375,-152.79998779296875,-155.20001220703125,-159.20001220703125,-160.79998779296875,-162.39996337890625,-162.39996337890625,-164,-167.20001220703125,-169.5999755859375,-171.20001220703125,-172,-172,-172,-168.79998779296875,-162.39996337890625,-152.79998779296875,-136.79998779296875,-105.5999755859375,-68,-12.79998779296875,30.4000244140625,66.4000244140625,89.60003662109375,100.79998779296875,109.60003662109375,113.60003662109375,121.60003662109375]","[-8,-18.399993896484375,-27.20001220703125,-32,-34.399993896484375,-35.20001220703125,-36,-37.600006103515625,-40.800018310546875,-45.600006103515625,-48.800018310546875,-49.600006103515625,-49.600006103515625,-49.600006103515625,-46.399993896484375,-41.600006103515625,-36,-26.399993896484375,-5.600006103515625,13.600006103515625,32,44,53.600006103515625,59.199981689453125,60.79998779296875,60.79998779296875,60.79998779296875,60.79998779296875]","[0,0,0,0,0,0,0,0,0,0,0,0,0,0,0,0,0,0,0,0,0,0,0,0,0,0,0,0]","[0,0,0,0,0,0,0,0,0,0,0,0,0,0,0,0,0,0,0,0,0,0,0,0,0,0,0,0]","[0,0,0,0,0,0,0,0,0,0,0,0,0,0,0,0,0,0,0,0,0,0,0,0,0,0,0,0]","[0.0005000000000023874,0.016000000000005343,0.031900000005961715,0.04820000000298563,0.0652999999970234,0.0820999999940426,0.09949999999999903,0.1159000000059649,0.13279999999701886,0.14909999999404278,0.1630000000000038,0.18209999999404403,0.19790000000596564,0.20959999999404033,0.2262000000029829,0.24840000000596518,0.2652000000029844,0.28140000000596643,0.29820000000298563,0.314799999997021,0.33179999999702403,0.3480000000000061,0.3647999999970253,0.3822999999970236,0.39940000000596143,0.41590000000596206,0.4314999999999998,0.44809999999404226]",,10,0,10,0,1,,,,
,,A000000000,2022-11-30_10h59.02.803,GoFitts,2022.2.4,Win32,60.54734803,,,,,,,,,,,,,,,,,,"[148.45113686692264,66.09470449981752]","[-131.46526158592897,-95.51510349752687]",60.5,325,2,"[121.60003662109375,131.20001220703125,146.4000244140625,156.79998779296875,163.20001220703125,163.20001220703125,163.20001220703125,163.20001220703125,163.20001220703125,164,162.4000244140625,156,142.4000244140625,115.20001220703125,83.20001220703125,48.79998779296875,15.20001220703125,-13.5999755859375,-34.39996337890625,-44.79998779296875,-57.5999755859375,-69.5999755859375,-84,-101.5999755859375,-112.79998779296875]","[60.79998779296875,61.600006103515625,63.199981689453125,66.39999389648438,68.79998779296875,68.79998779296875,68.79998779296875,68.79998779296875,68.79998779296875,68.79998779296875,68,63.199981689453125,55.199981689453125,36,15.199981689453125,-8.800018310546875,-30.399993896484375,-48.800018310546875,-65.60000610351562,-75.20001220703125,-84,-92,-100.79998779296875,-106.4000244140625,-108.79998779296875]","[0,0,0,0,0,0,0,0,0,0,0,0,0,0,0,0,0,0,0,0,0,0,0,0,0]","[0,0,0,0,0,0,0,0,0,0,0,0,0,0,0,0,0,0,0,0,0,0,0,0,0]","[0,0,0,0,0,0,0,0,0,0,0,0,0,0,0,0,0,0,0,0,0,0,0,0,0]","[0.0004000000059605213,0.01740000000595643,0.03349999999999653,0.05070000000297625,0.06649999999999778,0.08270000000297983,0.0942000000029779,0.11690000000595546,0.1336000000089399,0.15080000001191962,0.1669999999999945,0.18370000000297892,0.2003000000119215,0.21740000000595927,0.2339000000059599,0.25099999999999767,0.2661000000089402,0.28299999999999415,0.2999000000059553,0.3164999999999978,0.33310000000894036,0.35060000000893865,0.3663000000119183,0.3826000000089351,0.39960000000893814]",,11,0,11,0,1,,,,
,,A000000000,2022-11-30_10h59.02.803,GoFitts,2022.2.4,Win32,60.54734803,,,,,,,,,,,,,,,,,,"[-131.46526158592897,-95.51510349752687]","[108.73372353331446,120.76103414007656]",60.5,325,2,"[-112.79998779296875,-122.39996337890625,-130.39996337890625,-137.5999755859375,-144,-156,-171.20001220703125,-178.39996337890625,-179.20001220703125,-179.20001220703125,-179.20001220703125,-179.20001220703125,-174.39996337890625,-172,-168,-160.79998779296875,-154.39996337890625,-141.5999755859375,-110.39996337890625,-77.5999755859375,-39.20001220703125,0.79998779296875,33.60003662109375,68,88,101.60003662109375,107.20001220703125,114.4000244140625]","[-108.79998779296875,-110.4000244140625,-110.4000244140625,-110.4000244140625,-110.4000244140625,-110.4000244140625,-111.20001220703125,-112,-112,-112,-112,-109.60003662109375,-101.60003662109375,-99.20001220703125,-97.60003662109375,-95.20001220703125,-93.60003662109375,-85.60003662109375,-66.39999389648438,-44,-17.600006103515625,7.199981689453125,28.79998779296875,50.399993896484375,64,74.39999389648438,82.39999389648438,93.60000610351562]","[0,0,0,0,0,0,0,0,0,0,0,0,0,0,0,0,0,0,0,0,0,0,0,0,0,0,0,0]","[0,0,0,0,0,0,0,0,0,0,0,0,0,0,0,0,0,0,0,0,0,0,0,0,0,0,0,0]","[0,0,0,0,0,0,0,0,0,0,0,0,0,0,0,0,0,0,0,0,0,0,0,0,0,0,0,0]","[0.0004000000059605213,0.01680000001191928,0.03349999999999653,0.049700000002978584,0.06580000001191877,0.08290000000595654,0.09960000000894098,0.11580000001192303,0.1329000000059608,0.1494999999999962,0.1664999999999992,0.177500000000002,0.19990000000596098,0.21680000001192212,0.23330000001192275,0.24990000000595813,0.26640000000595876,0.2833000000119199,0.2999000000059624,0.3164999999999978,0.33310000000894036,0.34970000000297574,0.36670000000297875,0.3822000000029817,0.39960000000893814,0.41730000001192025,0.43320000000297654,0.45040000000595626]",,12,0,12,0,1,,,,
,,A000000000,2022-11-30_10h59.02.803,GoFitts,2022.2.4,Win32,60.54734803,,,,,,,,,,,,,,,,,,"[108.73372353331446,120.76103414007656]","[-81.25000000000007,-140.72912811497125]",60.5,325,2,"[114.4000244140625,119.20001220703125,124,128.79998779296875,132.79998779296875,133.60003662109375,133.60003662109375,133.60003662109375,133.60003662109375,133.60003662109375,131.20001220703125,124,116.79998779296875,105.60003662109375,96.79998779296875,88,74.4000244140625,55.20001220703125,32,6.4000244140625,-21.5999755859375,-44,-59.20001220703125]","[93.60000610351562,103.19998168945312,112,120.79998779296875,127.19998168945312,128.79998779296875,128.79998779296875,128.79998779296875,128.79998779296875,128.79998779296875,128.79998779296875,124,120,116.79998779296875,112.79998779296875,106.39999389648438,88.79998779296875,58.399993896484375,18.399993896484375,-27.20001220703125,-75.20001220703125,-106.4000244140625,-128.79998779296875]","[0,0,0,0,0,0,0,0,0,0,0,0,0,0,0,0,0,0,0,0,0,0,0]","[0,0,0,0,0,0,0,0,0,0,0,0,0,0,0,0,0,0,0,0,0,0,0]","[0,0,0,0,0,0,0,0,0,0,0,0,0,0,0,0,0,0,0,0,0,0,0]","[0.0001999999880837322,0.015299999997026248,0.03219999998808021,0.04869999998808083,0.06519999998808146,0.0820999999940426,0.09850000000000136,0.10969999998808078,0.12650000000000006,0.14309999999404255,0.1600000000000037,0.1830999999940417,0.1991999999880818,0.2161999999880848,0.23269999998808544,0.2490999999940442,0.26619999998808197,0.282399999991064,0.2989999999999995,0.3152999999970234,0.3318999999910588,0.3488999999910618,0.36489999999106004]",,13,0,13,0,1,,,,
,,A000000000,2022-11-30_10h59.02.803,GoFitts,2022.2.4,Win32,60.54734803,,,,,,,,,,,,,,,,,,"[-81.25000000000007,-140.72912811497125]","[50.215261585928964,154.54668389796245]",60.5,325,2,"[-59.20001220703125,-72.79998779296875,-77.5999755859375,-80,-80.79998779296875,-80.79998779296875,-80.79998779296875,-80.79998779296875,-82.39996337890625,-83.20001220703125,-83.20001220703125,-83.20001220703125,-83.20001220703125,-84,-84,-83.20001220703125,-71.20001220703125,-45.5999755859375,-26.39996337890625,-9.5999755859375,6.4000244140625,20,29.60003662109375,36.79998779296875,40.79998779296875,44.79998779296875]","[-128.79998779296875,-151.20001220703125,-164.79998779296875,-171.20001220703125,-173.60003662109375,-173.60003662109375,-173.60003662109375,-173.60003662109375,-173.60003662109375,-173.60003662109375,-173.60003662109375,-173.60003662109375,-173.60003662109375,-172.79998779296875,-168.79998779296875,-153.60003662109375,-127.20001220703125,-76.80001831054688,-35.20001220703125,4,31.199981689453125,57.600006103515625,80.79998779296875,104.79998779296875,118.39999389648438,128.79998779296875]","[0,0,0,0,0,0,0,0,0,0,0,0,0,0,0,0,0,0,0,0,0,0,0,0,0,0]","[0,0,0,0,0,0,0,0,0,0,0,0,0,0,0,0,0,0,0,0,0,0,0,0,0,0]","[0,0,0,0,0,0,0,0,0,0,0,0,0,0,0,0,0,0,0,0,0,0,0,0,0,0]","[0.0006000000089372293,0.017600000008940242,0.03379999999702221,0.04960000000894382,0.06590000000596064,0.08260000000893797,0.09970000000298285,0.116600000008944,0.12820000000297682,0.15079999999701954,0.1664999999999992,0.1837999999970208,0.20010000000893768,0.21699999999999875,0.2341000000089437,0.2505000000000024,0.2672000000029797,0.28349999999999653,0.30070000000298336,0.3164999999999978,0.3335000000000008,0.35029999999702,0.36650000000000205,0.3831000000089375,0.4007000000029777,0.4174999999999969]",,14,0,14,0,1,,,,
,,A000000000,2022-11-30_10h59.02.803,GoFitts,2022.2.4,Win32,60.54734803,,,,,,,,,,,,,,,,,,,,,,2,,,,,,,,,,,,,2,0,0,1
,,A000000000,2022-11-30_10h59.02.803,GoFitts,2022.2.4,Win32,60.54734803,,,,,,,,,,,,,,,,return,0.6116,"[-20.79998779296875,-80]","[-24.82551002606788,-236.1989501499649]",40.5,475,3,"[-20.79998779296875,-18.39996337890625,-8.79998779296875,-4,2.4000244140625,8.79998779296875,15.20001220703125,19.20001220703125,24,27.20001220703125,28.79998779296875,28.79998779296875,28.79998779296875,28.79998779296875,28.79998779296875,28.79998779296875,28.79998779296875,28.79998779296875,28.79998779296875,28.79998779296875,28.79998779296875,28.79998779296875,28.79998779296875,30.4000244140625,30.4000244140625,30.4000244140625,31.20001220703125,28.79998779296875,16.79998779296875,11.20001220703125,6.4000244140625,6.4000244140625,6.4000244140625,6.4000244140625,4,-1.5999755859375,-7.20001220703125,-12.79998779296875,-16,-17.5999755859375]","[-80,-71.20001220703125,-59.20001220703125,-49.600006103515625,-40,-32,-28,-25.600006103515625,-25.600006103515625,-25.600006103515625,-27.20001220703125,-27.20001220703125,-27.20001220703125,-27.20001220703125,-27.20001220703125,-27.20001220703125,-27.20001220703125,-27.20001220703125,-27.20001220703125,-27.20001220703125,-27.20001220703125,-27.20001220703125,-27.20001220703125,-30.399993896484375,-30.399993896484375,-30.399993896484375,-30.399993896484375,-30.399993896484375,-32,-36.800018310546875,-45.600006103515625,-56.800018310546875,-78.39999389648438,-105.60003662109375,-128,-150.4000244140625,-171.20001220703125,-193.60003662109375,-206.4000244140625,-217.60003662109375]","[0,0,0,0,0,0,0,0,0,0,0,0,0,0,0,0,0,0,0,0,0,0,0,0,0,0,0,0,0,0,0,0,0,0,0,0,0,0,0,0]","[0,0,0,0,0,0,0,0,0,0,0,0,0,0,0,0,0,0,0,0,0,0,0,0,0,0,0,0,0,0,0,0,0,0,0,0,0,0,0,0]","[0,0,0,0,0,0,0,0,0,0,0,0,0,0,0,0,0,0,0,0,0,0,0,0,0,0,0,0,0,0,0,0,0,0,0,0,0,0,0,0]","[0.0022999999970210183,0.015399999991061009,0.031199999988075433,0.0468999999910551,0.06339999999105572,0.08079999999701926,0.09729999999701988,0.11329999999701812,0.13019999998807918,0.1466999999880798,0.1634999999999991,0.18019999998807634,0.19179999999701636,0.2140999999940405,0.2308999999910597,0.24750000000000227,0.25809999999403743,0.27489999999105663,0.29169999998807583,0.31400000000000006,0.32499999999999574,0.3476999999880803,0.357999999999997,0.375,0.39709999999404033,0.40800000000000125,0.4309999999999974,0.447499999999998,0.4643999999910591,0.4810999999940364,0.4975000000000023,0.5140999999940377,0.5309999999999988,0.5473999999910575,0.5641999999880767,0.580999999999996,0.5974999999999966,0.6135000000000019,0.6297999999970187,0.6469999999999985]",,0,0,0,0,1,,,,
,,A000000000,2022-11-30_10h59.02.803,GoFitts,2022.2.4,Win32,60.54734803,,,,,,,,,,,,,,,,,,"[-24.82551002606788,-236.1989501499649]","[-24.825510026067665,236.19895014996493]",40.5,475,3,"[-17.5999755859375,-16,-12.79998779296875,-10.39996337890625,-10.39996337890625,-9.5999755859375,-9.5999755859375,-9.5999755859375,-12.79998779296875,-13.5999755859375,-15.20001220703125,-15.20001220703125,-15.20001220703125,-14.39996337890625,-9.5999755859375,-6.39996337890625,-4,-1.5999755859375,-1.5999755859375,-4,-8.79998779296875,-12.79998779296875,-12.79998779296875,-12.79998779296875,-12,-10.39996337890625,-8,-8,-8,-7.20001220703125,-7.20001220703125,-5.5999755859375,-5.5999755859375,-7.20001220703125,-8.79998779296875,-11.20001220703125,-13.5999755859375,-13.5999755859375,-15.20001220703125,-16.79998779296875,-16.79998779296875,-16.79998779296875,-17.5999755859375,-20]","[-217.60003662109375,-224,-229.60003662109375,-232,-233.60003662109375,-234.4000244140625,-235.20001220703125,-239.20001220703125,-243.20001220703125,-252,-256,-256,-256,-253.60003662109375,-248,-240,-231.20001220703125,-221.60003662109375,-205.60003662109375,-183.20001220703125,-154.4000244140625,-116.79998779296875,-60.800018310546875,-12.800018310546875,40,75.19998168945312,107.19998168945312,132,144.79998779296875,152.79998779296875,160.79998779296875,168,177.59999084472656,183.1999969482422,192,196,197.59999084472656,199.1999969482422,202.39999389648438,204.8000030517578,206.39999389648438,208.8000030517578,211.1999969482422,216.8000030517578]","[0,0,0,0,0,0,0,0,0,0,0,0,0,0,0,0,0,0,0,0,0,0,0,0,0,0,0,0,0,0,0,0,0,0,0,0,0,0,0,0,0,0,0,0]","[0,0,0,0,0,0,0,0,0,0,0,0,0,0,0,0,0,0,0,0,0,0,0,0,0,0,0,0,0,0,0,0,0,0,0,0,0,0,0,0,0,0,0,0]","[0,0,0,0,0,0,0,0,0,0,0,0,0,0,0,0,0,0,0,0,0,0,0,0,0,0,0,0,0,0,0,0,0,0,0,0,0,0,0,0,0,0,0,0]","[0.00029999999701857405,0.01579999999702153,0.03220000000298029,0.048799999997015675,0.06590000000596064,0.08590000000595666,0.10040000000596194,0.11650000000000205,0.132700000002977,0.14910000000894286,0.16540000000595967,0.18229999999702073,0.19370000000297694,0.21560000000894064,0.23220000000298313,0.24900000000000233,0.2656000000089378,0.2822000000029803,0.29910000000894144,0.3167000000029816,0.33340000000595893,0.34990000000595955,0.36650000000000205,0.38329999999702125,0.4001000000089405,0.41590000000596206,0.4324000000059627,0.4486000000089376,0.465299999997022,0.48210000000894127,0.49870000000297665,0.5152999999970191,0.5322000000029803,0.5487999999970157,0.5659000000059606,0.5832000000029822,0.5989999999999966,0.6157999999970158,0.6324000000059584,0.6486000000089405,0.6654000000059597,0.682100000008937,0.6989000000059633,0.7154999999999987]",,1,0,1,0,1,,,,
,,A000000000,2022-11-30_10h59.02.803,GoFitts,2022.2.4,Win32,60.54734803,,,,,,,,,,,,,,,,,,"[-24.825510026067665,236.19895014996493]","[73.39153616404997,-225.875922620099]",40.5,475,3,"[-20,-20.79998779296875,-23.20001220703125,-23.20001220703125,-24,-25.5999755859375,-26.39996337890625,-28,-28.79998779296875,-28.79998779296875,-28.79998779296875,-28.79998779296875,-28.79998779296875,-28.79998779296875,-23.20001220703125,-16.79998779296875,-5.5999755859375,6.4000244140625,25.60003662109375,37.60003662109375,41.60003662109375,44.79998779296875,46.4000244140625,53.60003662109375,55.20001220703125,60,62.4000244140625,64,64.79998779296875,64.79998779296875,65.60003662109375,66.4000244140625,66.4000244140625,66.4000244140625]","[216.8000030517578,220,222.39999389648438,223.1999969482422,225.59999084472656,227.1999969482422,228.8000030517578,232.8000030517578,234.39999389648438,235.1999969482422,235.1999969482422,235.1999969482422,235.1999969482422,228.8000030517578,204.8000030517578,180.8000030517578,145.60000610351562,103.19998168945312,38.399993896484375,-8.800018310546875,-39.20001220703125,-60,-80.79998779296875,-108.79998779296875,-132.79998779296875,-155.20001220703125,-172,-180,-184,-185.60003662109375,-188.79998779296875,-194.4000244140625,-200.79998779296875,-209.60003662109375]","[0,0,0,0,0,0,0,0,0,0,0,0,0,0,0,0,0,0,0,0,0,0,0,0,0,0,0,0,0,0,0,0,0,0]","[0,0,0,0,0,0,0,0,0,0,0,0,0,0,0,0,0,0,0,0,0,0,0,0,0,0,0,0,0,0,0,0,0,0]","[0,0,0,0,0,0,0,0,0,0,0,0,0,0,0,0,0,0,0,0,0,0,0,0,0,0,0,0,0,0,0,0,0,0]","[0.0005000000000023874,0.01659999999404249,0.03379999999702221,0.0492000000029833,0.06639999999106294,0.08299999999999841,0.09970000000298285,0.11650000000000205,0.13349999999999795,0.15029999999701715,0.1670000000000016,0.18370000000297892,0.19409999999403738,0.21099999999999852,0.23409999999404363,0.25039999999106044,0.2670999999940378,0.28320000000297796,0.300099999994039,0.31700000000000017,0.33359999999404266,0.3490999999940385,0.36670000000297875,0.38259999999404215,0.3992999999970195,0.41729999999702017,0.4325999999940393,0.44899999999999807,0.46589999999105913,0.4827000000029784,0.4992999999970209,0.5165000000000006,0.5339999999999989,0.5495000000000019]",,2,0,2,0,1,,,,
,,A000000000,2022-11-30_10h59.02.803,GoFitts,2022.2.4,Win32,60.54734803,,,,,,,,,,,,,,,,,,"[73.39153616404997,-225.875922620099]","[-118.74999999999994,205.6810333988042]",40.5,475,3,"[66.4000244140625,66.4000244140625,66.4000244140625,67.20001220703125,67.20001220703125,67.20001220703125,67.20001220703125,67.20001220703125,67.20001220703125,68.79998779296875,68.79998779296875,68.79998779296875,68.79998779296875,68.79998779296875,65.60003662109375,60,48,27.20001220703125,-3.20001220703125,-44.79998779296875,-66.39996337890625,-82.39996337890625,-94.39996337890625,-100,-103.20001220703125,-104.79998779296875,-104.79998779296875,-105.5999755859375,-105.5999755859375,-107.20001220703125,-108.79998779296875,-111.20001220703125,-112.79998779296875]","[-209.60003662109375,-215.20001220703125,-216,-218.4000244140625,-218.4000244140625,-218.4000244140625,-218.4000244140625,-218.4000244140625,-218.4000244140625,-220,-220,-220,-220,-218.4000244140625,-206.4000244140625,-184.79998779296875,-158.4000244140625,-114.4000244140625,-60,2.399993896484375,39.199981689453125,72,102.39999389648438,124,140,152.79998779296875,160,166.39999389648438,168.79998779296875,171.19998168945312,176.8000030517578,180.8000030517578,186.39999389648438]","[0,0,0,0,0,0,0,0,0,0,0,0,0,0,0,0,0,0,0,0,0,0,0,0,0,0,0,0,0,0,0,0,0]","[0,0,0,0,0,0,0,0,0,0,0,0,0,0,0,0,0,0,0,0,0,0,0,0,0,0,0,0,0,0,0,0,0]","[0,0,0,0,0,0,0,0,0,0,0,0,0,0,0,0,0,0,0,0,0,0,0,0,0,0,0,0,0,0,0,0,0]","[0.0005999999940442535,0.016000000000005343,0.03259999999404073,0.049099999994041355,0.06609999999404437,0.07739999999106573,0.09370000000298262,0.11079999999702039,0.12720000000298626,0.1443999999910659,0.1665000000000063,0.17729999999702528,0.19350000000000023,0.21889999999106635,0.23550000000000182,0.2515999999940419,0.2658999999910634,0.28320000000298506,0.29889999999106465,0.3157999999970258,0.3323999999910612,0.34970000000298285,0.36650000000000205,0.3832000000029865,0.39979999999702187,0.4165000000000063,0.4332999999970255,0.4492000000029819,0.46579999999702437,0.4825000000000017,0.49920000000298614,0.5167999999970263,0.5330999999940431]",,3,0,3,0,1,,,,
,,A000000000,2022-11-30_10h59.02.803,GoFitts,2022.2.4,Win32,60.54734803,,,,,,,,,,,,,,,,,,"[-118.74999999999994,205.6810333988042]","[158.9185190102289,-176.49689605088108]",40.5,475,3,"[-112.79998779296875,-116,-116.79998779296875,-118.39996337890625,-118.39996337890625,-119.20001220703125,-120.79998779296875,-120.79998779296875,-122.39996337890625,-122.39996337890625,-122.39996337890625,-122.39996337890625,-122.39996337890625,-122.39996337890625,-122.39996337890625,-119.20001220703125,-106.39996337890625,-84.79998779296875,-55.20001220703125,-15.20001220703125,12.79998779296875,37.60003662109375,57.60003662109375,82.4000244140625,96.79998779296875,110.4000244140625,119.20001220703125,126.4000244140625,128.79998779296875,128.79998779296875,128.79998779296875,128.79998779296875,128.79998779296875,129.60003662109375,131.20001220703125,134.4000244140625,136,137.60003662109375,139.20001220703125]","[186.39999389648438,189.59999084472656,190.39999389648438,192.8000030517578,194.39999389648438,195.1999969482422,197.59999084472656,199.1999969482422,201.59999084472656,201.59999084472656,201.59999084472656,201.59999084472656,201.59999084472656,201.59999084472656,201.59999084472656,194.39999389648438,169.60000610351562,133.60000610351562,87.19998168945312,24.79998779296875,-18.399993896484375,-52.800018310546875,-79.20001220703125,-107.20001220703125,-124,-144,-154.4000244140625,-161.60003662109375,-162.4000244140625,-162.4000244140625,-162.4000244140625,-162.4000244140625,-162.4000244140625,-163.20001220703125,-165.60003662109375,-170.4000244140625,-173.60003662109375,-175.20001220703125,-176]","[0,0,0,0,0,0,0,0,0,0,0,0,0,0,0,0,0,0,0,0,0,0,0,0,0,0,0,0,0,0,0,0,0,0,0,0,0,0,0]","[0,0,0,0,0,0,0,0,0,0,0,0,0,0,0,0,0,0,0,0,0,0,0,0,0,0,0,0,0,0,0,0,0,0,0,0,0,0,0]","[0,0,0,0,0,0,0,0,0,0,0,0,0,0,0,0,0,0,0,0,0,0,0,0,0,0,0,0,0,0,0,0,0,0,0,0,0,0,0]","[0.0007000000029790954,0.016500000000000625,0.03300000000000125,0.04959999999404374,0.0660000000000025,0.08309999999404027,0.09940000000596427,0.11629999999701823,0.13300000000000267,0.14940000000596143,0.16009999999403846,0.17670000000298103,0.19929999999702375,0.21029999999701943,0.23279999999702028,0.24709999999404175,0.26640000000595876,0.2829000000059594,0.29959999999404374,0.3162999999970211,0.3329999999999984,0.3495999999940409,0.3660999999940415,0.38279999999701886,0.3995000000000033,0.4160999999940387,0.432099999994044,0.44879999999702136,0.46490000000596154,0.48170000000298074,0.4934000000059626,0.5159000000059635,0.5319000000059617,0.5492000000029833,0.5657999999970187,0.5820000000000007,0.5984000000059595,0.6155999999940391,0.6319000000059631]",,4,0,4,0,1,,,,
,,A000000000,2022-11-30_10h59.02.803,GoFitts,2022.2.4,Win32,60.54734803,,,,,,,,,,,,,,,,,,"[158.9185190102289,-176.49689605088108]","[-192.14153616405,139.5989974194624]",40.5,475,3,"[139.20001220703125,141.60003662109375,143.20001220703125,144,146.4000244140625,147.20001220703125,148,151.20001220703125,151.20001220703125,151.20001220703125,151.20001220703125,151.20001220703125,151.20001220703125,148.79998779296875,144.79998779296875,136.79998779296875,114.4000244140625,81.60003662109375,27.20001220703125,-8.79998779296875,-35.20001220703125,-49.5999755859375,-57.5999755859375,-63.20001220703125,-69.5999755859375,-76.79998779296875,-83.20001220703125,-89.5999755859375,-94.39996337890625,-97.5999755859375,-103.20001220703125,-108,-113.5999755859375,-116.79998779296875,-120.79998779296875,-124.79998779296875,-130.39996337890625,-135.20001220703125,-142.39996337890625,-156,-170.39996337890625,-176,-178.39996337890625]","[-176,-176,-174.4000244140625,-173.60003662109375,-173.60003662109375,-173.60003662109375,-173.60003662109375,-174.4000244140625,-174.4000244140625,-174.4000244140625,-174.4000244140625,-174.4000244140625,-173.60003662109375,-170.4000244140625,-164.79998779296875,-152,-118.4000244140625,-74.39999389648438,-19.20001220703125,7.199981689453125,27.199981689453125,39.199981689453125,48.79998779296875,56,63.199981689453125,71.19998168945312,77.60000610351562,81.60000610351562,84,87.19998168945312,89.60000610351562,93.60000610351562,97.60000610351562,100,103.19998168945312,107.19998168945312,112,115.19998168945312,119.19998168945312,122.39999389648438,125.60000610351562,127.19998168945312,127.19998168945312]","[0,0,0,0,0,0,0,0,0,0,0,0,0,0,0,0,0,0,0,0,0,0,0,0,0,0,0,0,0,0,0,0,0,0,0,0,0,0,0,0,0,0,0]","[0,0,0,0,0,0,0,0,0,0,0,0,0,0,0,0,0,0,0,0,0,0,0,0,0,0,0,0,0,0,0,0,0,0,0,0,0,0,0,0,0,0,0]","[0,0,0,0,0,0,0,0,0,0,0,0,0,0,0,0,0,0,0,0,0,0,0,0,0,0,0,0,0,0,0,0,0,0,0,0,0,0,0,0,0,0,0]","[0.0005000000000023874,0.016399999991058678,0.03249999999999886,0.049599999994036637,0.06659999999403965,0.08379999999701937,0.10059999999403857,0.11679999999702062,0.13349999999999795,0.14409999999404022,0.16659999999404107,0.1832999999970184,0.20039999999105618,0.21699999999999875,0.2322999999970179,0.24900000000000233,0.2665999999940425,0.28259999999404073,0.2992000000029833,0.3160000000000025,0.3330999999940403,0.3497999999970176,0.36629999999701823,0.38349999999999795,0.39939999999106135,0.4157999999970201,0.4328999999910579,0.44970000000297716,0.4663999999910615,0.4832000000029808,0.4995999999940395,0.5162999999970168,0.5328999999910593,0.5497999999970204,0.5662000000029792,0.5827999999970217,0.5997999999970176,0.6172000000029811,0.6330999999940374,0.6490000000000009,0.6655000000000015,0.6824999999999974,0.6995000000000005]",,5,0,5,0,1,,,,
,,A000000000,2022-11-30_10h59.02.803,GoFitts,2022.2.4,Win32,60.54734803,,,,,,,,,,,,,,,,,,"[-192.14153616405,139.5989974194624]","[216.96704619011774,-96.59995273050254]",40.5,475,3,"[-178.39996337890625,-180.79998779296875,-182.39996337890625,-183.20001220703125,-183.20001220703125,-183.20001220703125,-183.20001220703125,-183.20001220703125,-183.20001220703125,-183.20001220703125,-183.20001220703125,-183.20001220703125,-183.20001220703125,-183.20001220703125,-174.39996337890625,-141.5999755859375,-88,-41.5999755859375,20.79998779296875,64.79998779296875,101.60003662109375,135.20001220703125,161.60003662109375,185.60003662109375,213.60003662109375,228.79998779296875]","[127.19998168945312,130.39999389648438,132,132,132,132,132,132,132,132,132,132,132,132,122.39999389648438,97.60000610351562,63.199981689453125,41.600006103515625,24,12,2.399993896484375,-8,-22.399993896484375,-43.20001220703125,-72,-91.20001220703125]","[0,0,0,0,0,0,0,0,0,0,0,0,0,0,0,0,0,0,0,0,0,0,0,0,0,0]","[0,0,0,0,0,0,0,0,0,0,0,0,0,0,0,0,0,0,0,0,0,0,0,0,0,0]","[0,0,0,0,0,0,0,0,0,0,0,0,0,0,0,0,0,0,0,0,0,0,0,0,0,0]","[0.0005999999940371481,0.016099999994033,0.03270000000297557,0.04939999999105282,0.06609999999403726,0.08309999999403317,0.09389999999105925,0.11059999999403658,0.1272999999970139,0.14370000000297978,0.1602000000029804,0.17659999999403908,0.19370000000297694,0.210599999994038,0.22729999999701533,0.25009999999403476,0.26599999999999824,0.28299999999999415,0.29979999999701334,0.3157000000029768,0.3325999999940379,0.34870000000297807,0.36649999999999494,0.38309999999403743,0.39970000000298,0.41639999999105726]",,6,0,6,0,1,,,,
