key_resp_4.keys,key_resp_4.rt,身分證字號,date,expName,psychopyVersion,OS,frameRate,mouse_2.x,mouse_2.y,mouse_2.leftButton,mouse_2.midButton,mouse_2.rightButton,mouse_2.time,cont.keys,cont.rt,retry_testing.thisRepN,retry_testing.thisTrialN,retry_testing.thisN,retry_testing.thisIndex,retry_testing.ran,key_resp.keys,key_resp.rt,key_resp_3.keys,key_resp_3.rt,from,to,w,a,sequence_loop.thisN,mouse.x,mouse.y,mouse.leftButton,mouse.midButton,mouse.rightButton,mouse.time,key_resp_2.keys,trial_loop.thisRepN,trial_loop.thisTrialN,trial_loop.thisN,trial_loop.thisIndex,trial_loop.ran,sequence_loop.thisRepN,sequence_loop.thisTrialN,sequence_loop.thisIndex,sequence_loop.ran
return,2.751,A000000000,2024-04-16_15h10.59.373,GoFitts,2022.2.4,Win32,59.88023952,,,,,,,,,,,,,,,,,,,,,,,,,,,,,,,,,,,,,,
,,A000000000,2024-04-16_15h10.59.373,GoFitts,2022.2.4,Win32,59.88023952,"[45.60003662109375,45.60003662109375,45.60003662109375,45.60003662109375,45.60003662109375,45.60003662109375,45.60003662109375,45.60003662109375,45.60003662109375,45.60003662109375,45.60003662109375,45.60003662109375,47.20001220703125,47.20001220703125,47.20001220703125,47.20001220703125,47.20001220703125,47.20001220703125,46.4000244140625,44.79998779296875,41.60003662109375,32.79998779296875,20.79998779296875,8,5.60003662109375,5.60003662109375,5.60003662109375,5.60003662109375,4.79998779296875,4.79998779296875,4.79998779296875,3.20001220703125,12,26.4000244140625,37.60003662109375,49.60003662109375,62.4000244140625,72.79998779296875,80,83.20001220703125,84.79998779296875,90.4000244140625,104,136,168,202.4000244140625,232.79998779296875,260,284.800048828125,296.800048828125,305.5999755859375,306.4000244140625,306.4000244140625,306.4000244140625,306.4000244140625,306.4000244140625,311.2000732421875,323.2000732421875,332.800048828125,340.800048828125,344,344,344,344,344,344,344,344,344,344,344,344,344,344,344,344,344,344,344,344,344,344,344,344,343.2000732421875,326.4000244140625,302.4000244140625,270.4000244140625,250.4000244140625,236,226.4000244140625,222.4000244140625,212.79998779296875,204,184.79998779296875,161.60003662109375,134.4000244140625,111.20001220703125,83.20001220703125,62.4000244140625,46.4000244140625,39.20001220703125,32,31.20001220703125,31.20001220703125,31.20001220703125,31.20001220703125,31.20001220703125,29.60003662109375,28.79998779296875,28,28,28,28,27.20001220703125,17.60003662109375,4.79998779296875,0,-1.5999755859375,-1.5999755859375,-0.79998779296875,-0.79998779296875,-0.79998779296875,-0.79998779296875,0,0.79998779296875,2.4000244140625,4,4,4,4,4,4,4,4,4,4,4,4,4,4,3.20001220703125,-8,-26.39996337890625,-61.5999755859375,-99.20001220703125,-132,-164.79998779296875,-188.79998779296875,-207.20001220703125,-222.39996337890625,-229.5999755859375,-234.39996337890625,-238.39996337890625,-243.20001220703125,-250.39996337890625,-260,-274.3999938964844,-283.1999816894531,-290.3999938964844,-295.1999816894531,-305.6000061035156,-318.3999938964844,-327.1999816894531,-331.1999816894531,-334.3999938964844,-334.3999938964844,-334.3999938964844,-334.3999938964844,-334.3999938964844,-334.3999938964844,-334.3999938964844,-334.3999938964844,-334.3999938964844,-334.3999938964844,-334.3999938964844,-334.3999938964844,-334.3999938964844,-334.3999938964844,-334.3999938964844,-334.3999938964844,-334.3999938964844,-334.3999938964844,-334.3999938964844,-334.3999938964844,-334.3999938964844,-334.3999938964844,-313.6000061035156,-276.79998779296875,-212,-127.20001220703125,-71.20001220703125,-29.5999755859375,-3.20001220703125,9.60003662109375,11.20001220703125,11.20001220703125]","[79.19998168945312,79.19998168945312,79.19998168945312,79.19998168945312,79.19998168945312,79.19998168945312,79.19998168945312,79.19998168945312,79.19998168945312,79.19998168945312,79.19998168945312,79.19998168945312,77.60000610351562,73.60000610351562,72,66.39999389648438,64,61.600006103515625,60,58.399993896484375,57.600006103515625,58.399993896484375,57.600006103515625,51.199981689453125,50.399993896484375,50.399993896484375,50.399993896484375,50.399993896484375,48.79998779296875,48.79998779296875,48.79998779296875,48,48.79998779296875,48.79998779296875,48.79998779296875,48.79998779296875,48.79998779296875,48.79998779296875,48.79998779296875,48.79998779296875,48.79998779296875,47.199981689453125,43.199981689453125,35.199981689453125,27.199981689453125,20,16.79998779296875,14.399993896484375,13.600006103515625,13.600006103515625,13.600006103515625,13.600006103515625,13.600006103515625,13.600006103515625,13.600006103515625,13.600006103515625,8,-0.800018310546875,-4,-6.399993896484375,-6.399993896484375,-6.399993896484375,-6.399993896484375,-6.399993896484375,-6.399993896484375,-6.399993896484375,-6.399993896484375,-6.399993896484375,-6.399993896484375,-6.399993896484375,-6.399993896484375,-6.399993896484375,-6.399993896484375,-6.399993896484375,-6.399993896484375,-6.399993896484375,-6.399993896484375,-6.399993896484375,-6.399993896484375,-6.399993896484375,-6.399993896484375,-6.399993896484375,-6.399993896484375,-6.399993896484375,-6.399993896484375,-6.399993896484375,-5.600006103515625,-1.600006103515625,0.79998779296875,4.79998779296875,8,9.600006103515625,19.199981689453125,32,60.79998779296875,92.79998779296875,133.60000610351562,168,211.1999969482422,246.39999389648438,281.59999084472656,304,331.1999969482422,342.4000015258789,351.1999969482422,360,368.79999923706055,380,387.20000076293945,390.39999771118164,392,392,392,392,392,386.39999771118164,375.20000076293945,368,362.4000015258789,360,359.1999969482422,359.1999969482422,359.1999969482422,359.1999969482422,358.4000015258789,354.4000015258789,348,345.5999984741211,344,344,344,344,344,344,344,344,344,344,344,344,342.4000015258789,338.4000015258789,321.5999984741211,291.1999969482422,236.8000030517578,184,140.79998779296875,100,78.39999389648438,60,45.600006103515625,35.199981689453125,28.79998779296875,22.399993896484375,20,17.600006103515625,15.199981689453125,9.600006103515625,6.399993896484375,4.79998779296875,4.79998779296875,8,10.399993896484375,10.399993896484375,10.399993896484375,10.399993896484375,10.399993896484375,10.399993896484375,10.399993896484375,10.399993896484375,10.399993896484375,10.399993896484375,10.399993896484375,10.399993896484375,10.399993896484375,10.399993896484375,10.399993896484375,10.399993896484375,10.399993896484375,10.399993896484375,10.399993896484375,10.399993896484375,10.399993896484375,10.399993896484375,10.399993896484375,10.399993896484375,8,-25.600006103515625,-74.39999389648438,-144,-225.60003662109375,-267.20001220703125,-293.60003662109375,-312,-323.20001220703125,-329.60003662109375,-334.4000244140625]","[0,0,0,0,0,0,0,0,0,0,0,0,0,0,0,0,0,0,0,0,0,0,0,0,0,0,0,0,0,0,0,0,0,0,0,0,0,0,0,0,0,0,0,0,0,0,0,0,0,0,0,0,0,0,0,0,0,0,0,0,0,0,0,0,0,0,0,0,0,0,0,0,0,0,0,0,0,0,0,0,0,0,0,0,0,0,0,0,0,0,0,0,0,0,0,0,0,0,0,0,0,0,0,0,0,0,0,0,0,0,0,0,0,0,0,0,0,0,0,0,0,0,0,0,0,0,0,0,0,0,0,0,0,0,0,0,0,0,0,0,0,0,0,0,0,0,0,0,0,0,0,0,0,0,0,0,0,0,0,0,0,0,0,0,0,0,0,0,0,0,0,0,0,0,0,0,0,0,0,0,0,0,0,0,0,0,0,0,0,0,0,0,0,0,0,0,0]","[0,0,0,0,0,0,0,0,0,0,0,0,0,0,0,0,0,0,0,0,0,0,0,0,0,0,0,0,0,0,0,0,0,0,0,0,0,0,0,0,0,0,0,0,0,0,0,0,0,0,0,0,0,0,0,0,0,0,0,0,0,0,0,0,0,0,0,0,0,0,0,0,0,0,0,0,0,0,0,0,0,0,0,0,0,0,0,0,0,0,0,0,0,0,0,0,0,0,0,0,0,0,0,0,0,0,0,0,0,0,0,0,0,0,0,0,0,0,0,0,0,0,0,0,0,0,0,0,0,0,0,0,0,0,0,0,0,0,0,0,0,0,0,0,0,0,0,0,0,0,0,0,0,0,0,0,0,0,0,0,0,0,0,0,0,0,0,0,0,0,0,0,0,0,0,0,0,0,0,0,0,0,0,0,0,0,0,0,0,0,0,0,0,0,0,0,0]","[0,0,0,0,0,0,0,0,0,0,0,0,0,0,0,0,0,0,0,0,0,0,0,0,0,0,0,0,0,0,0,0,0,0,0,0,0,0,0,0,0,0,0,0,0,0,0,0,0,0,0,0,0,0,0,0,0,0,0,0,0,0,0,0,0,0,0,0,0,0,0,0,0,0,0,0,0,0,0,0,0,0,0,0,0,0,0,0,0,0,0,0,0,0,0,0,0,0,0,0,0,0,0,0,0,0,0,0,0,0,0,0,0,0,0,0,0,0,0,0,0,0,0,0,0,0,0,0,0,0,0,0,0,0,0,0,0,0,0,0,0,0,0,0,0,0,0,0,0,0,0,0,0,0,0,0,0,0,0,0,0,0,0,0,0,0,0,0,0,0,0,0,0,0,0,0,0,0,0,0,0,0,0,0,0,0,0,0,0,0,0,0,0,0,0,0,0]","[0.0037000000029809854,0.016300000000745385,0.027100000001491154,0.03910000000148983,0.06070000000298137,0.07730000000074533,0.0940000000000012,0.10580000000074463,0.1271000000014908,0.138900000002236,0.15570000000298023,0.17210000000149073,0.18930000000074543,0.2110000000000003,0.22260000000149027,0.2437000000029803,0.2606000000014914,0.27740000000223386,0.293700000002981,0.3100000000000014,0.3274999999999997,0.34449999999999914,0.36090000000223466,0.3774000000022353,0.39410000000148937,0.4102000000029795,0.42690000000223716,0.4440000000000017,0.46030000000074534,0.4745000000000017,0.48890000000223477,0.5057000000029808,0.5273000000007455,0.5441000000014915,0.5607000000029805,0.5772000000029811,0.5939000000022352,0.6105000000000009,0.6272000000029818,0.6439000000022359,0.6605000000000016,0.677200000002979,0.6939000000022366,0.7109000000022361,0.7267000000029809,0.7438000000007454,0.7602000000029809,0.7782000000029816,0.7939000000022345,0.8104000000022351,0.8273000000007462,0.8438000000007468,0.8603000000007439,0.8719000000022339,0.8887000000029799,0.9054999999999991,0.9223000000007451,0.9439000000022366,0.9607000000029791,0.9780000000000006,0.996400000002235,1.011700000002981,1.0221000000014895,1.044500000000002,1.055200000002979,1.0720000000000018,1.0887000000029792,1.105300000000745,1.122100000001491,1.1387000000029799,1.1553000000007456,1.1719999999999997,1.1884000000022352,1.2083000000007464,1.2214000000022365,1.243600000001492,1.2608000000007449,1.2718000000007441,1.2885000000000018,1.310900000002234,1.3287000000029812,1.3387000000029792,1.3609999999999998,1.3722000000029793,1.3943000000007464,1.41060000000149,1.4267000000029801,1.4436000000014912,1.4606000000014907,1.4769999999999994,1.4937000000029803,1.5049000000022366,1.527499999999999,1.5439000000022345,1.560400000002235,1.5767000000029823,1.5935000000000015,1.6109999999999998,1.6269000000022364,1.643700000002979,1.6609000000022354,1.6716000000014892,1.6939000000022366,1.7102000000029802,1.7263000000007471,1.743600000001492,1.7600000000000007,1.7767000000029816,1.7932000000029822,1.8108000000007456,1.827800000000745,1.8438000000007468,1.8604000000022358,1.8770000000000016,1.8884999999999996,1.9101000000014912,1.9264000000022348,1.9380000000000015,1.9608000000007442,1.976600000001489,1.993400000002235,2.009700000002982,2.0214999999999987,2.0381000000014913,2.057400000002235,2.0710000000000006,2.093100000001491,2.1045000000000007,2.126600000001491,2.143300000000745,2.154800000000747,2.171000000000002,2.1880000000000015,2.209500000000001,2.22160000000149,2.238200000002979,2.2599000000022356,2.2716000000014906,2.2883000000007447,2.3047000000029803,2.3276000000014916,2.341,2.35970000000298,2.3763000000007457,2.39320000000298,2.4104000000022365,2.425900000002236,2.443100000001489,2.459500000000001,2.4756000000014913,2.492900000002236,2.509500000000002,2.520900000002235,2.537600000001489,2.559499999999999,2.576400000002237,2.5927000000029805,2.6093000000007462,2.6254000000022364,2.6429000000022347,2.6542000000029793,2.675900000002236,2.6934000000022342,2.7089999999999987,2.7269000000022343,2.7426000000014907,2.760100000001489,2.7765000000000013,2.7875000000000005,2.8042000000029814,2.820800000000747,2.843800000000747,2.8539000000022368,2.870600000001491,2.892300000000744,2.9089000000022365,2.9206000000014916,2.9377000000029794,2.9541000000014916,2.9757000000029796,2.9873000000007464,3.0039000000022353,3.020900000002235,3.037300000000747,3.059400000002234,3.070800000000747,3.0878000000007466,3.1091000000014892,3.125800000000747,3.142700000002981,3.15910000000149,3.175700000002979,3.1922000000029795,3.209300000000744,3.2257000000029796,3.2422000000029803,3.2542000000029807]",return,5.6634,0,0,0,0,1,,,,,,,,,,,,,,,,,,,,,,,,,
,,A000000000,2024-04-16_15h10.59.373,GoFitts,2022.2.4,Win32,59.88023952,,,,,,,,,,,,,,return,1.1764,,,,,,,,,,,,,,,,,,,,,,,
,,A000000000,2024-04-16_15h10.59.373,GoFitts,2022.2.4,Win32,59.88023952,,,,,,,,,,,,,,,,return,0.952,"[70.4000244140625,36]","[209.10331448714328,-232.23275796168562]",25.5,625,0,"[70.4000244140625,70.4000244140625,70.4000244140625,70.4000244140625,70.4000244140625,70.4000244140625,70.4000244140625,70.4000244140625,70.4000244140625,70.4000244140625,70.4000244140625,70.4000244140625,70.4000244140625,70.4000244140625,70.4000244140625,70.4000244140625,70.4000244140625,70.4000244140625,70.4000244140625,70.4000244140625,70.4000244140625,70.4000244140625,70.4000244140625,70.4000244140625,70.4000244140625,70.4000244140625,70.4000244140625,72,74.4000244140625,76,80.79998779296875,89.60003662109375,103.20001220703125,120.79998779296875,142.4000244140625,159.20001220703125,174.4000244140625,189.60003662109375,205.60003662109375,222.4000244140625,236.79998779296875,250.4000244140625,256.800048828125,259.2000732421875,261.5999755859375,261.5999755859375,260.800048828125,258.4000244140625,254.4000244140625,249.60003662109375,244,240,238.4000244140625,234.4000244140625,232,231.20001220703125,231.20001220703125,229.60003662109375,227.20001220703125,224.79998779296875,223.20001220703125,223.20001220703125,223.20001220703125,223.20001220703125,223.20001220703125,223.20001220703125,222.4000244140625,220.79998779296875]","[36,36,36,36,36,36,36,36,36,36,36,36,36,36,36,36,36,36,36,36,36,36,36,36,36,36,36,37.600006103515625,39.199981689453125,40,40,39.199981689453125,32.79998779296875,22.399993896484375,9.600006103515625,-2.399993896484375,-16,-39.20001220703125,-64.80001831054688,-92,-120.79998779296875,-148,-161.60003662109375,-168.79998779296875,-176.79998779296875,-182.4000244140625,-191.20001220703125,-198.4000244140625,-205.60003662109375,-212,-220.79998779296875,-226.4000244140625,-229.60003662109375,-233.60003662109375,-236,-236,-236,-236,-234.4000244140625,-233.60003662109375,-233.60003662109375,-233.60003662109375,-233.60003662109375,-233.60003662109375,-233.60003662109375,-233.60003662109375,-233.60003662109375,-232.79998779296875]","[0,0,0,0,0,0,0,0,0,0,0,0,0,0,0,0,0,0,0,0,0,0,0,0,0,0,0,0,0,0,0,0,0,0,0,0,0,0,0,0,0,0,0,0,0,0,0,0,0,0,0,0,0,0,0,0,0,0,0,0,0,0,0,0,0,0,0,0]","[0,0,0,0,0,0,0,0,0,0,0,0,0,0,0,0,0,0,0,0,0,0,0,0,0,0,0,0,0,0,0,0,0,0,0,0,0,0,0,0,0,0,0,0,0,0,0,0,0,0,0,0,0,0,0,0,0,0,0,0,0,0,0,0,0,0,0,0]","[0,0,0,0,0,0,0,0,0,0,0,0,0,0,0,0,0,0,0,0,0,0,0,0,0,0,0,0,0,0,0,0,0,0,0,0,0,0,0,0,0,0,0,0,0,0,0,0,0,0,0,0,0,0,0,0,0,0,0,0,0,0,0,0,0,0,0,0]","[0.0028000000007466497,0.018800000000744888,0.0301999999992546,0.046600000001490116,0.06360000000148958,0.08019999999925531,0.09669999999925594,0.11410000000148912,0.13060000000148975,0.14700000000000202,0.16400000000000148,0.18060000000149046,0.19699999999999918,0.21960000000149194,0.23060000000149117,0.25230000000074426,0.26419999999925636,0.28589999999850946,0.29710000000148895,0.3135000000000012,0.33589999999851017,0.3523000000007457,0.36389999999850886,0.3805000000000014,0.3968999999985101,0.41389999999850957,0.4351000000014906,0.45169999999925636,0.468199999999257,0.4853000000007448,0.501600000001492,0.5181999999992541,0.5353000000007455,0.5516000000014891,0.5685000000000002,0.5853000000007462,0.602600000001491,0.6181000000014905,0.6346999999992562,0.6516000000014905,0.6683000000007446,0.6848000000007453,0.7013000000007459,0.7184999999999988,0.734800000000746,0.7516999999992571,0.768300000000746,0.7848999999985118,0.8016999999992542,0.8181000000014897,0.8348000000007474,0.8513999999985096,0.8685000000000009,0.8846999999992562,0.9021000000014894,0.9183999999985097,0.9348999999985104,0.9518999999985098,0.9683000000007453,0.9851000000014913,1.0015,1.0175000000000018,1.0348000000007467,1.0461000000014913,1.0635000000000012,1.0794999999999995,1.0970000000000013,1.1193000000007451]",,0,0,0,0,1,,,,
,,A000000000,2024-04-16_15h10.59.373,GoFitts,2022.2.4,Win32,59.88023952,,,,,,,,,,,,,,,,,,"[209.10331448714328,-232.23275796168562]","[-252.81781074217105,183.6828913413979]",25.5,625,0,"[220.79998779296875,219.20001220703125,218.4000244140625,216.79998779296875,216.79998779296875,215.20001220703125,213.60003662109375,212.79998779296875,212.79998779296875,212.79998779296875,212.79998779296875,212.79998779296875,212.79998779296875,212.79998779296875,212.79998779296875,212.79998779296875,212.79998779296875,208.79998779296875,201.60003662109375,188.79998779296875,132,57.60003662109375,-24,-119.20001220703125,-164,-194.39996337890625,-213.5999755859375,-218.39996337890625,-219.20001220703125,-219.20001220703125,-218.39996337890625,-216.79998779296875,-216.79998779296875,-218.39996337890625,-219.20001220703125,-220,-220,-220,-220.79998779296875,-223.20001220703125,-226.39996337890625,-234.39996337890625,-238.39996337890625,-241.5999755859375,-242.39996337890625,-242.39996337890625,-242.39996337890625,-242.39996337890625,-242.39996337890625,-242.39996337890625,-242.39996337890625,-242.39996337890625,-242.39996337890625,-244.79998779296875,-244.79998779296875]","[-232.79998779296875,-232,-232,-232,-232,-232,-231.20001220703125,-230.4000244140625,-230.4000244140625,-230.4000244140625,-230.4000244140625,-230.4000244140625,-230.4000244140625,-230.4000244140625,-230.4000244140625,-230.4000244140625,-230.4000244140625,-225.60003662109375,-214.4000244140625,-196,-138.4000244140625,-77.60000610351562,-23.20001220703125,40,69.60000610351562,91.19998168945312,106.39999389648438,112.79998779296875,115.19998168945312,118.39999389648438,119.19998168945312,124.79998779296875,127.19998168945312,131.19998168945312,132.79998779296875,135.19998168945312,135.19998168945312,135.19998168945312,140,144.79998779296875,150.39999389648438,160.79998779296875,164,165.60000610351562,165.60000610351562,165.60000610351562,165.60000610351562,165.60000610351562,165.60000610351562,165.60000610351562,165.60000610351562,167.19998168945312,170.39999389648438,172.79998779296875,174.39999389648438]","[0,0,0,0,0,0,0,0,0,0,0,0,0,0,0,0,0,0,0,0,0,0,0,0,0,0,0,0,0,0,0,0,0,0,0,0,0,0,0,0,0,0,0,0,0,0,0,0,0,0,0,0,0,0,0]","[0,0,0,0,0,0,0,0,0,0,0,0,0,0,0,0,0,0,0,0,0,0,0,0,0,0,0,0,0,0,0,0,0,0,0,0,0,0,0,0,0,0,0,0,0,0,0,0,0,0,0,0,0,0,0]","[0,0,0,0,0,0,0,0,0,0,0,0,0,0,0,0,0,0,0,0,0,0,0,0,0,0,0,0,0,0,0,0,0,0,0,0,0,0,0,0,0,0,0,0,0,0,0,0,0,0,0,0,0,0,0]","[0.0013000000007465928,0.014800000000743552,0.03200000000000003,0.048500000000000654,0.06390000000223495,0.08070000000298094,0.09720000000298157,0.11430000000074614,0.1301000000014909,0.14220000000297972,0.1589000000022338,0.1757000000029798,0.19230000000074554,0.20890000000223452,0.22540000000223515,0.2467000000029813,0.2588000000007469,0.28040000000223486,0.29720000000298086,0.30890000000223594,0.33000000000000185,0.3468000000007443,0.3634999999999984,0.379999999999999,0.3967000000029799,0.4133000000007456,0.4307000000029788,0.44750000000000156,0.4639000000022371,0.4803000000007458,0.49720000000298015,0.5152000000029808,0.5300000000000011,0.5472000000029809,0.5636000000014896,0.5800000000000018,0.5970000000000013,0.6087000000029796,0.6254999999999988,0.6471000000014904,0.6585000000000001,0.6797000000029811,0.6967000000029806,0.7136000000014917,0.7300000000000004,0.7469000000022348,0.7638000000007459,0.7801000000014895,0.79210000000149,0.8087000000029789,0.8249999999999993,0.842400000002236,0.8636000000014903,0.879999999999999,0.8969999999999985]",,1,0,1,0,1,,,,
,,A000000000,2024-04-16_15h10.59.373,GoFitts,2022.2.4,Win32,59.88023952,,,,,,,,,,,,,,,,,,"[-252.81781074217105,183.6828913413979]","[285.4829555133128,-127.10520096118755]",25.5,625,0,"[-244.79998779296875,-245.5999755859375,-248,-251.20001220703125,-254.39996337890625,-255.20001220703125,-255.20001220703125,-255.20001220703125,-253.5999755859375,-248,-246.39996337890625,-246.39996337890625,-246.39996337890625,-246.39996337890625,-246.39996337890625,-246.39996337890625,-245.5999755859375,-243.20001220703125,-236.79998779296875,-222.39996337890625,-199.20001220703125,-161.5999755859375,-96.79998779296875,7.20001220703125,91.20001220703125,175.20001220703125,235.20001220703125,261.5999755859375,270.4000244140625,271.2000732421875,271.2000732421875,271.2000732421875,271.2000732421875,271.2000732421875,271.2000732421875,269.5999755859375,268,267.2000732421875,265.5999755859375,265.5999755859375,265.5999755859375,266.4000244140625,266.4000244140625,267.2000732421875,267.2000732421875,268,270.4000244140625,271.2000732421875,275.2000732421875]","[174.39999389648438,176.8000030517578,180.8000030517578,187.1999969482422,191.1999969482422,192.8000030517578,192.8000030517578,192.8000030517578,192,188,188,188,188,188,188,188,187.1999969482422,181.59999084472656,170.39999389648438,156,139.19998168945312,120,85.60000610351562,32,-12.800018310546875,-66.39999389648438,-114.4000244140625,-139.20001220703125,-152,-153.60003662109375,-153.60003662109375,-153.60003662109375,-153.60003662109375,-154.4000244140625,-154.4000244140625,-153.60003662109375,-148.79998779296875,-146.4000244140625,-144,-140,-136.79998779296875,-128.79998779296875,-124.79998779296875,-121.60003662109375,-121.60003662109375,-121.60003662109375,-122.4000244140625,-123.20001220703125,-127.20001220703125]","[0,0,0,0,0,0,0,0,0,0,0,0,0,0,0,0,0,0,0,0,0,0,0,0,0,0,0,0,0,0,0,0,0,0,0,0,0,0,0,0,0,0,0,0,0,0,0,0,0]","[0,0,0,0,0,0,0,0,0,0,0,0,0,0,0,0,0,0,0,0,0,0,0,0,0,0,0,0,0,0,0,0,0,0,0,0,0,0,0,0,0,0,0,0,0,0,0,0,0]","[0,0,0,0,0,0,0,0,0,0,0,0,0,0,0,0,0,0,0,0,0,0,0,0,0,0,0,0,0,0,0,0,0,0,0,0,0,0,0,0,0,0,0,0,0,0,0,0,0]","[0.0003000000007453707,0.016199999999255255,0.032199999999257045,0.049199999999256505,0.06590000000223739,0.08280000000074494,0.09940000000223748,0.11119999999925767,0.12780000000074665,0.14960000000149165,0.16119999999925483,0.17730000000074497,0.19440000000223634,0.2106999999992567,0.2281000000014899,0.24460000000149051,0.26160000000149,0.2823000000007454,0.298800000000746,0.3159000000022374,0.33219999999925776,0.3494000000022375,0.36599999999999966,0.3821999999992549,0.3991000000014928,0.41590000000223526,0.432500000000001,0.44910000000149,0.46550000000000225,0.4834000000022378,0.49980000000074654,0.5159000000022367,0.5273000000007464,0.5493000000007449,0.5658000000007455,0.5775000000000006,0.5989000000022351,0.6159999999999997,0.6326999999992573,0.6489000000022358,0.6664000000022376,0.682500000000001,0.6988000000007482,0.7156999999992557,0.7333000000007459,0.7445000000000022,0.766800000000746,0.7783000000007476,0.8006000000014915]",,2,0,2,0,1,,,,
,,A000000000,2024-04-16_15h10.59.373,GoFitts,2022.2.4,Win32,59.88023952,,,,,,,,,,,,,,,,,,"[285.4829555133128,-127.10520096118755]","[-305.67112522931427,64.97240338054979]",25.5,625,0,"[275.2000732421875,276,276,277.5999755859375,280,280,280,280,280,280,280,280,280,280,280,280,280,276.800048828125,257.5999755859375,186.4000244140625,94.4000244140625,-20,-135.20001220703125,-224.79998779296875,-288,-319.1999816894531,-335.1999816894531,-336,-336,-336,-336,-337.6000061035156,-340.79998779296875,-349.6000061035156,-360.79998779296875,-376.79998779296875,-393.6000061035156,-394.3999938964844,-394.3999938964844,-372.79998779296875,-340.79998779296875,-313.6000061035156]","[-127.20001220703125,-127.20001220703125,-127.20001220703125,-127.20001220703125,-124.79998779296875,-123.20001220703125,-121.60003662109375,-121.60003662109375,-121.60003662109375,-121.60003662109375,-121.60003662109375,-121.60003662109375,-121.60003662109375,-121.60003662109375,-121.60003662109375,-121.60003662109375,-121.60003662109375,-121.60003662109375,-118.4000244140625,-98.4000244140625,-74.39999389648438,-40,-4,19.199981689453125,35.199981689453125,46.399993896484375,53.600006103515625,55.199981689453125,55.199981689453125,55.199981689453125,55.199981689453125,56,56.79998779296875,58.399993896484375,60.79998779296875,60.79998779296875,60.79998779296875,60.79998779296875,60.79998779296875,60.79998779296875,64,71.19998168945312]","[0,0,0,0,0,0,0,0,0,0,0,0,0,0,0,0,0,0,0,0,0,0,0,0,0,0,0,0,0,0,0,0,0,0,0,0,0,0,0,0,0,0]","[0,0,0,0,0,0,0,0,0,0,0,0,0,0,0,0,0,0,0,0,0,0,0,0,0,0,0,0,0,0,0,0,0,0,0,0,0,0,0,0,0,0]","[0,0,0,0,0,0,0,0,0,0,0,0,0,0,0,0,0,0,0,0,0,0,0,0,0,0,0,0,0,0,0,0,0,0,0,0,0,0,0,0,0,0]","[0.0006999999992558514,0.014800000000747104,0.03139999999851284,0.04289999999851091,0.06559999999776522,0.08119999999925653,0.098199999999256,0.1095999999977657,0.1263000000007466,0.1426999999992553,0.1595000000000013,0.17650000000000077,0.19319999999925486,0.2098000000007474,0.2265999999977666,0.24319999999925557,0.2596999999992562,0.2763999999985103,0.29269999999925744,0.31439999999851054,0.33080000000074605,0.34880000000074673,0.3644999999999996,0.3783999999985106,0.39759999999776596,0.41439999999851196,0.43100000000000094,0.4480000000000004,0.46439999999851267,0.48100000000000165,0.4925999999977648,0.5138000000007459,0.5261999999992568,0.5475999999977645,0.5645999999977676,0.5809999999999995,0.5978999999985106,0.6144999999999996,0.6308000000007468,0.6478000000007462,0.6640000000000015,0.6808999999985126]",,3,0,3,0,1,,,,
,,A000000000,2024-04-16_15h10.59.373,GoFitts,2022.2.4,Win32,59.88023952,,,,,,,,,,,,,,,,,,"[-305.67112522931427,64.97240338054979]","[312.5,0]",25.5,625,0,"[-313.6000061035156,-296,-293.6000061035156,-293.6000061035156,-293.6000061035156,-292.79998779296875,-295.1999816894531,-298.3999938964844,-299.1999816894531,-299.1999816894531,-299.1999816894531,-299.1999816894531,-299.1999816894531,-299.1999816894531,-299.1999816894531,-299.1999816894531,-299.1999816894531,-299.1999816894531,-299.1999816894531,-299.1999816894531,-299.1999816894531,-298.3999938964844,-284,-252.79998779296875,-201.5999755859375,-99.20001220703125,16,140,239.20001220703125,300.800048828125,332.800048828125,340,340,340,340,340,340,340,340,340,338.4000244140625,337.5999755859375,334.4000244140625,327.2000732421875,312.800048828125,296.800048828125,290.4000244140625,290.4000244140625,290.4000244140625,290.4000244140625,290.4000244140625,290.4000244140625,293.5999755859375,296.800048828125,297.5999755859375,303.2000732421875]","[71.19998168945312,74.39999389648438,74.39999389648438,74.39999389648438,74.39999389648438,74.39999389648438,72.79998779296875,71.19998168945312,70.39999389648438,70.39999389648438,70.39999389648438,70.39999389648438,72,73.60000610351562,73.60000610351562,73.60000610351562,73.60000610351562,73.60000610351562,73.60000610351562,73.60000610351562,73.60000610351562,73.60000610351562,73.60000610351562,72,65.60000610351562,50.399993896484375,32.79998779296875,11.199981689453125,-12.800018310546875,-27.20001220703125,-37.600006103515625,-41.600006103515625,-41.600006103515625,-41.600006103515625,-41.600006103515625,-41.600006103515625,-41.600006103515625,-41.600006103515625,-41.600006103515625,-40.800018310546875,-40.800018310546875,-38.399993896484375,-32.800018310546875,-22.399993896484375,-12.800018310546875,-4,-1.600006103515625,-1.600006103515625,-1.600006103515625,-1.600006103515625,-1.600006103515625,-1.600006103515625,-0.800018310546875,0.79998779296875,1.600006103515625,3.199981689453125]","[0,0,0,0,0,0,0,0,0,0,0,0,0,0,0,0,0,0,0,0,0,0,0,0,0,0,0,0,0,0,0,0,0,0,0,0,0,0,0,0,0,0,0,0,0,0,0,0,0,0,0,0,0,0,0,0]","[0,0,0,0,0,0,0,0,0,0,0,0,0,0,0,0,0,0,0,0,0,0,0,0,0,0,0,0,0,0,0,0,0,0,0,0,0,0,0,0,0,0,0,0,0,0,0,0,0,0,0,0,0,0,0,0]","[0,0,0,0,0,0,0,0,0,0,0,0,0,0,0,0,0,0,0,0,0,0,0,0,0,0,0,0,0,0,0,0,0,0,0,0,0,0,0,0,0,0,0,0,0,0,0,0,0,0,0,0,0,0,0,0]","[0.000199999999253464,0.016099999997763348,0.03300000000000125,0.04979999999702045,0.06569999999925358,0.07809999999776451,0.09969999999925605,0.11129999999701923,0.13389999999850843,0.1502999999970207,0.1615999999977653,0.17749999999999844,0.19439999999850954,0.21129999999702065,0.23289999999850863,0.2448999999985091,0.2615999999977632,0.27789999999851034,0.29479999999702144,0.3113999999985104,0.32779999999701914,0.345299999997021,0.3675999999977648,0.3825000000000003,0.3993999999985114,0.41639999999851085,0.4336999999992557,0.4492999999970202,0.4657999999970208,0.48300000000000054,0.5004999999999988,0.5158999999985099,0.532599999997764,0.544399999998511,0.561099999997765,0.5777999999970191,0.5947999999970186,0.6113999999985111,0.6276999999992547,0.6446999999992542,0.6660999999977655,0.6777999999970206,0.6943999999985095,0.7160999999977662,0.7330999999977657,0.7495000000000012,0.7659999999999982,0.7823999999985105,0.7942999999970191,0.8108999999985116,0.8275999999977657,0.8441999999992547,0.8610000000000007,0.8825999999977654,0.8942999999970205,0.9162999999970189]",,4,0,4,0,1,,,,
,,A000000000,2024-04-16_15h10.59.373,GoFitts,2022.2.4,Win32,59.88023952,,,,,,,,,,,,,,,,,,"[312.5,0]","[-305.67112522931427,-64.97240338054971]",25.5,625,0,"[303.2000732421875,307.2000732421875,310.4000244140625,312.800048828125,312.800048828125,312.800048828125,312.800048828125,312.800048828125,312.800048828125,312.800048828125,312.800048828125,312.800048828125,312.800048828125,310.4000244140625,292,254.4000244140625,199.20001220703125,118.4000244140625,36,-44.79998779296875,-92.79998779296875,-125.5999755859375,-148.79998779296875,-163.20001220703125,-174.39996337890625,-184,-192,-204.79998779296875,-218.39996337890625,-232,-244,-251.20001220703125,-255.20001220703125,-258.3999938964844,-259.1999816894531,-263.1999816894531,-271.1999816894531,-284,-294.3999938964844,-307.1999816894531]","[3.199981689453125,3.199981689453125,3.199981689453125,3.199981689453125,3.199981689453125,3.199981689453125,3.199981689453125,3.199981689453125,3.199981689453125,3.199981689453125,3.199981689453125,3.199981689453125,3.199981689453125,3.199981689453125,-3.20001220703125,-12,-17.600006103515625,-20.800018310546875,-20.800018310546875,-20.800018310546875,-20.800018310546875,-26.399993896484375,-33.600006103515625,-40,-45.600006103515625,-51.20001220703125,-54.399993896484375,-54.399993896484375,-54.399993896484375,-56.800018310546875,-60,-64,-68,-70.39999389648438,-72,-72,-74.39999389648438,-76,-76,-76.80001831054688]","[0,0,0,0,0,0,0,0,0,0,0,0,0,0,0,0,0,0,0,0,0,0,0,0,0,0,0,0,0,0,0,0,0,0,0,0,0,0,0,0]","[0,0,0,0,0,0,0,0,0,0,0,0,0,0,0,0,0,0,0,0,0,0,0,0,0,0,0,0,0,0,0,0,0,0,0,0,0,0,0,0]","[0,0,0,0,0,0,0,0,0,0,0,0,0,0,0,0,0,0,0,0,0,0,0,0,0,0,0,0,0,0,0,0,0,0,0,0,0,0,0,0]","[0.0005999999977639447,0.015499999999999403,0.032899999998509344,0.04959999999776343,0.06569999999925358,0.07749999999999702,0.09419999999925466,0.11059999999776338,0.12749999999999773,0.14419999999925537,0.1605999999977641,0.17749999999999844,0.19399999999999906,0.21080000000074506,0.23219999999925278,0.2490999999977639,0.2653999999985075,0.2821999999992535,0.2990999999977646,0.3155000000000001,0.3321999999992542,0.3490000000000002,0.36580000000074264,0.3823999999985084,0.3991999999992544,0.4155999999977631,0.432300000000744,0.4490999999977632,0.46569999999925216,0.4821999999992528,0.4986999999992534,0.5158000000007448,0.5320999999977651,0.5489999999999995,0.5658000000007455,0.5825999999977647,0.5990999999977618,0.6153000000007438,0.6269999999999989,0.643699999999253]",,5,0,5,0,1,,,,
,,A000000000,2024-04-16_15h10.59.373,GoFitts,2022.2.4,Win32,59.88023952,,,,,,,,,,,,,,,,,,"[-305.67112522931427,-64.97240338054971]","[285.4829555133128,127.10520096118755]",25.5,625,0,"[-307.1999816894531,-322.3999938964844,-327.1999816894531,-327.1999816894531,-327.1999816894531,-327.1999816894531,-327.1999816894531,-328,-328,-328,-327.1999816894531,-327.1999816894531,-327.1999816894531,-327.1999816894531,-325.6000061035156,-321.6000061035156,-316.79998779296875,-314.3999938964844,-308,-299.1999816894531,-288.79998779296875,-268.79998779296875,-226.39996337890625,-174.39996337890625,-104.79998779296875,4.79998779296875,87.20001220703125,146.4000244140625,202.4000244140625,231.20001220703125,246.4000244140625,252,252,252,252,252,253.60003662109375,254.4000244140625,256.800048828125,258.4000244140625,262.4000244140625,276,285.5999755859375,294.4000244140625,298.4000244140625,300,300.800048828125,300.800048828125,300.800048828125,300.800048828125,300.800048828125,300.800048828125,300.800048828125,300.800048828125,300.800048828125,298.4000244140625,294.4000244140625,288]","[-76.80001831054688,-78.39999389648438,-78.39999389648438,-78.39999389648438,-78.39999389648438,-78.39999389648438,-78.39999389648438,-77.60000610351562,-75.20001220703125,-75.20001220703125,-74.39999389648438,-74.39999389648438,-74.39999389648438,-74.39999389648438,-72.80001831054688,-71.20001220703125,-68.80001831054688,-68,-65.60000610351562,-64,-62.399993896484375,-58.399993896484375,-48,-34.399993896484375,-14.399993896484375,17.600006103515625,41.600006103515625,56.79998779296875,70.39999389648438,75.19998168945312,76,76,76.79998779296875,76.79998779296875,76.79998779296875,78.39999389648438,80.79998779296875,84,87.19998168945312,88,90.39999389648438,98.39999389648438,104.79998779296875,110.39999389648438,116,123.19998168945312,132,135.19998168945312,138.39999389648438,138.39999389648438,138.39999389648438,138.39999389648438,138.39999389648438,138.39999389648438,138.39999389648438,138.39999389648438,136.79998779296875,132.79998779296875]","[0,0,0,0,0,0,0,0,0,0,0,0,0,0,0,0,0,0,0,0,0,0,0,0,0,0,0,0,0,0,0,0,0,0,0,0,0,0,0,0,0,0,0,0,0,0,0,0,0,0,0,0,0,0,0,0,0,0]","[0,0,0,0,0,0,0,0,0,0,0,0,0,0,0,0,0,0,0,0,0,0,0,0,0,0,0,0,0,0,0,0,0,0,0,0,0,0,0,0,0,0,0,0,0,0,0,0,0,0,0,0,0,0,0,0,0,0]","[0,0,0,0,0,0,0,0,0,0,0,0,0,0,0,0,0,0,0,0,0,0,0,0,0,0,0,0,0,0,0,0,0,0,0,0,0,0,0,0,0,0,0,0,0,0,0,0,0,0,0,0,0,0,0,0,0,0]","[0.0010999999977663322,0.02159999999776474,0.03759999999776653,0.05380000000074503,0.0658999999985106,0.08250000000000313,0.0990000000000002,0.11669999999925551,0.13819999999925514,0.15430000000074529,0.1686999999992551,0.1880000000000024,0.19909999999776673,0.2156999999992557,0.23269999999925517,0.25480000000074554,0.27080000000074733,0.2848000000007467,0.30380000000074503,0.32080000000074804,0.3378000000007475,0.35400000000000276,0.37049999999999983,0.3878000000007482,0.4043000000007453,0.42069999999925756,0.43730000000074654,0.4543999999985111,0.4710999999977652,0.48739999999851236,0.5043000000007467,0.5180999999977658,0.5375999999977665,0.553800000000745,0.5705000000000027,0.5826999999992566,0.6043000000007481,0.6213999999985127,0.6373999999985109,0.6538999999985116,0.6708000000007459,0.6870000000000012,0.7038000000007472,0.7205000000000013,0.7378999999985112,0.7541999999992548,0.7715000000000032,0.7881999999992573,0.8048000000007463,0.8210000000000015,0.8325999999977647,0.8493000000007456,0.8656999999992578,0.8821999999992549,0.8988999999985126,0.9198000000007482,0.9366999999992558,0.9485999999977679]",,6,0,6,0,1,,,,
,,A000000000,2024-04-16_15h10.59.373,GoFitts,2022.2.4,Win32,59.88023952,,,,,,,,,,,,,,,,,,"[285.4829555133128,127.10520096118755]","[-252.8178107421711,-183.68289134139783]",25.5,625,0,"[288,278.4000244140625,272.800048828125,270.4000244140625,270.4000244140625,270.4000244140625,272,280,281.5999755859375,281.5999755859375,281.5999755859375,281.5999755859375,281.5999755859375,281.5999755859375,281.5999755859375,281.5999755859375,278.4000244140625,268,258.4000244140625,243.20001220703125,219.20001220703125,198.4000244140625,167.20001220703125,123.20001220703125,67.20001220703125,-5.5999755859375,-88.79998779296875,-134.39996337890625,-158.39996337890625,-172,-177.5999755859375,-177.5999755859375,-177.5999755859375,-177.5999755859375,-177.5999755859375,-177.5999755859375,-177.5999755859375,-180,-187.20001220703125,-192,-194.39996337890625,-196.79998779296875,-198.39996337890625,-217.5999755859375,-243.20001220703125,-255.20001220703125,-257.6000061035156,-257.6000061035156,-257.6000061035156,-252]","[132.79998779296875,124,121.60000610351562,118.39999389648438,118.39999389648438,118.39999389648438,118.39999389648438,123.19998168945312,124.79998779296875,124.79998779296875,124.79998779296875,124.79998779296875,124.79998779296875,124.79998779296875,124.79998779296875,124.79998779296875,121.60000610351562,113.60000610351562,103.19998168945312,84,54.399993896484375,24.79998779296875,-9.600006103515625,-41.600006103515625,-71.20001220703125,-95.20001220703125,-126.4000244140625,-152,-168,-180,-184.79998779296875,-184.79998779296875,-185.60003662109375,-185.60003662109375,-185.60003662109375,-185.60003662109375,-185.60003662109375,-185.60003662109375,-185.60003662109375,-185.60003662109375,-185.60003662109375,-184,-182.4000244140625,-174.4000244140625,-170.4000244140625,-170.4000244140625,-170.4000244140625,-170.4000244140625,-171.20001220703125,-172]","[0,0,0,0,0,0,0,0,0,0,0,0,0,0,0,0,0,0,0,0,0,0,0,0,0,0,0,0,0,0,0,0,0,0,0,0,0,0,0,0,0,0,0,0,0,0,0,0,0,0]","[0,0,0,0,0,0,0,0,0,0,0,0,0,0,0,0,0,0,0,0,0,0,0,0,0,0,0,0,0,0,0,0,0,0,0,0,0,0,0,0,0,0,0,0,0,0,0,0,0,0]","[0,0,0,0,0,0,0,0,0,0,0,0,0,0,0,0,0,0,0,0,0,0,0,0,0,0,0,0,0,0,0,0,0,0,0,0,0,0,0,0,0,0,0,0,0,0,0,0,0,0]","[0.0004999999999988347,0.021399999998511277,0.03300000000000125,0.054699999999254345,0.07109999999776306,0.08280000000074494,0.09959999999776414,0.12119999999925568,0.1383000000007435,0.15509999999776625,0.16619999999925383,0.1833999999985103,0.1999999999999993,0.21630000000074645,0.233199999999254,0.25,0.26659999999776574,0.28789999999850835,0.3045000000000009,0.32109999999776306,0.33830000000074634,0.3543999999985097,0.3711999999992557,0.38819999999925514,0.4048000000007441,0.4211999999992564,0.4373999999985081,0.4541999999992541,0.4658999999985092,0.4828000000007435,0.5045999999977653,0.5206999999992554,0.5343000000007443,0.5541999999992555,0.5658000000007455,0.5824999999999996,0.5991999999992537,0.6158999999985113,0.6378000000007447,0.6553999999985081,0.6721999999992541,0.6875999999977651,0.6993000000007434,0.7208000000007466,0.7376999999992542,0.7541999999992548,0.7719999999999985,0.7881999999992537,0.7994999999999983,0.8204999999999991]",,7,0,7,0,1,,,,
,,A000000000,2024-04-16_15h10.59.373,GoFitts,2022.2.4,Win32,59.88023952,,,,,,,,,,,,,,,,,,"[-252.8178107421711,-183.68289134139783]","[209.1033144871432,232.2327579616857]",25.5,625,0,"[-252,-248.79998779296875,-248.79998779296875,-248.79998779296875,-248.79998779296875,-249.5999755859375,-254.39996337890625,-255.20001220703125,-258.3999938964844,-260,-260,-260,-260,-260,-260,-260,-260,-260,-260,-260,-257.6000061035156,-244.79998779296875,-233.5999755859375,-210.39996337890625,-188.79998779296875,-154.39996337890625,-117.5999755859375,-72,12,59.20001220703125,92.79998779296875,112,134.4000244140625,141.60003662109375,146.4000244140625,148.79998779296875,151.20001220703125,151.20001220703125,152,152,152,152.79998779296875,157.60003662109375,164,183.20001220703125,203.20001220703125,219.20001220703125]","[-172,-172,-172,-172,-172,-173.60003662109375,-175.20001220703125,-176,-178.4000244140625,-178.4000244140625,-178.4000244140625,-178.4000244140625,-178.4000244140625,-178.4000244140625,-178.4000244140625,-178.4000244140625,-178.4000244140625,-178.4000244140625,-178.4000244140625,-178.4000244140625,-176,-164.79998779296875,-158.4000244140625,-139.20001220703125,-121.60003662109375,-90.4000244140625,-63.20001220703125,-25.600006103515625,52.79998779296875,96.79998779296875,120,133.60000610351562,147.19998168945312,152.79998779296875,157.60000610351562,164,172.79998779296875,180.8000030517578,183.1999969482422,183.1999969482422,183.1999969482422,184.8000030517578,188.8000030517578,193.59999084472656,205.59999084472656,217.59999084472656,228.8000030517578]","[0,0,0,0,0,0,0,0,0,0,0,0,0,0,0,0,0,0,0,0,0,0,0,0,0,0,0,0,0,0,0,0,0,0,0,0,0,0,0,0,0,0,0,0,0,0,0]","[0,0,0,0,0,0,0,0,0,0,0,0,0,0,0,0,0,0,0,0,0,0,0,0,0,0,0,0,0,0,0,0,0,0,0,0,0,0,0,0,0,0,0,0,0,0,0]","[0,0,0,0,0,0,0,0,0,0,0,0,0,0,0,0,0,0,0,0,0,0,0,0,0,0,0,0,0,0,0,0,0,0,0,0,0,0,0,0,0,0,0,0,0,0,0]","[0.00029999999701857405,0.01669999999925409,0.033500000000000085,0.044799999997021445,0.06679999999701991,0.07850000000000179,0.10000000000000142,0.11209999999776699,0.12879999999702108,0.1500999999977637,0.1670000000000016,0.17859999999776477,0.19529999999701886,0.21209999999776485,0.22869999999925383,0.24519999999925446,0.26200000000000045,0.27869999999925454,0.29519999999925517,0.31189999999850926,0.3285999999977669,0.34979999999702116,0.3617999999970216,0.383899999998512,0.3998999999985102,0.4166999999992562,0.43349999999999866,0.44989999999851094,0.46709999999776386,0.483199999999254,0.49969999999925463,0.5115999999977667,0.5337999999970187,0.5497999999970204,0.5666999999992548,0.5838999999985113,0.6001999999992549,0.616899999998509,0.6335999999977666,0.6500000000000021,0.6617999999970188,0.6785999999977648,0.6996999999992539,0.716599999997765,0.7334999999999994,0.75,0.7665999999977657]",,8,0,8,0,1,,,,
,,A000000000,2024-04-16_15h10.59.373,GoFitts,2022.2.4,Win32,59.88023952,,,,,,,,,,,,,,,,,,"[209.1033144871432,232.2327579616857]","[-156.25000000000014,-270.632938682637]",25.5,625,0,"[219.20001220703125,227.20001220703125,228,228,228,228,228,228,228,228,228,228,228,228,228,228,226.4000244140625,216.79998779296875,192.79998779296875,158.4000244140625,128.79998779296875,104.79998779296875,83.20001220703125,71.20001220703125,45.60003662109375,20,-9.5999755859375,-40.79998779296875,-77.5999755859375,-104.79998779296875,-123.20001220703125,-133.5999755859375,-137.5999755859375,-139.20001220703125,-140,-140.79998779296875,-140.79998779296875,-140.79998779296875,-143.20001220703125,-146.39996337890625,-150.39996337890625,-151.20001220703125,-151.20001220703125]","[228.8000030517578,235.1999969482422,236,236,236,236,236,236,236,236,236,236,236,236,236,236,232.8000030517578,220,182.39999389648438,115.19998168945312,58.399993896484375,5.600006103515625,-43.20001220703125,-63.20001220703125,-84.79998779296875,-103.20001220703125,-127.20001220703125,-155.20001220703125,-184.79998779296875,-201.60003662109375,-213.60003662109375,-217.60003662109375,-219.20001220703125,-219.20001220703125,-220,-220,-220,-220,-224,-232,-244.79998779296875,-253.60003662109375,-260]","[0,0,0,0,0,0,0,0,0,0,0,0,0,0,0,0,0,0,0,0,0,0,0,0,0,0,0,0,0,0,0,0,0,0,0,0,0,0,0,0,0,0,0]","[0,0,0,0,0,0,0,0,0,0,0,0,0,0,0,0,0,0,0,0,0,0,0,0,0,0,0,0,0,0,0,0,0,0,0,0,0,0,0,0,0,0,0]","[0,0,0,0,0,0,0,0,0,0,0,0,0,0,0,0,0,0,0,0,0,0,0,0,0,0,0,0,0,0,0,0,0,0,0,0,0,0,0,0,0,0,0]","[0.000199999999253464,0.016500000000000625,0.033199999999254715,0.04480000000074469,0.06630000000074432,0.08360000000148915,0.10210000000148867,0.11599999999999966,0.1280000000000001,0.14949999999999974,0.16119999999925483,0.17789999999850892,0.1946000000014898,0.2168999999985104,0.2333000000007459,0.25019999999925346,0.266800000000746,0.27830000000074406,0.29969999999925534,0.31639999999850943,0.33269999999925304,0.34960000000149094,0.3661999999992531,0.3774999999999977,0.3993000000007427,0.41619999999925383,0.4331000000014882,0.4498000000007458,0.4658999999985092,0.48289999999850863,0.49969999999925463,0.5159999999999982,0.5326999999992559,0.549199999999253,0.5666000000014897,0.5833000000007438,0.5998000000007444,0.6163999999985101,0.6280000000000001,0.6493999999985078,0.665699999999255,0.682300000000744,0.6993999999985085]",,9,0,9,0,1,,,,
,,A000000000,2024-04-16_15h10.59.373,GoFitts,2022.2.4,Win32,59.88023952,,,,,,,,,,,,,,,,,,"[-156.25000000000014,-270.632938682637]","[96.56781074217108,297.2051613422355]",25.5,625,0,"[-151.20001220703125,-151.20001220703125,-151.20001220703125,-151.20001220703125,-152.79998779296875,-154.39996337890625,-155.20001220703125,-155.20001220703125,-155.20001220703125,-155.20001220703125,-155.20001220703125,-155.20001220703125,-155.20001220703125,-155.20001220703125,-155.20001220703125,-155.20001220703125,-155.20001220703125,-155.20001220703125,-155.20001220703125,-156,-156,-155.20001220703125,-141.5999755859375,-127.20001220703125,-109.5999755859375,-88,-66.39996337890625,-46.39996337890625,-30.39996337890625,-7.20001220703125,15.20001220703125,40,59.20001220703125,71.20001220703125,80,80.79998779296875,80.79998779296875,80.79998779296875,80,80,80,84,89.60003662109375,95.20001220703125,98.4000244140625,102.4000244140625,104.79998779296875,104]","[-260,-265.60003662109375,-268,-272,-276,-285.60003662109375,-288,-288,-288,-288,-288,-284.79998779296875,-280,-278.4000244140625,-278.4000244140625,-278.4000244140625,-277.60003662109375,-274.4000244140625,-271.20001220703125,-267.20001220703125,-261.60003662109375,-252.79998779296875,-226.4000244140625,-186.4000244140625,-141.60003662109375,-92,-45.600006103515625,-12.800018310546875,17.600006103515625,55.199981689453125,91.19998168945312,126.39999389648438,156,176,192.8000030517578,201.59999084472656,208.8000030517578,214.39999389648438,218.39999389648438,221.59999084472656,231.1999969482422,246.39999389648438,258.3999938964844,268,272,276.8000030517578,280,288.8000030517578]","[0,0,0,0,0,0,0,0,0,0,0,0,0,0,0,0,0,0,0,0,0,0,0,0,0,0,0,0,0,0,0,0,0,0,0,0,0,0,0,0,0,0,0,0,0,0,0,0]","[0,0,0,0,0,0,0,0,0,0,0,0,0,0,0,0,0,0,0,0,0,0,0,0,0,0,0,0,0,0,0,0,0,0,0,0,0,0,0,0,0,0,0,0,0,0,0,0]","[0,0,0,0,0,0,0,0,0,0,0,0,0,0,0,0,0,0,0,0,0,0,0,0,0,0,0,0,0,0,0,0,0,0,0,0,0,0,0,0,0,0,0,0,0,0,0,0]","[0.000199999999253464,0.016500000000000625,0.03260000000149077,0.04930000000074486,0.06569999999925358,0.08300000000000196,0.09940000000223392,0.11640000000223694,0.12780000000074665,0.1448000000007461,0.1615000000000002,0.17840000000223455,0.1996000000014888,0.21619999999925454,0.2325000000000017,0.24460000000149051,0.26110000000149114,0.28290000000223614,0.2991999999992565,0.3158000000007455,0.33240000000223446,0.34430000000074656,0.36610000000149157,0.37740000000223617,0.3943000000007473,0.4164999999999992,0.4331000000014882,0.449300000000747,0.46610000000148943,0.48269999999925517,0.4991999999992558,0.5159000000022331,0.5324000000022338,0.5495000000000019,0.5659000000022374,0.5825000000000031,0.5996999999992525,0.6159999999999997,0.6326000000014886,0.6490000000000009,0.6659000000022388,0.6828000000007464,0.698900000002233,0.715900000002236,0.7273000000007457,0.7494999999999976,0.7661000000014937,0.7824999999999989]",,10,0,10,0,1,,,,
,,A000000000,2024-04-16_15h10.59.373,GoFitts,2022.2.4,Win32,59.88023952,,,,,,,,,,,,,,,,,,"[96.56781074217108,297.2051613422355]","[-32.66514477114195,-310.7880923025854]",25.5,625,0,"[104,101.60003662109375,97.60003662109375,95.20001220703125,92.79998779296875,92.79998779296875,92.79998779296875,92.79998779296875,92.79998779296875,92.79998779296875,92.79998779296875,92.79998779296875,92.79998779296875,92.79998779296875,92.79998779296875,92.79998779296875,92.79998779296875,92.79998779296875,92.79998779296875,88.79998779296875,80,72.79998779296875,67.20001220703125,60,44.79998779296875,38.4000244140625,25.60003662109375,17.60003662109375,4,-4,-19.20001220703125,-25.5999755859375,-36.79998779296875,-39.20001220703125,-40,-40,-40,-40,-40,-40,-40,-39.20001220703125,-37.5999755859375,-36,-32.79998779296875,-28.79998779296875,-24.79998779296875,-24,-23.20001220703125]","[288.8000030517578,296,300.8000030517578,303.1999969482422,305.5999984741211,305.5999984741211,305.5999984741211,305.5999984741211,305.5999984741211,305.5999984741211,305.5999984741211,305.5999984741211,305.5999984741211,305.5999984741211,305.5999984741211,305.5999984741211,304.7999954223633,297.59999084472656,289.59999084472656,264,229.59999084472656,180,124,69.60000610351562,12,-16.800018310546875,-63.20001220703125,-96,-134.4000244140625,-166.4000244140625,-196.79998779296875,-210.4000244140625,-230.4000244140625,-240,-247.20001220703125,-248,-248,-248,-252,-260,-266.4000244140625,-271.20001220703125,-277.60003662109375,-283.20001220703125,-286.4000244140625,-291.20001220703125,-296.79998779296875,-300,-304]","[0,0,0,0,0,0,0,0,0,0,0,0,0,0,0,0,0,0,0,0,0,0,0,0,0,0,0,0,0,0,0,0,0,0,0,0,0,0,0,0,0,0,0,0,0,0,0,0,0]","[0,0,0,0,0,0,0,0,0,0,0,0,0,0,0,0,0,0,0,0,0,0,0,0,0,0,0,0,0,0,0,0,0,0,0,0,0,0,0,0,0,0,0,0,0,0,0,0,0]","[0,0,0,0,0,0,0,0,0,0,0,0,0,0,0,0,0,0,0,0,0,0,0,0,0,0,0,0,0,0,0,0,0,0,0,0,0,0,0,0,0,0,0,0,0,0,0,0,0]","[0.0006000000014907414,0.017700000002982108,0.033900000002240915,0.050600000001495005,0.06640000000223978,0.08580000000074506,0.1004000000022387,0.11640000000223694,0.12810000000149557,0.14480000000074966,0.16170000000298046,0.1783000000007462,0.19490000000223517,0.21180000000074983,0.2284000000022388,0.24500000000000455,0.26190000000223534,0.28380000000074546,0.2992000000029833,0.3162000000029863,0.33280000000074494,0.34940000000224103,0.36590000000223455,0.383100000001491,0.3992000000029847,0.41100000000000136,0.43299999999999983,0.44940000000223534,0.4660000000000011,0.4827000000029855,0.4995000000000047,0.513300000000747,0.5327000000029827,0.5496000000014902,0.5665000000000049,0.5831000000014939,0.5996000000014945,0.6112000000029809,0.6329000000022376,0.6499000000022406,0.6662000000029806,0.6826000000014929,0.6996000000014959,0.715900000002236,0.7334000000022414,0.7492000000029861,0.7673000000007448,0.7828000000007478,0.7994000000022368]",,11,0,11,0,1,,,,
,,A000000000,2024-04-16_15h10.59.373,GoFitts,2022.2.4,Win32,59.88023952,,,,,,,,,,,,,,,,,,"[-32.66514477114195,-310.7880923025854]","[-32.66514477114167,310.7880923025854]",25.5,625,0,"[-23.20001220703125,-23.20001220703125,-23.20001220703125,-25.5999755859375,-25.5999755859375,-25.5999755859375,-25.5999755859375,-25.5999755859375,-25.5999755859375,-25.5999755859375,-26.39996337890625,-27.20001220703125,-27.20001220703125,-29.5999755859375,-29.5999755859375,-28.79998779296875,-24.79998779296875,-23.20001220703125,-23.20001220703125,-32,-41.5999755859375,-56,-69.5999755859375,-79.20001220703125,-81.5999755859375,-81.5999755859375,-81.5999755859375,-80.79998779296875,-80,-80,-80,-80,-80,-80,-80,-80,-80,-68.79998779296875,-51.20001220703125,-27.20001220703125,-19.20001220703125,-17.5999755859375,-17.5999755859375,-18.39996337890625,-20.79998779296875,-21.5999755859375,-22.39996337890625,-25.5999755859375,-28.79998779296875,-31.20001220703125,-33.5999755859375,-35.20001220703125]","[-304,-308.79998779296875,-315.20001220703125,-318.4000244140625,-318.4000244140625,-318.4000244140625,-318.4000244140625,-318.4000244140625,-318.4000244140625,-318.4000244140625,-318.4000244140625,-318.4000244140625,-318.4000244140625,-317.60003662109375,-315.20001220703125,-302.4000244140625,-280.79998779296875,-252.79998779296875,-224.79998779296875,-160,-107.20001220703125,-46.399993896484375,19.199981689453125,92.79998779296875,148.79998779296875,208.8000030517578,236,243.1999969482422,244.8000030517578,244.8000030517578,244.8000030517578,244.8000030517578,244.8000030517578,244.8000030517578,244.8000030517578,244.8000030517578,244.8000030517578,246.39999389648438,249.59999084472656,260,266.3999938964844,267.1999969482422,272.8000030517578,275.1999969482422,278.3999938964844,278.3999938964844,280.8000030517578,284.8000030517578,289.59999084472656,294.3999938964844,296.8000030517578,298.3999938964844]","[0,0,0,0,0,0,0,0,0,0,0,0,0,0,0,0,0,0,0,0,0,0,0,0,0,0,0,0,0,0,0,0,0,0,0,0,0,0,0,0,0,0,0,0,0,0,0,0,0,0,0,0]","[0,0,0,0,0,0,0,0,0,0,0,0,0,0,0,0,0,0,0,0,0,0,0,0,0,0,0,0,0,0,0,0,0,0,0,0,0,0,0,0,0,0,0,0,0,0,0,0,0,0,0,0]","[0,0,0,0,0,0,0,0,0,0,0,0,0,0,0,0,0,0,0,0,0,0,0,0,0,0,0,0,0,0,0,0,0,0,0,0,0,0,0,0,0,0,0,0,0,0,0,0,0,0,0,0]","[0.00039999999851403345,0.01680000000074955,0.033300000000750174,0.05019999999925773,0.06650000000000489,0.08319999999925898,0.09489999999851051,0.11149999999999949,0.12819999999926068,0.14480000000074966,0.1616000000014921,0.18339999999851386,0.19510000000149574,0.21160000000149637,0.2333000000007459,0.24989999999851165,0.26630000000074716,0.2836999999992571,0.2971999999992576,0.3165000000000049,0.33289999999851005,0.3496000000014945,0.3661000000014951,0.3825000000000003,0.3943999999985124,0.41150000000000375,0.4328999999985115,0.4506000000014936,0.4663999999985151,0.48239999999851335,0.4946999999992556,0.5113000000007446,0.5278999999985103,0.5450000000000017,0.5615000000000023,0.5775000000000006,0.5946000000014919,0.6113999999985111,0.6281000000014956,0.6498999999985102,0.6658999999985156,0.677500000000002,0.699699999999261,0.7161999999992545,0.7330000000000041,0.7493000000007513,0.7661999999992588,0.7833000000007502,0.7998000000007508,0.8161000000014909,0.8276999999992611,0.8498999999985131]",,12,0,12,0,1,,,,
,,A000000000,2024-04-16_15h10.59.373,GoFitts,2022.2.4,Win32,59.88023952,,,,,,,,,,,,,,,,,,"[-32.66514477114167,310.7880923025854]","[96.567810742171,-297.2051613422355]",25.5,625,0,"[-35.20001220703125,-35.20001220703125,-35.20001220703125,-35.20001220703125,-35.20001220703125,-35.20001220703125,-35.20001220703125,-36,-36,-36,-36,-36,-36,-36,-36,-36,-39.20001220703125,-41.5999755859375,-41.5999755859375,-38.39996337890625,-17.5999755859375,6.4000244140625,24,40,52.79998779296875,69.60003662109375,80.79998779296875,94.4000244140625,103.20001220703125,104.79998779296875,104.79998779296875,104.79998779296875,104.79998779296875,104.79998779296875,104.79998779296875,104]","[298.3999938964844,298.3999938964844,298.3999938964844,298.3999938964844,298.3999938964844,298.3999938964844,298.3999938964844,299.1999969482422,299.1999969482422,299.1999969482422,299.1999969482422,299.1999969482422,299.1999969482422,299.1999969482422,299.1999969482422,299.1999969482422,292,267.1999969482422,236,184,102.39999389648438,-6.399993896484375,-81.60003662109375,-133.60003662109375,-176.79998779296875,-212.79998779296875,-234.4000244140625,-252.79998779296875,-266.4000244140625,-270.4000244140625,-272.79998779296875,-277.60003662109375,-281.60003662109375,-285.60003662109375,-286.4000244140625,-287.20001220703125]","[0,0,0,0,0,0,0,0,0,0,0,0,0,0,0,0,0,0,0,0,0,0,0,0,0,0,0,0,0,0,0,0,0,0,0,0]","[0,0,0,0,0,0,0,0,0,0,0,0,0,0,0,0,0,0,0,0,0,0,0,0,0,0,0,0,0,0,0,0,0,0,0,0]","[0,0,0,0,0,0,0,0,0,0,0,0,0,0,0,0,0,0,0,0,0,0,0,0,0,0,0,0,0,0,0,0,0,0,0,0]","[0.00039999999851403345,0.016199999999258807,0.027699999999256875,0.044399999998510964,0.06130000000074887,0.07780000000074949,0.0948000000007454,0.11169999999925295,0.13310000000149103,0.1446999999992542,0.16130000000074318,0.1778000000007438,0.19469999999925847,0.21110000000149398,0.2276000000014946,0.24460000000149051,0.26069999999925386,0.28249999999999886,0.29969999999925534,0.31610000000149086,0.33280000000074494,0.34949999999999903,0.3663999999985137,0.38269999999925375,0.39939999999850784,0.41630000000074574,0.43250000000000455,0.44899999999999807,0.4658000000007476,0.48239999999851335,0.498899999998514,0.5158000000007448,0.5326000000014943,0.549100000001495,0.5670000000000002,0.5833999999985124]",,13,0,13,0,1,,,,
,,A000000000,2024-04-16_15h10.59.373,GoFitts,2022.2.4,Win32,59.88023952,,,,,,,,,,,,,,,,,,"[96.567810742171,-297.2051613422355]","[-156.24999999999994,270.6329386826371]",25.5,625,0,"[104,104,104,104,104,102.4000244140625,102.4000244140625,102.4000244140625,101.60003662109375,99.20001220703125,97.60003662109375,95.20001220703125,94.4000244140625,94.4000244140625,94.4000244140625,94.4000244140625,94.4000244140625,94.4000244140625,95.20001220703125,93.60003662109375,88,75.20001220703125,55.20001220703125,17.60003662109375,-40,-88,-128.79998779296875,-163.20001220703125,-167.20001220703125,-168.79998779296875,-169.5999755859375,-169.5999755859375,-169.5999755859375,-169.5999755859375,-169.5999755859375,-169.5999755859375,-168.79998779296875,-168.79998779296875,-168.79998779296875,-168,-164.79998779296875,-158.39996337890625,-151.20001220703125,-140.79998779296875,-140,-140,-140,-140,-140,-140,-141.5999755859375,-142.39996337890625,-142.39996337890625,-142.39996337890625,-142.39996337890625,-143.20001220703125,-150.39996337890625]","[-287.20001220703125,-287.20001220703125,-287.20001220703125,-287.20001220703125,-288,-288,-288,-288,-288,-288.79998779296875,-291.20001220703125,-294.4000244140625,-296,-296,-296,-296,-296,-291.20001220703125,-279.20001220703125,-263.20001220703125,-240,-209.60003662109375,-164.79998779296875,-91.20001220703125,14.399993896484375,85.60000610351562,141.60000610351562,184.8000030517578,191.1999969482422,192.8000030517578,196.8000030517578,202.39999389648438,206.39999389648438,209.59999084472656,211.1999969482422,213.59999084472656,214.39999389648438,215.1999969482422,218.39999389648438,220.8000030517578,227.1999969482422,236,246.39999389648438,265.59999084472656,271.1999969482422,272.8000030517578,272.8000030517578,272.8000030517578,272.8000030517578,272.8000030517578,272.8000030517578,272.8000030517578,272.8000030517578,272.8000030517578,272.8000030517578,272.8000030517578,271.1999969482422]","[0,0,0,0,0,0,0,0,0,0,0,0,0,0,0,0,0,0,0,0,0,0,0,0,0,0,0,0,0,0,0,0,0,0,0,0,0,0,0,0,0,0,0,0,0,0,0,0,0,0,0,0,0,0,0,0,0]","[0,0,0,0,0,0,0,0,0,0,0,0,0,0,0,0,0,0,0,0,0,0,0,0,0,0,0,0,0,0,0,0,0,0,0,0,0,0,0,0,0,0,0,0,0,0,0,0,0,0,0,0,0,0,0,0,0]","[0,0,0,0,0,0,0,0,0,0,0,0,0,0,0,0,0,0,0,0,0,0,0,0,0,0,0,0,0,0,0,0,0,0,0,0,0,0,0,0,0,0,0,0,0,0,0,0,0,0,0,0,0,0,0,0,0]","[0.0009999999999976694,0.014600000001486535,0.027100000001489377,0.04340000000223654,0.06069999999925102,0.08250000000000313,0.09869999999925483,0.11569999999925784,0.12690000000223733,0.1490000000000009,0.16580000000074335,0.18210000000149051,0.19819999999925386,0.2149000000022383,0.22660000000148983,0.2430000000000021,0.2596000000014911,0.2766999999992521,0.298400000002232,0.31440000000223733,0.33149999999999835,0.3483000000007479,0.3649000000022369,0.3814000000022375,0.39799999999999613,0.41499999999999915,0.4316000000014881,0.4479000000022353,0.46430000000074756,0.47660000000148983,0.498199999999251,0.5144000000022331,0.5309999999999988,0.5450000000000017,0.5649999999999977,0.5814999999999984,0.5981000000014873,0.615000000000002,0.6318000000007444,0.6481000000014916,0.6644999999999968,0.6809999999999974,0.6929999999999978,0.7143000000007476,0.7310000000000016,0.748100000001493,0.7646999999992516,0.7759999999999962,0.7928000000007458,0.8099000000022372,0.8265000000000029,0.8486000000014897,0.8651999999992555,0.8766000000014884,0.8929000000022356,0.9099999999999966,0.9314000000022347]",,14,0,14,0,1,,,,
,,A000000000,2024-04-16_15h10.59.373,GoFitts,2022.2.4,Win32,59.88023952,,,,,,,,,,,,,,,,,,,,,,0,,,,,,,,,,,,,0,0,0,1
,,A000000000,2024-04-16_15h10.59.373,GoFitts,2022.2.4,Win32,59.88023952,,,,,,,,,,,,,,,,return,1.2907,"[40.79998779296875,33.600006103515625]","[108.1559480312316,332.8697807033037]",20,700,1,"[40.79998779296875,40.79998779296875,40.79998779296875,40.79998779296875,40.79998779296875,40.79998779296875,40.79998779296875,40.79998779296875,40.79998779296875,42.4000244140625,43.20001220703125,43.20001220703125,43.20001220703125,43.20001220703125,43.20001220703125,43.20001220703125,43.20001220703125,43.20001220703125,43.20001220703125,43.20001220703125,43.20001220703125,43.20001220703125,39.20001220703125,39.20001220703125,40,42.4000244140625,43.20001220703125,40.79998779296875,40.79998779296875,40.79998779296875,40.79998779296875,42.4000244140625,44,45.60003662109375,45.60003662109375,45.60003662109375,45.60003662109375,41.60003662109375,34.4000244140625,30.4000244140625,30.4000244140625,30.4000244140625,30.4000244140625,30.4000244140625,30.4000244140625,30.4000244140625,32,44,50.4000244140625,57.60003662109375,64.79998779296875,69.60003662109375,72,72,72,72,73.60003662109375,75.20001220703125,77.60003662109375,80.79998779296875,80.79998779296875,80.79998779296875,80.79998779296875,83.20001220703125,86.4000244140625,100.79998779296875,108.79998779296875]","[33.600006103515625,33.600006103515625,33.600006103515625,33.600006103515625,33.600006103515625,33.600006103515625,33.600006103515625,33.600006103515625,33.600006103515625,32,30.399993896484375,30.399993896484375,30.399993896484375,30.399993896484375,30.399993896484375,30.399993896484375,30.399993896484375,30.399993896484375,30.399993896484375,30.399993896484375,30.399993896484375,28.79998779296875,28.79998779296875,29.600006103515625,32.79998779296875,38.399993896484375,40,40.79998779296875,40.79998779296875,40.79998779296875,41.600006103515625,49.600006103515625,56,72.79998779296875,88.79998779296875,120,153.60000610351562,203.1999969482422,244,279.1999969482422,302.3999938964844,316.7999954223633,317.5999984741211,317.5999984741211,317.5999984741211,318.4000015258789,318.4000015258789,319.1999969482422,320.7999954223633,322.4000015258789,326.4000015258789,328,328,328,328,328,328,328,328,328.7999954223633,328.7999954223633,328.7999954223633,328.7999954223633,328.7999954223633,328,324,323.1999969482422]","[0,0,0,0,0,0,0,0,0,0,0,0,0,0,0,0,0,0,0,0,0,0,0,0,0,0,0,0,0,0,0,0,0,0,0,0,0,0,0,0,0,0,0,0,0,0,0,0,0,0,0,0,0,0,0,0,0,0,0,0,0,0,0,0,0,0,0]","[0,0,0,0,0,0,0,0,0,0,0,0,0,0,0,0,0,0,0,0,0,0,0,0,0,0,0,0,0,0,0,0,0,0,0,0,0,0,0,0,0,0,0,0,0,0,0,0,0,0,0,0,0,0,0,0,0,0,0,0,0,0,0,0,0,0,0]","[0,0,0,0,0,0,0,0,0,0,0,0,0,0,0,0,0,0,0,0,0,0,0,0,0,0,0,0,0,0,0,0,0,0,0,0,0,0,0,0,0,0,0,0,0,0,0,0,0,0,0,0,0,0,0,0,0,0,0,0,0,0,0,0,0,0,0]","[0.003399999998514147,0.02059999999776352,0.03139999999851284,0.047899999998513465,0.06469999999925591,0.08139999999851,0.10269999999925972,0.11469999999925307,0.13150000000000261,0.14809999999776835,0.17039999999850863,0.1844999999999999,0.1980999999977655,0.2150000000000034,0.23159999999776915,0.24800000000000466,0.26950000000000074,0.28130000000074773,0.29789999999851347,0.31459999999776755,0.33139999999851,0.34819999999925955,0.3703999999985115,0.3873999999985145,0.40380000000075,0.4205999999977692,0.43630000000074887,0.45269999999925403,0.4695000000000036,0.4811999999992551,0.49769999999925574,0.5193999999985124,0.5309999999999988,0.5528000000007438,0.5705000000000027,0.5856999999992567,0.6041999999992598,0.6195000000000022,0.6361999999992562,0.65230000000075,0.6693000000007459,0.6858999999985116,0.7028999999985146,0.7193999999985081,0.7308000000007482,0.7480999999977698,0.7695999999977658,0.7858000000007479,0.8021999999992531,0.8163999999985094,0.8370000000000033,0.8525999999977643,0.8690999999977649,0.8810999999977653,0.9025999999977685,0.9143999999985084,0.9358999999985116,0.9476999999992586,0.9695000000000036,0.9860999999977693,1.0023000000007443,1.0143000000007447,1.035899999998513,1.0520999999977647,1.0663999999985094,1.085800000000745,1.1024999999999991]",,0,0,0,0,1,,,,
,,A000000000,2024-04-16_15h10.59.373,GoFitts,2022.2.4,Win32,59.88023952,,,,,,,,,,,,,,,,,,"[108.1559480312316,332.8697807033037]","[-36.58496214367898,-348.08266337889563]",20,700,1,"[108.79998779296875,112,112,112,112.79998779296875,110.4000244140625,110.4000244140625,110.4000244140625,110.4000244140625,110.4000244140625,110.4000244140625,110.4000244140625,110.4000244140625,110.4000244140625,110.4000244140625,110.4000244140625,110.4000244140625,110.4000244140625,110.4000244140625,110.4000244140625,110.4000244140625,108,104.79998779296875,100.79998779296875,100.79998779296875,100.79998779296875,100.79998779296875,100.79998779296875,100.79998779296875,100.79998779296875,96.79998779296875,92.79998779296875,82.4000244140625,72.79998779296875,62.4000244140625,46.4000244140625,32,13.60003662109375,1.60003662109375,-7.20001220703125,-16.79998779296875,-22.39996337890625,-25.5999755859375,-29.5999755859375,-32.79998779296875,-34.39996337890625,-36,-36,-36,-36,-36,-36,-37.5999755859375,-40,-45.5999755859375,-48,-52.79998779296875,-53.5999755859375,-53.5999755859375,-53.5999755859375,-53.5999755859375,-53.5999755859375,-51.20001220703125,-44,-32.79998779296875,-19.20001220703125,-12.79998779296875,-9.5999755859375,-9.5999755859375,-9.5999755859375,-9.5999755859375,-9.5999755859375,-10.39996337890625,-11.20001220703125,-13.5999755859375,-14.39996337890625,-17.5999755859375,-19.20001220703125,-24.79998779296875,-28,-28.79998779296875,-28.79998779296875,-28.79998779296875,-28.79998779296875,-28.79998779296875,-28.79998779296875,-29.5999755859375,-29.5999755859375,-31.20001220703125]","[323.1999969482422,323.1999969482422,323.1999969482422,323.1999969482422,327.1999969482422,329.5999984741211,329.5999984741211,329.5999984741211,329.5999984741211,329.5999984741211,329.5999984741211,329.5999984741211,329.5999984741211,329.5999984741211,329.5999984741211,329.5999984741211,329.5999984741211,329.5999984741211,329.5999984741211,329.5999984741211,329.5999984741211,322.4000015258789,307.1999969482422,284,252,216,186.39999389648438,145.60000610351562,108,70.39999389648438,48,28.79998779296875,-3.20001220703125,-22.399993896484375,-38.399993896484375,-60,-80.79998779296875,-112,-130.4000244140625,-144.79998779296875,-168.79998779296875,-192.79998779296875,-209.60003662109375,-222.4000244140625,-236,-244,-248,-258.4000244140625,-263.20001220703125,-275.20001220703125,-280.79998779296875,-286.4000244140625,-291.20001220703125,-296.79998779296875,-304,-308.79998779296875,-319.20001220703125,-331.20001220703125,-336.79998779296875,-337.60003662109375,-337.60003662109375,-338.4000244140625,-338.4000244140625,-335.20001220703125,-332.79998779296875,-332.79998779296875,-332.79998779296875,-332.79998779296875,-332.79998779296875,-332.79998779296875,-332.79998779296875,-333.60003662109375,-333.60003662109375,-333.60003662109375,-332.79998779296875,-332.79998779296875,-332.79998779296875,-331.20001220703125,-332,-335.20001220703125,-336.79998779296875,-336.79998779296875,-336.79998779296875,-336.79998779296875,-336.79998779296875,-336.79998779296875,-337.60003662109375,-338.4000244140625,-340]","[0,0,0,0,0,0,0,0,0,0,0,0,0,0,0,0,0,0,0,0,0,0,0,0,0,0,0,0,0,0,0,0,0,0,0,0,0,0,0,0,0,0,0,0,0,0,0,0,0,0,0,0,0,0,0,0,0,0,0,0,0,0,0,0,0,0,0,0,0,0,0,0,0,0,0,0,0,0,0,0,0,0,0,0,0,0,0,0,0]","[0,0,0,0,0,0,0,0,0,0,0,0,0,0,0,0,0,0,0,0,0,0,0,0,0,0,0,0,0,0,0,0,0,0,0,0,0,0,0,0,0,0,0,0,0,0,0,0,0,0,0,0,0,0,0,0,0,0,0,0,0,0,0,0,0,0,0,0,0,0,0,0,0,0,0,0,0,0,0,0,0,0,0,0,0,0,0,0,0]","[0,0,0,0,0,0,0,0,0,0,0,0,0,0,0,0,0,0,0,0,0,0,0,0,0,0,0,0,0,0,0,0,0,0,0,0,0,0,0,0,0,0,0,0,0,0,0,0,0,0,0,0,0,0,0,0,0,0,0,0,0,0,0,0,0,0,0,0,0,0,0,0,0,0,0,0,0,0,0,0,0,0,0,0,0,0,0,0,0]","[0.000399999998506928,0.016199999999251702,0.032999999999994145,0.044899999998506246,0.06180000000074415,0.08289999999851005,0.0948999999985034,0.11149999999999949,0.12780000000073954,0.1446000000014891,0.161600000001485,0.17819999999925074,0.19469999999925136,0.2114999999999938,0.2281000000014899,0.24930000000074415,0.26119999999924914,0.27819999999925216,0.29510000000149006,0.3116999999992487,0.3283000000007448,0.34499999999999886,0.366100000001488,0.3828999999985072,0.39939999999850784,0.41639999999850374,0.42769999999924835,0.44439999999850954,0.4614999999999938,0.478199999999255,0.4943999999985067,0.511100000001484,0.5329999999999941,0.549199999999253,0.5608000000007394,0.5778000000007424,0.594300000000743,0.6158999999985042,0.6326000000014886,0.6441999999992518,0.6664999999999992,0.6826999999992509,0.6991999999992515,0.7113000000007403,0.7339999999999947,0.7494999999999976,0.7609999999999957,0.7828000000007407,0.7943000000007387,0.8158000000007419,0.8328000000007449,0.849499999999999,0.866100000001488,0.8826000000014886,0.8988999999985055,0.9108999999985059,0.9331000000014882,0.949399999998505,0.965600000001487,0.9826000000014901,0.9989999999999952,1.0161000000014866,1.0326999999992523,1.0493000000007413,1.0661999999992489,1.08289999999851,1.093999999999994,1.116100000001488,1.1326000000014886,1.1439999999999984,1.1611000000014897,1.177899999998509,1.1993000000007399,1.2113000000007403,1.2326999999992552,1.2493999999985093,1.2659999999999982,1.2826999999992523,1.2993000000007413,1.3159999999999954,1.332800000000745,1.3493000000007385,1.3608999999985087,1.3771999999992488,1.3999999999999986,1.4106999999992524,1.427199999999253,1.444199999999249,1.4608999999985102]",,1,0,1,0,1,,,,
,,A000000000,2024-04-16_15h10.59.373,GoFitts,2022.2.4,Win32,59.88023952,,,,,,,,,,,,,,,,,,"[-36.58496214367898,-348.08266337889563]","[-36.584962143678666,348.0826633788957]",20,700,1,"[-31.20001220703125,-31.20001220703125,-34.39996337890625,-37.5999755859375,-40,-41.5999755859375,-41.5999755859375,-41.5999755859375,-41.5999755859375,-41.5999755859375,-41.5999755859375,-41.5999755859375,-41.5999755859375,-41.5999755859375,-41.5999755859375,-41.5999755859375,-41.5999755859375,-41.5999755859375,-41.5999755859375,-41.5999755859375,-41.5999755859375,-41.5999755859375,-41.5999755859375,-41.5999755859375,-41.5999755859375,-41.5999755859375,-41.5999755859375,-41.5999755859375,-41.5999755859375,-41.5999755859375,-41.5999755859375,-41.5999755859375,-41.5999755859375,-41.5999755859375,-41.5999755859375,-41.5999755859375,-41.5999755859375,-41.5999755859375,-41.5999755859375,-41.5999755859375,-41.5999755859375,-41.5999755859375,-42.39996337890625,-42.39996337890625,-42.39996337890625,-41.5999755859375,-30.39996337890625,-24,-22.39996337890625,-19.20001220703125,-19.20001220703125,-18.39996337890625,-16,-12.79998779296875,-12,-9.5999755859375,-9.5999755859375,-9.5999755859375,-7.20001220703125,-7.20001220703125,-6.39996337890625,-6.39996337890625,-8.79998779296875,-10.39996337890625,-12,-16,-24.79998779296875,-28.79998779296875,-36.79998779296875,-39.20001220703125,-40,-40,-40,-40,-40,-40,-40,-40,-40,-40]","[-340,-341.60003662109375,-344,-345.60003662109375,-347.20001220703125,-347.20001220703125,-347.20001220703125,-347.20001220703125,-347.20001220703125,-347.20001220703125,-347.20001220703125,-347.20001220703125,-347.20001220703125,-347.20001220703125,-347.20001220703125,-347.20001220703125,-347.20001220703125,-347.20001220703125,-347.20001220703125,-347.20001220703125,-347.20001220703125,-347.20001220703125,-347.20001220703125,-347.20001220703125,-347.20001220703125,-347.20001220703125,-347.20001220703125,-347.20001220703125,-347.20001220703125,-347.20001220703125,-347.20001220703125,-347.20001220703125,-347.20001220703125,-347.20001220703125,-347.20001220703125,-347.20001220703125,-347.20001220703125,-347.20001220703125,-347.20001220703125,-347.20001220703125,-347.20001220703125,-344,-320,-289.60003662109375,-246.4000244140625,-183.20001220703125,-123.20001220703125,-46.399993896484375,31.199981689453125,95.19998168945312,152,181.59999084472656,200,210.39999389648438,215.1999969482422,222.39999389648438,223.1999969482422,224.8000030517578,227.1999969482422,228.8000030517578,231.1999969482422,233.59999084472656,240.8000030517578,244.8000030517578,250.39999389648438,256,275.1999969482422,284.8000030517578,315.1999969482422,328.7999954223633,330.4000015258789,330.4000015258789,330.4000015258789,330.4000015258789,330.4000015258789,330.4000015258789,330.4000015258789,331.1999969482422,336.7999954223633,340.7999954223633]","[0,0,0,0,0,0,0,0,0,0,0,0,0,0,0,0,0,0,0,0,0,0,0,0,0,0,0,0,0,0,0,0,0,0,0,0,0,0,0,0,0,0,0,0,0,0,0,0,0,0,0,0,0,0,0,0,0,0,0,0,0,0,0,0,0,0,0,0,0,0,0,0,0,0,0,0,0,0,0,0]","[0,0,0,0,0,0,0,0,0,0,0,0,0,0,0,0,0,0,0,0,0,0,0,0,0,0,0,0,0,0,0,0,0,0,0,0,0,0,0,0,0,0,0,0,0,0,0,0,0,0,0,0,0,0,0,0,0,0,0,0,0,0,0,0,0,0,0,0,0,0,0,0,0,0,0,0,0,0,0,0]","[0,0,0,0,0,0,0,0,0,0,0,0,0,0,0,0,0,0,0,0,0,0,0,0,0,0,0,0,0,0,0,0,0,0,0,0,0,0,0,0,0,0,0,0,0,0,0,0,0,0,0,0,0,0,0,0,0,0,0,0,0,0,0,0,0,0,0,0,0,0,0,0,0,0,0,0,0,0,0,0]","[0.000300000000741818,0.021400000002238073,0.037600000001489775,0.054300000000743864,0.0668000000007467,0.08849999999999625,0.10460000000148995,0.1158000000007462,0.13250000000000028,0.1495000000000033,0.17180000000074358,0.18280000000074637,0.19940000000223534,0.22099999999999653,0.23290000000223188,0.24960000000149307,0.27190000000223336,0.2828000000007478,0.3051999999992532,0.3216000000014887,0.3386000000014917,0.3496999999992525,0.3718000000007464,0.3885000000000005,0.39990000000223347,0.42140000000223665,0.43840000000223256,0.4546999999992565,0.4716999999992524,0.4884000000022368,0.49980000000074654,0.521800000000745,0.5374000000022363,0.549199999999253,0.5659000000022374,0.5826000000014915,0.5993000000007456,0.6163000000007415,0.6330000000000027,0.6496000000014917,0.6655000000000015,0.682300000000744,0.7038000000007472,0.7206000000014896,0.737400000002232,0.7539999999999978,0.7701999999992566,0.7871000000014874,0.8014999999999972,0.8209000000022328,0.8371999999992568,0.8539999999999992,0.8709000000022371,0.8874000000022377,0.8994000000022382,0.9204000000022319,0.9375,0.954100000001489,0.971100000001492,0.987400000002232,1.0041000000014932,1.0209000000022357,1.036999999999999,1.0541000000014904,1.0714000000022352,1.0874000000022335,1.1039999999999992,1.1154999999999973,1.1374000000022377,1.1578000000007478,1.1716999999992552,1.187400000002235,1.198999999999998,1.2153000000007452,1.2323000000007482,1.2491000000014907,1.2659999999999982,1.2829000000022361,1.305400000002237,1.3201999999992537]",,2,0,2,0,1,,,,
,,A000000000,2024-04-16_15h10.59.373,GoFitts,2022.2.4,Win32,59.88023952,,,,,,,,,,,,,,,,,,"[-36.584962143678666,348.0826633788957]","[108.15594803123153,-332.8697807033038]",20,700,1,"[-40,-40,-39.20001220703125,-39.20001220703125,-39.20001220703125,-40,-42.39996337890625,-43.20001220703125,-43.20001220703125,-43.20001220703125,-43.20001220703125,-43.20001220703125,-43.20001220703125,-43.20001220703125,-43.20001220703125,-43.20001220703125,-43.20001220703125,-40.79998779296875,-34.39996337890625,-23.20001220703125,-11.20001220703125,4,25.60003662109375,39.20001220703125,51.20001220703125,59.20001220703125,67.20001220703125,73.60003662109375,82.4000244140625,90.4000244140625,97.60003662109375,108.79998779296875,112,117.60003662109375,122.4000244140625,125.60003662109375,128.79998779296875,130.4000244140625,130.4000244140625,130.4000244140625,130.4000244140625,130.4000244140625,130.4000244140625,128.79998779296875,127.20001220703125,125.60003662109375,122.4000244140625,117.60003662109375,116.79998779296875,111.20001220703125,110.4000244140625,109.60003662109375,108.79998779296875,108.79998779296875,108.79998779296875,108.79998779296875]","[340.7999954223633,342.4000015258789,344.7999954223633,346.4000015258789,348,350.4000015258789,352.7999954223633,353.5999984741211,353.5999984741211,353.5999984741211,353.5999984741211,353.5999984741211,353.5999984741211,353.5999984741211,353.5999984741211,353.5999984741211,353.5999984741211,341.5999984741211,320,272.8000030517578,233.59999084472656,176.8000030517578,100.79998779296875,45.600006103515625,2.399993896484375,-33.600006103515625,-67.20001220703125,-89.60003662109375,-125.60003662109375,-155.20001220703125,-183.20001220703125,-222.4000244140625,-239.20001220703125,-256,-268.79998779296875,-275.20001220703125,-283.20001220703125,-287.20001220703125,-289.60003662109375,-291.20001220703125,-291.20001220703125,-290.4000244140625,-290.4000244140625,-290.4000244140625,-290.4000244140625,-290.4000244140625,-294.4000244140625,-300.79998779296875,-304,-310.4000244140625,-312,-316.79998779296875,-319.20001220703125,-320,-322.4000244140625,-324]","[0,0,0,0,0,0,0,0,0,0,0,0,0,0,0,0,0,0,0,0,0,0,0,0,0,0,0,0,0,0,0,0,0,0,0,0,0,0,0,0,0,0,0,0,0,0,0,0,0,0,0,0,0,0,0,0]","[0,0,0,0,0,0,0,0,0,0,0,0,0,0,0,0,0,0,0,0,0,0,0,0,0,0,0,0,0,0,0,0,0,0,0,0,0,0,0,0,0,0,0,0,0,0,0,0,0,0,0,0,0,0,0,0]","[0,0,0,0,0,0,0,0,0,0,0,0,0,0,0,0,0,0,0,0,0,0,0,0,0,0,0,0,0,0,0,0,0,0,0,0,0,0,0,0,0,0,0,0,0,0,0,0,0,0,0,0,0,0,0,0]","[0.00040000000223017196,0.016900000002230797,0.03340000000223142,0.04969999999925534,0.0668000000007396,0.08330000000074023,0.10040000000223159,0.11669999999925551,0.1341000000014887,0.15090000000223114,0.16199999999999903,0.18369999999924858,0.1953000000007421,0.2171999999992522,0.2338000000007412,0.24490000000223233,0.2616000000014864,0.27810000000148705,0.29510000000149006,0.31660000000148614,0.33310000000148676,0.3501999999992549,0.3666999999992555,0.38299999999999557,0.3999999999999986,0.41660000000148756,0.4331000000014882,0.44940000000223534,0.4666000000014847,0.4833000000007388,0.5,0.5198000000007426,0.5334999999999965,0.5496000000014902,0.5666000000014861,0.5781000000014842,0.5994000000022339,0.6161999999992531,0.6329999999999956,0.6496000000014845,0.6664999999999992,0.6836000000014906,0.6995000000000005,0.7114999999999938,0.7331999999992505,0.744800000000744,0.7659000000022331,0.7829999999999941,0.7946000000014877,0.8161999999992489,0.8286999999992517,0.8499999999999943,0.8663000000007415,0.8776000000014861,0.8948000000007426,0.9163000000007386]",,3,0,3,0,1,,,,
,,A000000000,2024-04-16_15h10.59.373,GoFitts,2022.2.4,Win32,59.88023952,,,,,,,,,,,,,,,,,,"[108.15594803123153,-332.8697807033038]","[-174.99999999999991,303.10889132455355]",20,700,1,"[108.79998779296875,107.20001220703125,107.20001220703125,107.20001220703125,107.20001220703125,107.20001220703125,107.20001220703125,107.20001220703125,107.20001220703125,107.20001220703125,107.20001220703125,107.20001220703125,107.20001220703125,107.20001220703125,107.20001220703125,107.20001220703125,106.4000244140625,105.60003662109375,104,96.79998779296875,88.79998779296875,76,56,31.20001220703125,11.20001220703125,-5.5999755859375,-19.20001220703125,-36,-52.79998779296875,-69.5999755859375,-79.20001220703125,-83.20001220703125,-85.5999755859375,-85.5999755859375,-88,-89.5999755859375,-91.20001220703125,-94.39996337890625,-96,-99.20001220703125,-102.39996337890625,-106.39996337890625,-109.5999755859375,-116,-124.79998779296875,-132.79998779296875,-139.20001220703125,-139.20001220703125,-139.20001220703125,-141.5999755859375,-146.39996337890625,-148,-150.39996337890625,-151.20001220703125,-153.5999755859375,-153.5999755859375,-156,-159.20001220703125,-163.20001220703125,-171.20001220703125]","[-324,-325.60003662109375,-325.60003662109375,-325.60003662109375,-325.60003662109375,-326.4000244140625,-327.20001220703125,-328,-328,-328,-328,-328,-328,-328,-328,-327.20001220703125,-324.79998779296875,-316.79998779296875,-312.79998779296875,-289.60003662109375,-257.60003662109375,-220,-169.60003662109375,-108.79998779296875,-47.20001220703125,18.399993896484375,64,104,135.19998168945312,172.79998779296875,196,211.1999969482422,222.39999389648438,227.1999969482422,233.59999084472656,237.59999084472656,243.1999969482422,247.1999969482422,251.1999969482422,255.1999969482422,259.1999969482422,260.8000030517578,263.1999969482422,266.3999938964844,268,269.59999084472656,271.1999969482422,271.1999969482422,271.1999969482422,272.8000030517578,279.1999969482422,282.3999938964844,284.8000030517578,286.3999938964844,288.8000030517578,290.3999938964844,295.1999969482422,299.1999969482422,303.1999969482422,304.7999954223633]","[0,0,0,0,0,0,0,0,0,0,0,0,0,0,0,0,0,0,0,0,0,0,0,0,0,0,0,0,0,0,0,0,0,0,0,0,0,0,0,0,0,0,0,0,0,0,0,0,0,0,0,0,0,0,0,0,0,0,0,0]","[0,0,0,0,0,0,0,0,0,0,0,0,0,0,0,0,0,0,0,0,0,0,0,0,0,0,0,0,0,0,0,0,0,0,0,0,0,0,0,0,0,0,0,0,0,0,0,0,0,0,0,0,0,0,0,0,0,0,0,0]","[0,0,0,0,0,0,0,0,0,0,0,0,0,0,0,0,0,0,0,0,0,0,0,0,0,0,0,0,0,0,0,0,0,0,0,0,0,0,0,0,0,0,0,0,0,0,0,0,0,0,0,0,0,0,0,0,0,0,0,0]","[0.0004000000022372774,0.01660000000148898,0.033700000002980346,0.044900000002236595,0.061600000001490685,0.07830000000074477,0.09949999999999903,0.11599999999999966,0.127900000002235,0.14940000000223108,0.1608000000007479,0.18310000000148818,0.1944999999999979,0.21590000000223597,0.22740000000223404,0.24890000000223722,0.26140000000223296,0.2827000000029827,0.29399999999999693,0.3164000000022327,0.33280000000074494,0.34890000000223154,0.36640000000223694,0.38260000000148864,0.39960000000149165,0.4164000000022341,0.4337000000029789,0.4492000000029819,0.46610000000148943,0.48260000000149006,0.49920000000297904,0.5158000000007448,0.5326000000014872,0.550200000002981,0.5656000000014885,0.5828000000007449,0.599499999999999,0.6162000000029764,0.6326000000014886,0.6492000000029776,0.66710000000149,0.6833000000007416,0.6989999999999981,0.7158000000007476,0.7327000000029784,0.7483000000007465,0.766200000002982,0.7824000000022338,0.7942000000029807,0.8111000000014883,0.8326000000014915,0.8439000000022361,0.865000000000002,0.8777000000029815,0.8992000000029776,0.9158000000007434,0.9324999999999974,0.9491000000014864,0.9658000000007476,0.9824000000022366]",,4,0,4,0,1,,,,
,,A000000000,2024-04-16_15h10.59.373,GoFitts,2022.2.4,Win32,59.88023952,,,,,,,,,,,,,,,,,,"[-174.99999999999991,303.10889132455355]","[234.19571222560046,-260.1006889170879]",20,700,1,"[-171.20001220703125,-186.39996337890625,-196,-211.20001220703125,-213.5999755859375,-213.5999755859375,-213.5999755859375,-213.5999755859375,-209.5999755859375,-204,-202.39996337890625,-202.39996337890625,-202.39996337890625,-202.39996337890625,-200.79998779296875,-192,-184,-175.20001220703125,-169.5999755859375,-168.79998779296875,-168.79998779296875,-168.79998779296875,-168.79998779296875,-168.79998779296875,-168.79998779296875,-168.79998779296875,-168,-167.20001220703125,-164.79998779296875,-156.79998779296875,-143.20001220703125,-112,-69.5999755859375,-15.20001220703125,59.20001220703125,115.20001220703125,159.20001220703125,198.4000244140625,228.79998779296875,250.4000244140625,255.20001220703125,257.5999755859375,259.2000732421875,262.4000244140625,264,264.800048828125,264.800048828125,264.800048828125,264.800048828125,264.800048828125,263.2000732421875,257.5999755859375,255.20001220703125,253.60003662109375,252.79998779296875,252.79998779296875,252.79998779296875,252.79998779296875,252.79998779296875,252.79998779296875,252.79998779296875,251.20001220703125,249.60003662109375,248.79998779296875,247.20001220703125,244.79998779296875,241.60003662109375]","[304.7999954223633,308,308.7999954223633,308.7999954223633,308.7999954223633,308.7999954223633,308.7999954223633,308.7999954223633,304.7999954223633,301.59999084472656,300.8000030517578,300.8000030517578,300.8000030517578,300.8000030517578,300,300,301.59999084472656,303.1999969482422,304,304,304,304,304,304,304,304,304,297.59999084472656,292,278.3999938964844,260,219.1999969482422,170.39999389648438,109.60000610351562,27.199981689453125,-37.600006103515625,-87.20001220703125,-121.60003662109375,-143.20001220703125,-157.60003662109375,-163.20001220703125,-168,-174.4000244140625,-184.79998779296875,-193.60003662109375,-200,-205.60003662109375,-211.20001220703125,-217.60003662109375,-227.20001220703125,-236,-256,-264.79998779296875,-268.79998779296875,-269.60003662109375,-269.60003662109375,-269.60003662109375,-269.60003662109375,-269.60003662109375,-269.60003662109375,-269.60003662109375,-269.60003662109375,-269.60003662109375,-269.60003662109375,-268.79998779296875,-267.20001220703125,-265.60003662109375]","[0,0,0,0,0,0,0,0,0,0,0,0,0,0,0,0,0,0,0,0,0,0,0,0,0,0,0,0,0,0,0,0,0,0,0,0,0,0,0,0,0,0,0,0,0,0,0,0,0,0,0,0,0,0,0,0,0,0,0,0,0,0,0,0,0,0,0]","[0,0,0,0,0,0,0,0,0,0,0,0,0,0,0,0,0,0,0,0,0,0,0,0,0,0,0,0,0,0,0,0,0,0,0,0,0,0,0,0,0,0,0,0,0,0,0,0,0,0,0,0,0,0,0,0,0,0,0,0,0,0,0,0,0,0,0]","[0,0,0,0,0,0,0,0,0,0,0,0,0,0,0,0,0,0,0,0,0,0,0,0,0,0,0,0,0,0,0,0,0,0,0,0,0,0,0,0,0,0,0,0,0,0,0,0,0,0,0,0,0,0,0,0,0,0,0,0,0,0,0,0,0,0,0]","[0.000399999998506928,0.01630000000074716,0.028300000000747616,0.04960000000149023,0.06649999999999778,0.07819999999925642,0.10000000000000142,0.11689999999850897,0.1328999999985072,0.15060000000148932,0.16749999999999687,0.18380000000074403,0.19519999999925375,0.2168999999985104,0.23369999999925284,0.24930000000074415,0.2658000000007448,0.27780000000074523,0.2950000000000017,0.3160000000000025,0.33310000000148676,0.34469999999925705,0.36119999999925767,0.3776999999992512,0.39450000000000074,0.41119999999925483,0.4283999999985113,0.4498999999985074,0.4611000000014869,0.48289999999850863,0.4996999999992511,0.5161000000014866,0.5326000000014872,0.5493999999985064,0.566199999999256,0.5826999999992566,0.6003000000007432,0.6161999999992531,0.6328000000007421,0.6496000000014917,0.6661999999992574,0.6826000000014929,0.6995000000000005,0.7161000000014894,0.7328000000007435,0.7494999999999976,0.7658999999985099,0.7826999999992523,0.7993000000007413,0.8160000000000025,0.8281000000014913,0.8483999999985059,0.8658000000007462,0.8828000000007421,0.8994999999999962,0.9159999999999968,0.9328000000007464,0.9444999999999979,0.9609999999999985,0.9778999999985061,0.9941999999992532,1.0116999999992515,1.033699999999257,1.0450000000000017,1.0671000000014885,1.0833999999985124,1.0993999999985107]",,5,0,5,0,1,,,,
,,A000000000,2024-04-16_15h10.59.373,GoFitts,2022.2.4,Win32,59.88023952,,,,,,,,,,,,,,,,,,"[234.19571222560046,-260.1006889170879]","[-283.15594803123156,205.72483830236564]",20,700,1,"[241.60003662109375,237.60003662109375,236,236,236,236,236,236,236,236,236,236,236,236,236,236,236,236.79998779296875,233.60003662109375,231.20001220703125,218.4000244140625,205.60003662109375,160.79998779296875,98.4000244140625,27.20001220703125,-49.5999755859375,-139.20001220703125,-193.5999755859375,-221.5999755859375,-224.79998779296875,-224.79998779296875,-224.79998779296875,-224.79998779296875,-224.79998779296875,-224.79998779296875,-224.79998779296875,-224.79998779296875,-224.79998779296875,-224.79998779296875,-224.79998779296875,-227.20001220703125,-234.39996337890625,-241.5999755859375,-248.79998779296875,-256.79998779296875,-265.6000061035156,-274.3999938964844]","[-265.60003662109375,-262.4000244140625,-260.79998779296875,-260.79998779296875,-260.79998779296875,-260.79998779296875,-260.79998779296875,-260.79998779296875,-260.79998779296875,-259.20001220703125,-259.20001220703125,-259.20001220703125,-259.20001220703125,-259.20001220703125,-259.20001220703125,-259.20001220703125,-259.20001220703125,-256.79998779296875,-249.60003662109375,-242.4000244140625,-215.20001220703125,-195.20001220703125,-127.20001220703125,-58.399993896484375,13.600006103515625,85.60000610351562,154.39999389648438,190.39999389648438,210.39999389648438,212,212,212,212,212,212,212,212,212,212,212,212,212,210.39999389648438,208.8000030517578,207.1999969482422,206.39999389648438,207.1999969482422]","[0,0,0,0,0,0,0,0,0,0,0,0,0,0,0,0,0,0,0,0,0,0,0,0,0,0,0,0,0,0,0,0,0,0,0,0,0,0,0,0,0,0,0,0,0,0,0]","[0,0,0,0,0,0,0,0,0,0,0,0,0,0,0,0,0,0,0,0,0,0,0,0,0,0,0,0,0,0,0,0,0,0,0,0,0,0,0,0,0,0,0,0,0,0,0]","[0,0,0,0,0,0,0,0,0,0,0,0,0,0,0,0,0,0,0,0,0,0,0,0,0,0,0,0,0,0,0,0,0,0,0,0,0,0,0,0,0,0,0,0,0,0,0]","[0.00029999999701857405,0.01689999999851466,0.03300000000000125,0.04969999999925534,0.06129999999701852,0.08379999999701937,0.09499999999999886,0.11669999999925551,0.13359999999777017,0.14969999999925676,0.16119999999925483,0.18369999999925568,0.19479999999702358,0.21669999999925693,0.23339999999851102,0.2448999999985091,0.2613999999985097,0.27819999999925926,0.29919999999926006,0.31109999999776505,0.3330000000000055,0.3445999999977687,0.36609999999776477,0.38300000000000267,0.39939999999851494,0.4160000000000039,0.43299999999999983,0.4493999999985121,0.4671999999992593,0.48269999999925517,0.49939999999850926,0.5158999999985099,0.5279999999999987,0.5446999999992599,0.5608999999985116,0.5772999999970239,0.5991999999992572,0.6108999999985087,0.6277999999970234,0.6440000000000055,0.6616999999992572,0.682699999999258,0.6990999999977703,0.7157999999970244,0.7328999999985086,0.7490000000000023,0.7656999999992564]",,6,0,6,0,1,,,,
,,A000000000,2024-04-16_15h10.59.373,GoFitts,2022.2.4,Win32,59.88023952,,,,,,,,,,,,,,,,,,"[-283.15594803123156,205.72483830236564]","[319.74091017491037,-142.35782507653005]",20,700,1,"[-274.3999938964844,-277.6000061035156,-278.3999938964844,-280,-280.79998779296875,-280.79998779296875,-280.79998779296875,-280.79998779296875,-280.79998779296875,-280.79998779296875,-280.79998779296875,-280.79998779296875,-280.79998779296875,-280.79998779296875,-280.79998779296875,-280.79998779296875,-280.79998779296875,-280.79998779296875,-279.1999816894531,-272.79998779296875,-240.79998779296875,-204.79998779296875,-166.39996337890625,-123.20001220703125,-57.5999755859375,-14.39996337890625,32.79998779296875,81.60003662109375,128,153.60003662109375,171.20001220703125,184.79998779296875,195.20001220703125,207.20001220703125,218.4000244140625,225.60003662109375,228.79998779296875,230.4000244140625,232,234.4000244140625,236,241.60003662109375,248,252,256,260.800048828125,270.4000244140625,282.4000244140625,321.5999755859375,342.4000244140625,348,348,348,348.800048828125,346.4000244140625,346.4000244140625,346.4000244140625,345.5999755859375,344.800048828125,342.4000244140625,340.800048828125,336,331.2000732421875,324,315.2000732421875]","[207.1999969482422,208.8000030517578,209.59999084472656,211.1999969482422,211.1999969482422,211.1999969482422,211.1999969482422,211.1999969482422,211.1999969482422,211.1999969482422,211.1999969482422,211.1999969482422,211.1999969482422,211.1999969482422,211.1999969482422,211.1999969482422,211.1999969482422,211.1999969482422,211.1999969482422,207.1999969482422,198.39999389648438,186.39999389648438,172.79998779296875,148.79998779296875,111.19998168945312,85.60000610351562,60.79998779296875,36.79998779296875,12,-2.399993896484375,-14.399993896484375,-25.600006103515625,-34.399993896484375,-45.600006103515625,-56,-62.399993896484375,-64,-65.60000610351562,-68,-72,-77.60000610351562,-84,-88.79998779296875,-91.20001220703125,-94.4000244140625,-100,-112.79998779296875,-126.4000244140625,-158.4000244140625,-172,-174.4000244140625,-174.4000244140625,-174.4000244140625,-172.79998779296875,-170.4000244140625,-170.4000244140625,-170.4000244140625,-170.4000244140625,-170.4000244140625,-170.4000244140625,-168.79998779296875,-164.79998779296875,-159.20001220703125,-153.60003662109375,-149.60003662109375]","[0,0,0,0,0,0,0,0,0,0,0,0,0,0,0,0,0,0,0,0,0,0,0,0,0,0,0,0,0,0,0,0,0,0,0,0,0,0,0,0,0,0,0,0,0,0,0,0,0,0,0,0,0,0,0,0,0,0,0,0,0,0,0,0,0]","[0,0,0,0,0,0,0,0,0,0,0,0,0,0,0,0,0,0,0,0,0,0,0,0,0,0,0,0,0,0,0,0,0,0,0,0,0,0,0,0,0,0,0,0,0,0,0,0,0,0,0,0,0,0,0,0,0,0,0,0,0,0,0,0,0]","[0,0,0,0,0,0,0,0,0,0,0,0,0,0,0,0,0,0,0,0,0,0,0,0,0,0,0,0,0,0,0,0,0,0,0,0,0,0,0,0,0,0,0,0,0,0,0,0,0,0,0,0,0,0,0,0,0,0,0,0,0,0,0,0,0]","[0.00039999999851403345,0.01680000000074955,0.028199999999259262,0.04480000000074824,0.06189999999850926,0.07839999999850988,0.09469999999925705,0.1166000000014904,0.13319999999925614,0.14489999999851477,0.16639999999851085,0.17849999999999966,0.1953000000007492,0.21660000000149182,0.2286999999992574,0.25010000000149546,0.26689999999851466,0.28389999999851057,0.3003999999985112,0.311399999998514,0.33280000000074494,0.3496999999992596,0.3666000000014904,0.3833000000007445,0.39969999999925676,0.4164999999999992,0.43360000000149057,0.45000000000000284,0.4663999999985151,0.48319999999925756,0.49989999999851165,0.5161999999992588,0.5338000000007455,0.5498000000007437,0.5668000000007467,0.5828000000007449,0.599800000000748,0.616500000000002,0.6333000000007445,0.6498000000007451,0.6663999999985109,0.6829999999999998,0.6991000000014935,0.7161999999992545,0.7341000000014901,0.7496000000014931,0.7663999999985123,0.7783000000007476,0.7995000000000019,0.8166999999992584,0.8326999999992566,0.8491999999992572,0.8614999999999995,0.878300000000749,0.8991999999992544,0.9113999999985154,0.9278999999985089,0.944500000000005,0.9668000000007453,0.9838999999985134,1.000399999998514,1.0161000000014937,1.032899999998513,1.0496999999992553,1.0660000000000025]",,7,0,7,0,1,,,,
,,A000000000,2024-04-16_15h10.59.373,GoFitts,2022.2.4,Win32,59.88023952,,,,,,,,,,,,,,,,,,"[319.74091017491037,-142.35782507653005]","[-342.351660256832,72.76909178621575]",20,700,1,"[315.2000732421875,314.4000244140625,314.4000244140625,314.4000244140625,322.4000244140625,328.800048828125,332,332,332,332,332,332,332,332,332,332,332,332,332,331.2000732421875,328.800048828125,308,276,246.4000244140625,163.20001220703125,79.20001220703125,-11.20001220703125,-96,-181.5999755859375,-225.5999755859375,-260,-287.1999816894531,-306.3999938964844,-320.79998779296875,-327.1999816894531,-332,-336,-345.6000061035156,-356.79998779296875,-371.1999816894531,-384,-385.6000061035156,-388,-388,-388,-385.6000061035156,-378.3999938964844,-372.79998779296875,-363.1999816894531,-358.3999938964844,-358.3999938964844,-358.3999938964844,-358.3999938964844,-356,-351.1999816894531,-349.6000061035156]","[-149.60003662109375,-148.79998779296875,-148.79998779296875,-148.79998779296875,-148,-148,-148,-148,-148,-148,-148,-148,-148,-148,-148,-148,-148,-148,-148,-147.20001220703125,-147.20001220703125,-144.79998779296875,-140.79998779296875,-132,-103.20001220703125,-58.399993896484375,-5.600006103515625,43.199981689453125,82.39999389648438,96,105.60000610351562,107.19998168945312,107.19998168945312,107.19998168945312,107.19998168945312,107.19998168945312,107.19998168945312,107.19998168945312,105.60000610351562,100,91.19998168945312,87.19998168945312,84,84,82.39999389648438,80,75.19998168945312,71.19998168945312,64,60.79998779296875,60.79998779296875,60.79998779296875,60.79998779296875,60,66.39999389648438,68.79998779296875]","[0,0,0,0,0,0,0,0,0,0,0,0,0,0,0,0,0,0,0,0,0,0,0,0,0,0,0,0,0,0,0,0,0,0,0,0,0,0,0,0,0,0,0,0,0,0,0,0,0,0,0,0,0,0,0,0]","[0,0,0,0,0,0,0,0,0,0,0,0,0,0,0,0,0,0,0,0,0,0,0,0,0,0,0,0,0,0,0,0,0,0,0,0,0,0,0,0,0,0,0,0,0,0,0,0,0,0,0,0,0,0,0,0]","[0,0,0,0,0,0,0,0,0,0,0,0,0,0,0,0,0,0,0,0,0,0,0,0,0,0,0,0,0,0,0,0,0,0,0,0,0,0,0,0,0,0,0,0,0,0,0,0,0,0,0,0,0,0,0,0]","[0.0003000000007489234,0.017699999999258864,0.03290000000223614,0.044900000002236595,0.06690000000223506,0.08319999999925898,0.10010000000148978,0.1166000000014904,0.12830000000074904,0.14999999999999858,0.1670000000000016,0.178600000001488,0.20049999999999812,0.21640000000223836,0.228199999999255,0.2499000000022349,0.2616000000014935,0.28380000000074546,0.30040000000223444,0.31700000000000017,0.32840000000223313,0.3496999999992596,0.3666999999992555,0.377900000002235,0.40019999999925915,0.4161999999992574,0.432699999999258,0.4496000000014888,0.46650000000000347,0.482900000002239,0.49930000000074415,0.5163000000007472,0.5329000000022361,0.550699999999253,0.566199999999256,0.5829999999999984,0.6000000000000014,0.616100000001488,0.6329000000022376,0.6494000000022382,0.6663000000007457,0.6778000000007438,0.6991999999992586,0.7161999999992545,0.728199999999255,0.7501999999992535,0.7659000000022331,0.7776999999992569,0.8006000000014879,0.8166000000014932,0.8336000000014891,0.8449000000022338,0.861699999999253,0.8786000000014909,0.8991000000014893,0.9111000000014897]",,8,0,8,0,1,,,,
,,A000000000,2024-04-16_15h10.59.373,GoFitts,2022.2.4,Win32,59.88023952,,,,,,,,,,,,,,,,,,"[-342.351660256832,72.76909178621575]","[350,0]",20,700,1,"[-349.6000061035156,-345.6000061035156,-344,-341.6000061035156,-341.6000061035156,-341.6000061035156,-341.6000061035156,-341.6000061035156,-341.6000061035156,-341.6000061035156,-341.6000061035156,-341.6000061035156,-341.6000061035156,-341.6000061035156,-341.6000061035156,-341.6000061035156,-341.6000061035156,-341.6000061035156,-338.3999938964844,-332,-307.1999816894531,-236.79998779296875,-177.5999755859375,-100.79998779296875,-29.5999755859375,39.20001220703125,80,134.4000244140625,161.60003662109375,179.20001220703125,186.4000244140625,190.4000244140625,192.79998779296875,195.20001220703125,198.4000244140625,204,215.20001220703125,231.20001220703125,246.4000244140625,257.5999755859375,262.4000244140625,265.5999755859375,271.2000732421875,280.800048828125,301.5999755859375,324.800048828125,346.4000244140625]","[68.79998779296875,71.19998168945312,72.79998779296875,73.60000610351562,73.60000610351562,73.60000610351562,73.60000610351562,73.60000610351562,73.60000610351562,73.60000610351562,73.60000610351562,73.60000610351562,73.60000610351562,73.60000610351562,73.60000610351562,73.60000610351562,73.60000610351562,74.39999389648438,74.39999389648438,72.79998779296875,64.79998779296875,48,36,25.600006103515625,20,20,20,20,20,19.199981689453125,16.79998779296875,15.199981689453125,13.600006103515625,12,8.79998779296875,4.79998779296875,-1.600006103515625,-6.399993896484375,-8,-7.20001220703125,-4,-1.600006103515625,0,2.399993896484375,2.399993896484375,2.399993896484375,0]","[0,0,0,0,0,0,0,0,0,0,0,0,0,0,0,0,0,0,0,0,0,0,0,0,0,0,0,0,0,0,0,0,0,0,0,0,0,0,0,0,0,0,0,0,0,0,0]","[0,0,0,0,0,0,0,0,0,0,0,0,0,0,0,0,0,0,0,0,0,0,0,0,0,0,0,0,0,0,0,0,0,0,0,0,0,0,0,0,0,0,0,0,0,0,0]","[0,0,0,0,0,0,0,0,0,0,0,0,0,0,0,0,0,0,0,0,0,0,0,0,0,0,0,0,0,0,0,0,0,0,0,0,0,0,0,0,0,0,0,0,0,0,0]","[0.0003000000007489234,0.02200000000000557,0.038800000000748014,0.05460000000149279,0.07139999999851199,0.08319999999925898,0.09989999999851307,0.1166000000014904,0.1336000000014934,0.14939999999851494,0.17100000000000648,0.18760000000149546,0.19950000000000045,0.21619999999925454,0.23760000000149262,0.24950000000000472,0.27160000000149154,0.28869999999925966,0.30450000000000443,0.31639999999850943,0.33289999999851005,0.3548000000007505,0.37110000000149057,0.38800000000000523,0.4043999999985104,0.420899999998511,0.432699999999258,0.44950000000000045,0.4666000000014918,0.4881999999992601,0.5046999999992607,0.5215000000000032,0.5376999999992549,0.5546999999992579,0.5706999999992561,0.588000000000001,0.6041999999992598,0.6211999999992557,0.6378999999985098,0.6543000000007453,0.6718999999985158,0.6881999999992559,0.7046000000014914,0.7211999999992571,0.7373000000007508,0.7546000000014956,0.7710000000000008]",,9,0,9,0,1,,,,
,,A000000000,2024-04-16_15h10.59.373,GoFitts,2022.2.4,Win32,59.88023952,,,,,,,,,,,,,,,,,,"[350,0]","[-342.351660256832,-72.76909178621567]",20,700,1,"[346.4000244140625,353.5999755859375,353.5999755859375,353.5999755859375,353.5999755859375,352.800048828125,352.800048828125,352.800048828125,352,352,352,352,352,352,352,352,352,352,351.2000732421875,344,332,304.800048828125,282.4000244140625,241.60003662109375,191.20001220703125,103.20001220703125,47.20001220703125,-12,-60.79998779296875,-147.20001220703125,-203.20001220703125,-257.6000061035156,-300,-336,-353.6000061035156,-361.6000061035156,-361.6000061035156,-361.6000061035156,-361.6000061035156,-362.3999938964844,-362.3999938964844,-362.3999938964844,-363.1999816894531,-363.1999816894531,-363.1999816894531,-362.3999938964844,-362.3999938964844,-361.6000061035156,-360,-357.6000061035156,-356.79998779296875,-356.79998779296875,-356,-356,-356,-356,-355.1999816894531,-352.79998779296875,-348.79998779296875]","[0,-2.399993896484375,-2.399993896484375,-2.399993896484375,-1.600006103515625,-1.600006103515625,-1.600006103515625,-1.600006103515625,-2.399993896484375,-4.800018310546875,-4.800018310546875,-4.800018310546875,-4.800018310546875,-4.800018310546875,-4.800018310546875,-4.800018310546875,-4.800018310546875,-4.800018310546875,-4.800018310546875,-6.399993896484375,-9.600006103515625,-17.600006103515625,-22.399993896484375,-32,-43.20001220703125,-64,-79.20001220703125,-94.4000244140625,-108.79998779296875,-119.20001220703125,-119.20001220703125,-119.20001220703125,-119.20001220703125,-119.20001220703125,-120.79998779296875,-123.20001220703125,-123.20001220703125,-123.20001220703125,-123.20001220703125,-123.20001220703125,-120,-112.79998779296875,-108.79998779296875,-105.60003662109375,-101.60003662109375,-100,-97.60003662109375,-92.79998779296875,-89.60003662109375,-83.20001220703125,-80.79998779296875,-79.20001220703125,-77.60000610351562,-77.60000610351562,-77.60000610351562,-77.60000610351562,-76.80001831054688,-75.20001220703125,-72.80001831054688]","[0,0,0,0,0,0,0,0,0,0,0,0,0,0,0,0,0,0,0,0,0,0,0,0,0,0,0,0,0,0,0,0,0,0,0,0,0,0,0,0,0,0,0,0,0,0,0,0,0,0,0,0,0,0,0,0,0,0,0]","[0,0,0,0,0,0,0,0,0,0,0,0,0,0,0,0,0,0,0,0,0,0,0,0,0,0,0,0,0,0,0,0,0,0,0,0,0,0,0,0,0,0,0,0,0,0,0,0,0,0,0,0,0,0,0,0,0,0,0]","[0,0,0,0,0,0,0,0,0,0,0,0,0,0,0,0,0,0,0,0,0,0,0,0,0,0,0,0,0,0,0,0,0,0,0,0,0,0,0,0,0,0,0,0,0,0,0,0,0,0,0,0,0,0,0,0,0,0,0]","[0.000300000000741818,0.01730000000074483,0.03409999999776403,0.04519999999925517,0.06180000000074415,0.08369999999925426,0.09980000000074085,0.1118000000007413,0.12880000000074432,0.15080000000074278,0.16180000000074557,0.1783999999985113,0.19519999999925375,0.21169999999925437,0.228199999999255,0.24469999999925562,0.26149999999999807,0.2828999999985058,0.2950999999977597,0.3165999999977629,0.33289999999851005,0.34949999999999903,0.3610999999977622,0.3781999999992536,0.3954999999999984,0.4164999999999992,0.4334999999999951,0.449399999998505,0.46139999999850545,0.482999999999997,0.49939999999850926,0.5158000000007448,0.534099999997764,0.549199999999253,0.5670999999977653,0.5823999999985077,0.5996999999992525,0.6163999999985066,0.6280000000000001,0.650199999999252,0.6664999999999992,0.6825999999977626,0.6944999999999979,0.7161999999992545,0.7328000000007435,0.747099999997765,0.7669999999999959,0.7823999999985105,0.7993999999985064,0.8156999999992536,0.8275999999977657,0.8509999999999991,0.8673000000007463,0.8833999999985096,0.8948999999985077,0.9113999999985083,0.9284999999999997,0.9504999999999981,0.9663000000007429]",,10,0,10,0,1,,,,
