指定代號,date,expName,psychopyVersion,OS,frameRate,from,to,w,a,id,sequence_loop.thisN,enter_time,mouse.x,mouse.y,mouse.leftButton,mouse.midButton,mouse.rightButton,mouse.time,trial_loop.thisRepN,trial_loop.thisTrialN,trial_loop.thisN,trial_loop.thisIndex,trial_loop.ran,leave_time,sequence_loop.thisRepN,sequence_loop.thisTrialN,sequence_loop.thisIndex,sequence_loop.ran
A000000000-1,2025-04-16_14h20.16.188,GoFitts,2023.2.3,Win32,59.88023952,,,,,,,,,,,,,,,,,,,,,,,
A000000000-1,2025-04-16_14h20.16.188,GoFitts,2023.2.3,Win32,59.88023952,,,,,,,,,,,,,,,,,,,,,,,
A000000000-1,2025-04-16_14h20.16.188,GoFitts,2023.2.3,Win32,59.88023952,"[52,-122]","[156.4421120680692,69.65251588295713]",55,342.4944227,3.75,0,0.8688,"[52,52,52,52,52,52,52,52,52,52,52,52,52,52,52,52,52,52,52,52,52,52,52,53,63,72,82,94,106,116,123,127,127,127,127,127,127,127,127,127,127,127,127,127,129,131,132,135,136,138,139,141,142,142,142,144,147,153,160,163,165,165,165,165,165,165,164,163,163,163,163,163,163,163,163,163,164,165,165,165,165,165,165,165,165,165,165,165,165,165,165,165,165,165,165,165]","[-122,-122,-122,-122,-122,-122,-122,-122,-122,-122,-122,-122,-122,-122,-122,-122,-122,-122,-122,-121,-121,-119,-114,-107,-79,-58,-37,-17,-4,6,13,17,17,17,17,17,17,17,17,17,17,17,17,17,19,21,23,27,31,36,41,44,47,49,50,55,61,69,77,80,81,81,81,81,81,81,80,80,80,80,80,80,80,80,80,80,80,80,80,80,80,80,80,80,80,80,80,80,80,80,80,80,80,80,80,80]","[0,0,0,0,0,0,0,0,0,0,0,0,0,0,0,0,0,0,0,0,0,0,0,0,0,0,0,0,0,0,0,0,0,0,0,0,0,0,0,0,0,0,0,0,0,0,0,0,0,0,0,0,0,0,0,0,0,0,0,0,0,0,0,0,0,0,0,0,0,1,1,1,1,1,1,0,0,0,0,0,0,0,0,0,0,0,0,0,0,0,0,0,0,0,0,0]","[0,0,0,0,0,0,0,0,0,0,0,0,0,0,0,0,0,0,0,0,0,0,0,0,0,0,0,0,0,0,0,0,0,0,0,0,0,0,0,0,0,0,0,0,0,0,0,0,0,0,0,0,0,0,0,0,0,0,0,0,0,0,0,0,0,0,0,0,0,0,0,0,0,0,0,0,0,0,0,0,0,0,0,0,0,0,0,0,0,0,0,0,0,0,0,0]","[0,0,0,0,0,0,0,0,0,0,0,0,0,0,0,0,0,0,0,0,0,0,0,0,0,0,0,0,0,0,0,0,0,0,0,0,0,0,0,0,0,0,0,0,0,0,0,0,0,0,0,0,0,0,0,0,0,0,0,0,0,0,0,0,0,0,0,0,0,0,0,0,0,0,0,0,0,0,0,0,0,0,0,0,0,0,0,0,0,0,0,0,0,0,0,0]","[0.00010000002384202844,0.017799999952316625,0.031500000000001194,0.04829999995232015,0.06510000002384686,0.08170000004768951,0.09850000000000136,0.11500000000000199,0.13179999995232095,0.1483999999761636,0.16500000000000625,0.1817999999523181,0.19870000004768684,0.21520000004768747,0.23160000002384606,0.24839999997615791,0.2651000000238426,0.2817999999523195,0.2983999999761622,0.3155000000000001,0.3317999999523167,0.34900000000000375,0.3687999999523228,0.38210000002384703,0.40160000002384777,0.4182999999523176,0.4322000000476862,0.45220000004768934,0.4655000000000058,0.48210000002384845,0.49900000000000233,0.515600000023845,0.5315000000000012,0.5483999999761622,0.5650000000000048,0.5818999999761587,0.5982999999523173,0.615000000000002,0.631799999952321,0.6482999999523216,0.6652000000476903,0.6817999999523181,0.6985000000000028,0.7152999999523217,0.7322000000476834,0.7525000000000048,0.765500000000003,0.7860000000000014,0.802700000047686,0.8156000000238421,0.8318999999761587,0.8487999999523197,0.8687999999523228,0.8853999999761584,0.9023999999761614,0.9155000000000015,0.9363999999761603,0.9487999999523211,0.9653999999761638,0.9822000000476834,0.9993999999761627,1.0187999999523214,1.0317000000476853,1.0482000000476859,1.0651000000238469,1.0817000000476895,1.0987000000476854,1.1191000000238418,1.131799999952321,1.1482000000476873,1.1652999999523175,1.181799999952318,1.1982999999523187,1.214700000047685,1.231600000023846,1.2480000000000047,1.2650000000000006,1.2821000000238456,1.2985000000000042,1.3148999999761628,1.3316000000238475,1.3482999999523173,1.365100000023844,1.381799999952321,1.3986000000238477,1.4181000000238484,1.431799999952318,1.4482999999523187,1.4651000000238454,1.481600000023846,1.4985,1.5150000000000006,1.5318999999761616,1.5483999999761622,1.5651000000238469,1.5826000000238452]",0,0,0,0,1,,,,,
A000000000-1,2025-04-16_14h20.16.188,GoFitts,2023.2.3,Win32,59.88023952,"[156.4421120680692,69.65251588295713]","[-138.5419042261746,-100.65658533116147]",55,342.4944227,3.75,0,0.7507,"[165,165,165,165,165,165,165,165,165,165,165,165,165,165,165,165,165,165,165,165,158,136,84,9,-77,-153,-202,-210,-210,-210,-208,-206,-205,-205,-205,-205,-205,-205,-205,-205,-205,-204,-197,-186,-169,-162,-161,-160,-160,-160,-160,-160,-159,-157,-152,-144,-142,-142,-142,-142,-142,-142,-142,-142,-142,-142,-142,-142,-142,-142,-142,-142,-142,-142,-142,-142,-142,-142,-142,-142,-142,-142,-142,-142,-142,-142,-142,-142,-142]","[80,80,80,80,80,80,80,80,80,80,80,80,80,80,80,80,80,80,80,80,67,43,6,-37,-78,-109,-133,-140,-142,-142,-143,-143,-143,-143,-143,-142,-142,-140,-139,-137,-135,-132,-125,-120,-112,-107,-106,-106,-106,-106,-106,-106,-106,-104,-103,-101,-101,-101,-101,-101,-101,-101,-101,-101,-100,-100,-99,-98,-98,-97,-96,-96,-96,-96,-96,-96,-96,-96,-96,-96,-96,-96,-96,-96,-96,-96,-96,-96,-96]","[0,0,0,0,0,0,0,0,0,0,0,0,0,0,0,0,0,0,0,0,0,0,0,0,0,0,0,0,0,0,0,0,0,0,0,0,0,0,0,0,0,0,0,0,0,0,0,0,0,0,0,0,0,0,0,0,0,0,0,0,1,1,1,1,1,1,1,1,0,0,0,0,0,0,0,0,0,0,0,0,0,0,0,0,0,0,0,0,0]","[0,0,0,0,0,0,0,0,0,0,0,0,0,0,0,0,0,0,0,0,0,0,0,0,0,0,0,0,0,0,0,0,0,0,0,0,0,0,0,0,0,0,0,0,0,0,0,0,0,0,0,0,0,0,0,0,0,0,0,0,0,0,0,0,0,0,0,0,0,0,0,0,0,0,0,0,0,0,0,0,0,0,0,0,0,0,0,0,0]","[0,0,0,0,0,0,0,0,0,0,0,0,0,0,0,0,0,0,0,0,0,0,0,0,0,0,0,0,0,0,0,0,0,0,0,0,0,0,0,0,0,0,0,0,0,0,0,0,0,0,0,0,0,0,0,0,0,0,0,0,0,0,0,0,0,0,0,0,0,0,0,0,0,0,0,0,0,0,0,0,0,0,0,0,0,0,0,0,0]","[0,0.01839999997616104,0.03130000007152489,0.04780000007152552,0.06450000000000244,0.08139999997615632,0.09780000007152267,0.11439999997615757,0.13120000004768428,0.1477000000476849,0.16449999999999676,0.18130000007152347,0.1978000000715241,0.21460000002384305,0.2312000000476857,0.24780000007152836,0.26439999997615615,0.28110000002384083,0.2978999999761598,0.3146000000238445,0.3316000000238404,0.3504999999999967,0.36880000007152347,0.3813999999761606,0.40160000002384066,0.4157000000476856,0.4356000000238396,0.4513000000715266,0.4678999999761615,0.4811000000238437,0.4981000000238396,0.5148000000715243,0.5315000000000012,0.5518000000715233,0.5648000000715285,0.5902000000476804,0.6013000000715252,0.61489999997616,0.6313000000715263,0.6483000000715222,0.6678999999761572,0.6818000000715259,0.6982000000476845,0.7148999999761614,0.7356000000238438,0.7507000000476864,0.7688999999761563,0.7818000000715273,0.7978999999761598,0.8143999999761604,0.8312000000476871,0.847999999999999,0.865200000047686,0.8817000000476867,0.8983000000715222,0.9188000000715277,0.9314999999999998,0.9478000000715241,0.9647000000476851,0.9810000000000016,0.9978000000715284,1.0143999999761562,1.0309999999999988,1.0478999999761598,1.0648000000715285,1.0812000000476871,1.0983999999761593,1.11489999997616,1.130800000071524,1.1475000000000009,1.1648999999761571,1.1813999999761577,1.1978999999761584,1.2139999999999986,1.2311000000238437,1.2477000000476863,1.2644999999999982,1.2809999999999988,1.3004999999999995,1.3145000000000024,1.331000000000003,1.3477000000476806,1.3646000000238416,1.3810000000000002,1.3978999999761612,1.4143999999761547,1.4311000000238394,1.4482000000476845,1.4669999999999987]",1,0,1,0,1,0.3505,,,,
A000000000-1,2025-04-16_14h20.16.188,GoFitts,2023.2.3,Win32,59.88023952,"[-138.5419042261746,-100.65658533116147]","[114.58675037178152,127.26147899650923]",55,342.4944227,3.75,0,0.6646,"[-142,-142,-142,-142,-142,-142,-142,-142,-142,-142,-142,-142,-142,-142,-142,-142,-142,-141,-115,-36,35,94,124,138,142,143,143,143,143,143,143,143,143,143,143,137,134,134,133,132,132,131,131,130,128,127,127,126,126,126,125,125,124,122,121,120,120,120,120,120,120,120,120,118,118,118,118,118,118,117,117,117,117,117,117,117,117,117,117,117,117,117,117,117,117]","[-96,-96,-96,-96,-96,-96,-96,-96,-96,-96,-96,-96,-96,-96,-96,-96,-96,-96,-89,-66,-43,-19,-1,15,27,32,32,32,32,32,32,32,32,32,32,46,60,76,94,104,108,110,110,110,110,111,114,117,118,120,121,121,122,122,122,122,122,123,123,123,123,123,123,123,123,122,121,121,120,120,120,120,120,120,120,120,120,120,120,120,120,120,120,120,120]","[0,0,0,0,0,0,0,0,0,0,0,0,0,0,0,0,0,0,0,0,0,0,0,0,0,0,0,0,0,0,0,0,0,0,0,0,0,0,0,0,0,0,0,0,0,0,0,0,0,0,0,0,0,0,0,0,1,1,1,1,1,1,0,0,0,0,0,0,0,0,0,0,0,0,0,0,0,0,0,0,0,0,0,0,0]","[0,0,0,0,0,0,0,0,0,0,0,0,0,0,0,0,0,0,0,0,0,0,0,0,0,0,0,0,0,0,0,0,0,0,0,0,0,0,0,0,0,0,0,0,0,0,0,0,0,0,0,0,0,0,0,0,0,0,0,0,0,0,0,0,0,0,0,0,0,0,0,0,0,0,0,0,0,0,0,0,0,0,0,0,0]","[0,0,0,0,0,0,0,0,0,0,0,0,0,0,0,0,0,0,0,0,0,0,0,0,0,0,0,0,0,0,0,0,0,0,0,0,0,0,0,0,0,0,0,0,0,0,0,0,0,0,0,0,0,0,0,0,0,0,0,0,0,0,0,0,0,0,0,0,0,0,0,0,0,0,0,0,0,0,0,0,0,0,0,0,0]","[0,0.017399999976156266,0.03039999997615439,0.046899999976155016,0.06349999999999767,0.08029999995231663,0.09700000000000131,0.11360000002384396,0.13010000002383748,0.14689999997615644,0.16339999997615706,0.18010000002384174,0.1963999999761583,0.21320000004768502,0.232999999999997,0.24689999997615786,0.2635000000000005,0.28060000002383845,0.3007000000476836,0.3177999999523138,0.3342999999523144,0.34720000004768536,0.36679999995231327,0.38460000002383765,0.3972999999523168,0.4141000000238435,0.43360000002383714,0.4468999999761536,0.4636000000238383,0.4801000000238389,0.49739999997616025,0.5137000000476846,0.5304999999999964,0.546899999976155,0.563799999952316,0.5806000000238427,0.5972999999523125,0.6176000000238417,0.6307000000476819,0.6475000000000009,0.6647000000476808,0.6843999999761579,0.6968999999761536,0.7141000000238407,0.7306000000238413,0.7475000000000023,0.7639999999999958,0.784200000047683,0.7971000000238391,0.8142000000476841,0.8302999999523166,0.8467999999523173,0.8641000000238392,0.8807000000476819,0.8972999999523168,0.9176000000238389,0.930299999952318,0.947399999976156,0.9634999999999962,0.9802000000476809,0.9967999999523158,1.0136000000238425,1.029899999976159,1.0465000000000018,1.0631000000238373,1.0807000000476847,1.0971000000238433,1.113500000000002,1.1306000000238399,1.1472999999523168,1.163499999999999,1.1801000000238417,1.1968999999761536,1.2172000000476828,1.2302999999523152,1.2469999999999999,1.2635000000000005,1.2801000000238432,1.296899999976155,1.3136000000238397,1.3303999999761587,1.346700000047683,1.363500000000002,1.3801000000238375,1.3968999999761564]",2,0,2,0,1,0.3178,,,,
A000000000-1,2025-04-16_14h20.16.188,GoFitts,2023.2.3,Win32,59.88023952,"[114.58675037178152,127.26147899650923]","[-85.62360567790867,-148.30443536138065]",55,342.4944227,3.75,0,0.9698,"[117,117,117,117,117,117,117,117,117,117,117,117,116,116,116,116,116,116,116,116,116,117,117,115,103,91,79,71,67,67,67,67,67,67,67,67,67,67,67,59,43,20,-4,-30,-35,-42,-42,-42,-42,-42,-43,-45,-46,-49,-51,-52,-54,-57,-63,-67,-68,-70,-71,-72,-72,-72,-72,-73,-73,-74,-74,-74,-74,-74,-74,-74,-74,-74,-74,-74,-74,-74,-74,-74,-74,-74,-74,-74,-74,-74,-74,-74,-74,-74,-74,-74,-74,-74,-74,-74,-74,-74]","[120,120,120,120,120,120,120,120,120,120,120,120,119,118,118,118,118,118,118,118,111,78,-15,-92,-132,-158,-174,-182,-185,-184,-181,-179,-179,-179,-179,-179,-179,-179,-177,-174,-171,-168,-164,-156,-154,-149,-148,-147,-147,-147,-147,-147,-145,-143,-141,-139,-138,-138,-138,-138,-138,-138,-138,-139,-139,-139,-139,-139,-140,-140,-140,-140,-140,-140,-140,-140,-140,-140,-140,-140,-141,-141,-141,-141,-141,-141,-141,-141,-141,-141,-141,-141,-141,-141,-141,-141,-141,-141,-141,-141,-141,-141]","[0,0,0,0,0,0,0,0,0,0,0,0,0,0,0,0,0,0,0,0,0,0,0,0,0,0,0,0,0,0,0,0,0,0,0,0,0,0,0,0,0,0,0,0,0,0,0,0,0,0,0,0,0,0,0,0,0,0,0,0,0,0,0,0,0,0,0,0,0,0,1,1,1,1,1,1,1,0,0,0,0,0,0,0,0,0,0,0,0,0,0,0,0,0,0,0,0,0,0,0,0,0]","[0,0,0,0,0,0,0,0,0,0,0,0,0,0,0,0,0,0,0,0,0,0,0,0,0,0,0,0,0,0,0,0,0,0,0,0,0,0,0,0,0,0,0,0,0,0,0,0,0,0,0,0,0,0,0,0,0,0,0,0,0,0,0,0,0,0,0,0,0,0,0,0,0,0,0,0,0,0,0,0,0,0,0,0,0,0,0,0,0,0,0,0,0,0,0,0,0,0,0,0,0,0]","[0,0,0,0,0,0,0,0,0,0,0,0,0,0,0,0,0,0,0,0,0,0,0,0,0,0,0,0,0,0,0,0,0,0,0,0,0,0,0,0,0,0,0,0,0,0,0,0,0,0,0,0,0,0,0,0,0,0,0,0,0,0,0,0,0,0,0,0,0,0,0,0,0,0,0,0,0,0,0,0,0,0,0,0,0,0,0,0,0,0,0,0,0,0,0,0,0,0,0,0,0,0]","[0,0.01910000002384038,0.03160000002384322,0.048299999952313044,0.06499999999999773,0.08149999999999835,0.09829999995231731,0.11500000000000199,0.1316999999284718,0.14819999992847244,0.1647999999523151,0.1816000000238418,0.198799999952314,0.21529999995231464,0.2353999999761598,0.24819999992847386,0.2651000000238426,0.2816000000238432,0.29829999995231304,0.31510000002383975,0.33200000000000074,0.34899999999999665,0.36969999992847136,0.3819999999999979,0.4026999999284726,0.41919999992847323,0.4358999999761579,0.44889999997615604,0.46529999995231464,0.48210000002384135,0.4987999999523183,0.5189999999999984,0.5316999999284775,0.548299999952313,0.5647999999523137,0.5816999999284747,0.5981999999284753,0.615100000023844,0.6316000000238446,0.6501000000238406,0.6656000000238436,0.6854999999999976,0.6986000000238448,0.7195000000000036,0.7321999999284756,0.7528999999761581,0.765500000000003,0.7862999999523197,0.8022999999523179,0.8149999999999977,0.8342999999523144,0.8481999999284753,0.8651999999284712,0.8821000000238399,0.8986999999284748,0.9189999999999969,0.9358999999761579,0.9489999999999981,0.9698999999761568,0.9855000000000018,0.9987999999523183,1.0151999999284769,1.0349999999999966,1.051100000023844,1.0676000000238446,1.0812999999523143,1.098100000023841,1.1151999999284712,1.1317999999523138,1.1486999999284748,1.164799999952315,1.181699999928476,1.1982999999523187,1.2148999999761614,1.2316999999284732,1.248399999976158,1.2646000000238402,1.2812999999523171,1.298199999928471,1.3149999999999977,1.332399999976161,1.3518999999761547,1.365000000000002,1.3816999999284718,1.3981999999284724,1.4148999999761571,1.431699999928476,1.4481999999284767,1.4648999999761614,1.4816999999284732,1.4985,1.518199999928477,1.5316000000238432,1.548199999928471,1.565299999952316,1.5851999999284772,1.5983999999761593,1.615100000023844,1.6316999999284718,1.6483999999761565,1.6648999999761571,1.6818999999761601]",3,0,3,0,1,0.349,,,,
A000000000-1,2025-04-16_14h20.16.188,GoFitts,2023.2.3,Win32,59.88023952,"[-85.62360567790867,-148.30443536138065]","[52.918298548266,162.86577625732338]",55,342.4944227,3.75,0,0.7327,"[-74,-74,-74,-74,-74,-74,-74,-74,-74,-74,-74,-74,-74,-74,-74,-74,-74,-74,-68,-48,16,43,62,72,79,79,79,79,79,79,79,79,79,79,79,72,65,62,60,58,56,51,46,44,43,43,43,43,43,43,43,43,43,43,43,43,43,43,43,43,43,43,43,42,41,41,41,41,41,41,41,41,39,38,37,37,37,37,37,37,37,37,37,37,37,37,37,37]","[-141,-141,-141,-141,-141,-141,-141,-141,-141,-141,-141,-141,-141,-141,-141,-141,-141,-141,-139,-120,-49,-22,-7,1,8,8,8,8,8,8,8,8,8,8,8,14,23,46,63,76,88,106,120,130,138,146,148,150,150,150,151,152,152,152,152,152,152,152,153,154,154,154,154,154,154,153,152,150,149,149,149,148,147,146,146,146,146,146,146,146,146,146,146,146,146,146,146,146]","[0,0,0,0,0,0,0,0,0,0,0,0,0,0,0,0,0,0,0,0,0,0,0,0,0,0,0,0,0,0,0,0,0,0,0,0,0,0,0,0,0,0,0,0,0,0,0,0,0,0,0,0,0,0,0,0,1,1,1,1,1,1,1,0,0,0,0,0,0,0,0,0,0,0,0,0,0,0,0,0,0,0,0,0,0,0,0,0]","[0,0,0,0,0,0,0,0,0,0,0,0,0,0,0,0,0,0,0,0,0,0,0,0,0,0,0,0,0,0,0,0,0,0,0,0,0,0,0,0,0,0,0,0,0,0,0,0,0,0,0,0,0,0,0,0,0,0,0,0,0,0,0,0,0,0,0,0,0,0,0,0,0,0,0,0,0,0,0,0,0,0,0,0,0,0,0,0]","[0,0,0,0,0,0,0,0,0,0,0,0,0,0,0,0,0,0,0,0,0,0,0,0,0,0,0,0,0,0,0,0,0,0,0,0,0,0,0,0,0,0,0,0,0,0,0,0,0,0,0,0,0,0,0,0,0,0,0,0,0,0,0,0,0,0,0,0,0,0,0,0,0,0,0,0,0,0,0,0,0,0,0,0,0,0,0,0]","[0,0.019299999952316682,0.03210000002384561,0.04879999995231543,0.06539999997615809,0.08189999997615871,0.0987999999523197,0.11549999999999727,0.13210000002383993,0.14879999995231685,0.1653999999761595,0.1821000000238442,0.198799999952314,0.21529999995231464,0.23220000004768337,0.24879999995231827,0.2652999999523189,0.2821000000238456,0.2992999999523178,0.3162999999523137,0.33610000002384055,0.3526000000238412,0.36939999997616013,0.3825000000000003,0.39929999995231924,0.41550000000000153,0.43200000000000216,0.448799999952314,0.4654999999999987,0.48210000002384135,0.49849999999999994,0.5152999999523189,0.5321000000238456,0.5487000000476812,0.5653999999761581,0.5825000000000031,0.599299999952315,0.6158999999761576,0.6353999999761584,0.6490000000000009,0.6660000000000039,0.6823999999761554,0.6992000000476821,0.7156000000238407,0.73279999995232,0.7532999999523184,0.7658999999761562,0.7824999999999989,0.8007999999523179,0.8155000000000001,0.8327999999523144,0.8517000000476855,0.8653999999761552,0.8821000000238399,0.8987999999523169,0.9155000000000015,0.9322000000476862,0.948799999952314,0.9657000000476827,0.9825000000000017,0.998600000023842,1.015399999976161,1.0321000000238456,1.0486000000238391,1.0649999999999977,1.0818999999761587,1.099299999952315,1.1196000000238442,1.1325000000000003,1.1488999999761589,1.1655000000000015,1.1822000000476862,1.2012999999523188,1.2156000000238407,1.2362000000476812,1.248700000047684,1.268299999952319,1.2818999999761616,1.2986000000238391,1.315399999976158,1.3321000000238428,1.3487999999523197,1.3652999999523132,1.38210000002384,1.3987000000476826,1.4155000000000015,1.4321000000238442,1.448799999952314]",4,0,4,0,1,0.3162,,,,
A000000000-1,2025-04-16_14h20.16.188,GoFitts,2023.2.3,Win32,59.88023952,"[52.918298548266,162.86577625732338]","[-17.90020784189476,-170.3091012141186]",55,342.4944227,3.75,0,0.7829,"[37,37,37,37,37,37,37,37,37,37,37,37,37,37,37,37,37,37,37,37,37,37,37,34,25,11,-4,-17,-26,-30,-31,-29,-25,-20,-18,-16,-15,-15,-15,-15,-14,-14,-14,-14,-14,-14,-14,-14,-14,-14,-15,-16,-16,-16,-17,-18,-18,-18,-18,-18,-18,-18,-18,-18,-18,-19,-19,-20,-20,-20,-20,-20,-21,-21,-21,-21,-21,-21,-21,-21,-21,-21,-22,-22,-22,-22,-22,-22,-22,-22,-22,-22]","[146,146,146,146,146,146,146,146,146,146,146,146,146,146,146,146,146,146,146,146,146,146,146,108,64,7,-40,-72,-92,-106,-116,-118,-119,-119,-119,-119,-119,-119,-119,-121,-123,-124,-124,-125,-127,-132,-138,-147,-157,-159,-164,-166,-167,-168,-169,-170,-170,-171,-171,-171,-171,-169,-168,-166,-165,-162,-162,-161,-161,-161,-161,-161,-161,-161,-161,-161,-161,-161,-161,-161,-161,-161,-161,-161,-161,-161,-161,-161,-161,-161,-161,-161]","[0,0,0,0,0,0,0,0,0,0,0,0,0,0,0,0,0,0,0,0,0,0,0,0,0,0,0,0,0,0,0,0,0,0,0,0,0,0,0,0,0,0,0,0,0,0,0,0,0,0,0,0,0,0,0,0,0,0,0,1,1,1,1,1,1,1,1,1,0,0,0,0,0,0,0,0,0,0,0,0,0,0,0,0,0,0,0,0,0,0,0,0]","[0,0,0,0,0,0,0,0,0,0,0,0,0,0,0,0,0,0,0,0,0,0,0,0,0,0,0,0,0,0,0,0,0,0,0,0,0,0,0,0,0,0,0,0,0,0,0,0,0,0,0,0,0,0,0,0,0,0,0,0,0,0,0,0,0,0,0,0,0,0,0,0,0,0,0,0,0,0,0,0,0,0,0,0,0,0,0,0,0,0,0,0]","[0,0,0,0,0,0,0,0,0,0,0,0,0,0,0,0,0,0,0,0,0,0,0,0,0,0,0,0,0,0,0,0,0,0,0,0,0,0,0,0,0,0,0,0,0,0,0,0,0,0,0,0,0,0,0,0,0,0,0,0,0,0,0,0,0,0,0,0,0,0,0,0,0,0,0,0,0,0,0,0,0,0,0,0,0,0,0,0,0,0,0,0]","[0,0.02049999999999841,0.03549999999999898,0.048599999904631375,0.06519999992847403,0.08189999997615871,0.09839999997615223,0.11539999997615524,0.13179999995231384,0.1485999999046328,0.16529999995231037,0.18189999997615303,0.19849999999999568,0.21529999995231464,0.23199999999999932,0.24849999999999994,0.26509999990462774,0.2821999999284728,0.2985999999046314,0.315099999904632,0.3317999999523167,0.34859999990462853,0.3652999999523132,0.3825000000000003,0.4023999999761543,0.41569999992847073,0.4325999999046317,0.448799999952314,0.46559999990463297,0.4821999999284685,0.4989999999999952,0.5155999999046301,0.5323999999761568,0.5490999999046267,0.5655000000000001,0.582399999976154,0.6025999999046263,0.6189999999999998,0.6317999999523138,0.6489999999999938,0.6656999999284707,0.6822999999523134,0.6984999999999957,0.715599999904633,0.7322999999523105,0.752599999904632,0.7657999999523142,0.7828999999761521,0.8032999999523156,0.8155999999046273,0.832399999976154,0.8521999999284731,0.869399999976153,0.8817999999523138,0.9039999999999964,0.9188999999761549,0.931699999928469,0.9490999999046323,0.9688999999761521,0.9818999999761573,0.9985999999046271,1.0156999999284722,1.0319999999999965,1.0489999999999995,1.0655999999046273,1.0862999999523169,1.0984999999999943,1.1157999999523156,1.13459999990463,1.1481999999284724,1.1649999999999991,1.1820999999046293,1.198999999999998,1.2150999999046306,1.2318999999761573,1.2485,1.2650999999046277,1.2818999999761544,1.2985999999046314,1.315199999928474,1.3345999999046327,1.3484999999999943,1.3655999999046315,1.3818999999761559,1.3985999999046328,1.4152999999523104,1.431899999976153,1.4484999999999957,1.4650999999046306,1.4818999999761573,1.4985999999046271,1.5153999999761538]",5,0,5,0,1,0.3825,,,,
A000000000-1,2025-04-16_14h20.16.188,GoFitts,2023.2.3,Win32,59.88023952,"[-17.90020784189476,-170.3091012141186]","[-17.900207841894606,170.30910121411864]",55,342.4944227,3.75,0,0.4525,"[-22,-22,-22,-22,-22,-22,-22,-22,-22,-22,-22,-22,-22,-22,-22,-21,-21,-19,-17,-20,-30,-42,-46,-48,-48,-42,-36,-32,-30,-30,-30,-30,-30,-30,-30,-30,-30,-30,-30,-30,-30,-30,-30,-30,-29,-29,-29,-29,-29,-29,-29,-28,-28,-27,-27,-27,-27,-27,-27,-27,-27,-27,-27,-27,-27,-27,-27,-27,-27,-27,-27,-27]","[-161,-161,-161,-161,-161,-161,-159,-157,-154,-153,-153,-151,-150,-149,-146,-139,-137,-112,-83,-45,-7,29,45,70,111,130,143,152,161,165,165,166,166,166,166,166,166,166,166,166,166,166,166,166,166,166,166,166,166,166,166,165,164,164,164,163,163,163,163,163,163,163,163,163,163,163,163,163,163,163,163,163]","[0,0,0,0,0,0,0,0,0,0,0,0,0,0,0,0,0,0,0,0,0,0,0,0,0,0,0,0,0,0,0,0,0,0,0,0,0,0,0,0,0,0,1,1,1,1,1,1,0,0,0,0,0,0,0,0,0,0,0,0,0,0,0,0,0,0,0,0,0,0,0,0]","[0,0,0,0,0,0,0,0,0,0,0,0,0,0,0,0,0,0,0,0,0,0,0,0,0,0,0,0,0,0,0,0,0,0,0,0,0,0,0,0,0,0,0,0,0,0,0,0,0,0,0,0,0,0,0,0,0,0,0,0,0,0,0,0,0,0,0,0,0,0,0,0]","[0,0,0,0,0,0,0,0,0,0,0,0,0,0,0,0,0,0,0,0,0,0,0,0,0,0,0,0,0,0,0,0,0,0,0,0,0,0,0,0,0,0,0,0,0,0,0,0,0,0,0,0,0,0,0,0,0,0,0,0,0,0,0,0,0,0,0,0,0,0,0,0]","[0,0.01920000004768241,0.03190000009536931,0.048600000023846235,0.06530000007153092,0.08170000004768241,0.09930000007152984,0.11570000004768843,0.13250000000000028,0.14920000004768497,0.16530000007152523,0.18230000007152825,0.19900000000000517,0.21570000004768275,0.23220000004768337,0.2517000000476841,0.26480000007152427,0.28570000004768303,0.29920000004768355,0.31570000004768417,0.33240000009536885,0.3489000000953695,0.3653000000715281,0.3852000000476892,0.40140000009537147,0.41499999999999915,0.43520000004768633,0.45250000000000057,0.4684999999999988,0.4852000000476835,0.49849999999999994,0.515600000023845,0.5320000000000036,0.5484000000953699,0.5690000000000026,0.5816000000238404,0.5986000000238434,0.6179000000953678,0.6319000000953707,0.6484999999999985,0.6651000000238412,0.6858000000715307,0.6988000000715289,0.7151000000238454,0.7323000000715254,0.748700000047684,0.7653000000715267,0.7819000000953693,0.7981000000238438,0.8151000000238469,0.8316000000238404,0.8484000000953671,0.8656000000238464,0.8859000000953685,0.8986000000238406,0.9155000000000015,0.9356000000238467,0.9486000000238448,0.9654000000953715,0.9819999999999993,1.0027000000476889,1.015500000000003,1.0320000000000036,1.0485000000000042,1.0652000000476889,1.0820000000000007,1.0985000000000014,1.115300000071528,1.132000000000005,1.1484999999999985,1.1652000000476832,1.1820000000000022]",6,0,6,0,1,0.2517,,,,
A000000000-1,2025-04-16_14h20.16.188,GoFitts,2023.2.3,Win32,59.88023952,"[-17.900207841894606,170.30910121411864]","[52.918298548265966,-162.86577625732338]",55,342.4944227,3.75,0,0.7708,"[-27,-27,-27,-27,-27,-27,-27,-27,-27,-27,-27,-27,-27,-27,-27,-27,-27,-27,-27,-27,-27,-20,-17,-4,5,10,15,18,24,36,50,70,79,80,81,81,81,81,81,80,80,79,79,79,77,73,69,69,69,69,69,68,67,64,61,59,58,57,57,57,57,56,56,55,53,52,52,51,51,51,50,49,49,49,49,49,49,49,49,49,49,49,49,49,49,49,49,49,49,49]","[163,163,163,163,163,163,163,163,163,163,163,163,163,163,163,163,163,163,163,163,158,134,123,86,60,33,6,-19,-42,-74,-91,-105,-111,-111,-110,-104,-99,-98,-103,-111,-120,-124,-125,-125,-126,-133,-142,-146,-149,-149,-149,-149,-149,-147,-147,-147,-147,-148,-148,-148,-148,-148,-148,-148,-149,-149,-149,-149,-149,-149,-149,-149,-149,-149,-149,-149,-149,-149,-149,-149,-149,-149,-149,-149,-149,-149,-149,-149,-149,-149]","[0,0,0,0,0,0,0,0,0,0,0,0,0,0,0,0,0,0,0,0,0,0,0,0,0,0,0,0,0,0,0,0,0,0,0,0,0,0,0,0,0,0,0,0,0,0,0,0,0,0,0,0,0,0,0,0,0,0,0,0,0,1,1,1,1,1,1,0,0,0,0,0,0,0,0,0,0,0,0,0,0,0,0,0,0,0,0,0,0,0]","[0,0,0,0,0,0,0,0,0,0,0,0,0,0,0,0,0,0,0,0,0,0,0,0,0,0,0,0,0,0,0,0,0,0,0,0,0,0,0,0,0,0,0,0,0,0,0,0,0,0,0,0,0,0,0,0,0,0,0,0,0,0,0,0,0,0,0,0,0,0,0,0,0,0,0,0,0,0,0,0,0,0,0,0,0,0,0,0,0,0]","[0,0,0,0,0,0,0,0,0,0,0,0,0,0,0,0,0,0,0,0,0,0,0,0,0,0,0,0,0,0,0,0,0,0,0,0,0,0,0,0,0,0,0,0,0,0,0,0,0,0,0,0,0,0,0,0,0,0,0,0,0,0,0,0,0,0,0,0,0,0,0,0,0,0,0,0,0,0,0,0,0,0,0,0,0,0,0,0,0,0]","[0,0.01939999997615871,0.03200000000000358,0.04889999997615746,0.06539999997615809,0.0822000000476848,0.0987999999523197,0.11539999997616235,0.13210000002384703,0.14879999995231685,0.16550000000000153,0.1817999999523181,0.19839999997616076,0.21539999997615666,0.23179999995231526,0.248700000047684,0.265600000023845,0.28220000004768764,0.29870000004768826,0.3153999999761581,0.3323999999761611,0.3533999999761619,0.3656000000238464,0.38239999997615826,0.39910000002384294,0.41579999995231987,0.43250000000000455,0.4491000000238472,0.4660000000000011,0.48260000002384373,0.49929999995232066,0.5198999999761611,0.536799999952315,0.5492000000476835,0.5660000000000025,0.5826000000238452,0.599299999952315,0.6158999999761576,0.6361000000238448,0.6532000000476827,0.6658999999761619,0.6825000000000045,0.6992000000476821,0.7154999999999987,0.7326000000238437,0.7493999999761627,0.7707999999523167,0.7865000000000038,0.8030000000000044,0.8155000000000001,0.8321000000238428,0.8491000000238458,0.8657999999523156,0.8823999999761583,0.8990000000000009,0.9158999999761619,0.9323999999761625,0.9491000000238472,0.9692999999523195,0.9822000000476834,0.9987999999523183,1.015600000023845,1.0321000000238456,1.0491000000238415,1.0656000000238421,1.082399999976161,1.0985000000000014,1.11489999997616,1.132200000047689,1.1511000000238454,1.1652999999523175,1.185899999976158,1.1987999999523211,1.2154999999999987,1.2321000000238413,1.248700000047684,1.265500000000003,1.2821000000238456,1.2987000000476883,1.3202000000476843,1.3356000000238453,1.3487999999523197,1.3655000000000044,1.382000000000005,1.3987000000476826,1.4153999999761595,1.4322999999523205,1.4487999999523211,1.4656000000238407,1.4822000000476834]",7,0,7,0,1,0.3534,,,,
A000000000-1,2025-04-16_14h20.16.188,GoFitts,2023.2.3,Win32,59.88023952,"[52.918298548265966,-162.86577625732338]","[-85.62360567790856,148.3044353613807]",55,342.4944227,3.75,0,0.6701,"[49,49,49,49,48,48,47,47,46,45,44,42,41,41,40,40,36,33,19,-24,-41,-79,-92,-99,-102,-106,-114,-122,-125,-127,-127,-127,-127,-127,-127,-127,-127,-125,-119,-110,-99,-81,-76,-70,-69,-69,-69,-69,-69,-69,-69,-69,-69,-69,-69,-69,-69,-69,-69,-69,-69,-69,-69,-70,-71,-72,-72,-73,-73,-73,-73,-73,-73,-73,-73,-73,-73,-73,-73,-73,-73,-73,-73,-73,-73]","[-149,-149,-149,-149,-148,-147,-146,-145,-144,-142,-141,-140,-138,-137,-137,-136,-125,-115,-85,-1,24,81,102,118,131,143,158,172,178,181,184,186,187,187,187,187,185,182,180,175,168,158,154,149,146,144,143,142,142,142,142,142,142,142,143,145,146,146,146,146,146,146,146,146,146,146,146,145,144,144,144,144,144,144,144,144,144,144,144,144,144,144,144,144,144]","[0,0,0,0,0,0,0,0,0,0,0,0,0,0,0,0,0,0,0,0,0,0,0,0,0,0,0,0,0,0,0,0,0,0,0,0,0,0,0,0,0,0,0,0,0,0,0,0,0,0,0,0,0,0,1,1,1,1,1,1,1,0,0,0,0,0,0,0,0,0,0,0,0,0,0,0,0,0,0,0,0,0,0,0,0]","[0,0,0,0,0,0,0,0,0,0,0,0,0,0,0,0,0,0,0,0,0,0,0,0,0,0,0,0,0,0,0,0,0,0,0,0,0,0,0,0,0,0,0,0,0,0,0,0,0,0,0,0,0,0,0,0,0,0,0,0,0,0,0,0,0,0,0,0,0,0,0,0,0,0,0,0,0,0,0,0,0,0,0,0,0]","[0,0,0,0,0,0,0,0,0,0,0,0,0,0,0,0,0,0,0,0,0,0,0,0,0,0,0,0,0,0,0,0,0,0,0,0,0,0,0,0,0,0,0,0,0,0,0,0,0,0,0,0,0,0,0,0,0,0,0,0,0,0,0,0,0,0,0,0,0,0,0,0,0,0,0,0,0,0,0,0,0,0,0,0,0]","[0,0.01889999997616343,0.031699999928477496,0.04829999995232015,0.06550000000000011,0.08229999995231907,0.09889999997616172,0.11539999997616235,0.13210000002384703,0.14879999995231685,0.16560000002384356,0.18239999997616252,0.2026000000238426,0.21950000000000358,0.23229999995231765,0.2488999999761603,0.2698999999761611,0.28239999997616394,0.2989999999999995,0.31929999995232095,0.33219999992847704,0.3523999999761571,0.3692999999523181,0.3855000000000004,0.39939999997616127,0.4193999999761573,0.43269999992847374,0.45300000000000296,0.4656000000238407,0.4825000000000017,0.4987999999523183,0.515600000023845,0.5323999999761639,0.5485000000000042,0.565199999928474,0.5818999999761587,0.5987999999523197,0.6155000000000044,0.6321999999284742,0.6490000000000009,0.6701000000238437,0.6859999999999999,0.6988999999761631,0.7155000000000058,0.7321999999284756,0.7488999999761603,0.765600000023845,0.7821999999284799,0.7985000000000042,0.815199999928474,0.8318999999761587,0.8485000000000014,0.865100000023844,0.881799999952321,0.8987999999523169,0.9155000000000015,0.9321000000238442,0.9485000000000028,0.9651000000238454,0.9816999999284732,0.9981999999284739,1.0147999999523165,1.0316000000238432,1.0487999999523154,1.0656999999284764,1.0860000000000056,1.1021999999284802,1.1156000000238464,1.132100000023847,1.1485000000000056,1.1649999999999991,1.1818999999761601,1.1983999999761608,1.218699999928475,1.2317999999523153,1.248600000023842,1.2650000000000006,1.2817999999523195,1.2983999999761622,1.315199999928474,1.3316999999284747,1.3486000000238434,1.365100000023844,1.381699999928479,1.3986000000238477]",8,0,8,0,1,0.2025,,,,
A000000000-1,2025-04-16_14h20.16.188,GoFitts,2023.2.3,Win32,59.88023952,"[-85.62360567790856,148.3044353613807]","[114.58675037178155,-127.26147899650918]",55,342.4944227,3.75,0,0.8038,"[-73,-73,-73,-73,-73,-73,-73,-73,-73,-73,-73,-73,-73,-73,-73,-73,-73,-73,-73,-73,-73,-71,-64,-56,-3,25,46,62,73,80,83,83,83,83,83,83,83,83,83,83,83,85,86,86,86,87,88,89,92,94,94,94,94,96,99,104,111,114,114,114,114,114,113,113,112,112,112,112,112,112,112,111,111,111,111,111,111,111,111,111,111,111,111,111,111,111,111,111,111,111,111,111]","[144,144,144,144,144,144,144,144,144,144,144,144,144,144,144,144,144,144,144,144,142,122,96,76,3,-24,-38,-49,-55,-58,-59,-59,-60,-61,-61,-61,-61,-61,-61,-75,-93,-106,-116,-117,-117,-116,-115,-115,-117,-118,-118,-119,-119,-119,-119,-119,-123,-123,-124,-125,-125,-124,-124,-123,-122,-122,-121,-120,-119,-119,-119,-119,-119,-119,-119,-119,-119,-119,-119,-119,-119,-119,-119,-119,-119,-119,-119,-119,-119,-119,-119,-119]","[0,0,0,0,0,0,0,0,0,0,0,0,0,0,0,0,0,0,0,0,0,0,0,0,0,0,0,0,0,0,0,0,0,0,0,0,0,0,0,0,0,0,0,0,0,0,0,0,0,0,0,0,0,0,0,0,0,0,0,0,0,0,1,1,1,1,1,1,1,0,0,0,0,0,0,0,0,0,0,0,0,0,0,0,0,0,0,0,0,0,0,0]","[0,0,0,0,0,0,0,0,0,0,0,0,0,0,0,0,0,0,0,0,0,0,0,0,0,0,0,0,0,0,0,0,0,0,0,0,0,0,0,0,0,0,0,0,0,0,0,0,0,0,0,0,0,0,0,0,0,0,0,0,0,0,0,0,0,0,0,0,0,0,0,0,0,0,0,0,0,0,0,0,0,0,0,0,0,0,0,0,0,0,0,0]","[0,0,0,0,0,0,0,0,0,0,0,0,0,0,0,0,0,0,0,0,0,0,0,0,0,0,0,0,0,0,0,0,0,0,0,0,0,0,0,0,0,0,0,0,0,0,0,0,0,0,0,0,0,0,0,0,0,0,0,0,0,0,0,0,0,0,0,0,0,0,0,0,0,0,0,0,0,0,0,0,0,0,0,0,0,0,0,0,0,0,0,0]","[0,0.01899999999999835,0.03179999995231242,0.0484999999999971,0.06529999995231606,0.0818999999761516,0.09860000002383629,0.11529999995231321,0.13189999997615587,0.1483999999761565,0.1652000000476832,0.18170000004768383,0.1986000000238377,0.21520000004768036,0.2318999999761573,0.24849999999999994,0.2647999999523165,0.2821000000238385,0.29889999997615746,0.31529999995231606,0.33229999995231196,0.3532000000476785,0.36549999999999727,0.38220000004768195,0.4031000000238407,0.4153999999761524,0.4363999999761532,0.4527999999523118,0.46939999997615445,0.4824999999999946,0.4989999999999952,0.5188999999761563,0.5323999999761568,0.5528999999761552,0.5651000000238398,0.5817999999523096,0.5986000000238363,0.6152999999523132,0.6319999999999979,0.6489999999999938,0.6656000000238365,0.6823999999761554,0.6989999999999981,0.7191000000238361,0.7318999999761573,0.7488999999761532,0.7673999999761563,0.7823999999761568,0.8037999999523109,0.8197999999523162,0.8321000000238357,0.8491000000238387,0.8652000000476789,0.8822999999523162,0.8989999999999938,0.9156000000238365,0.9322999999523134,0.9492000000476821,0.9697000000476805,0.9823999999761526,0.998600000023842,1.0156000000238379,1.0319999999999965,1.0489999999999995,1.0656000000238421,1.0817999999523096,1.0989999999999966,1.1162999999523109,1.1322999999523162,1.1484999999999985,1.1651000000238412,1.181799999952311,1.1987000000476797,1.2152999999523146,1.2318999999761573,1.248700000047684,1.2652999999523118,1.2819999999999965,1.2987000000476812,1.3151000000238398,1.3317999999523096,1.3514999999999944,1.3652999999523132,1.3817999999523138,1.3986000000238406,1.4152000000476832,1.431999999999995,1.4486000000238377,1.4652999999523146,1.4819999999999993,1.498600000023842,1.5154999999999959]",9,0,9,0,1,0.3532,,,,
A000000000-1,2025-04-16_14h20.16.188,GoFitts,2023.2.3,Win32,59.88023952,"[114.58675037178155,-127.26147899650918]","[-138.54190422617458,100.65658533116151]",55,342.4944227,3.75,0,0.6988,"[111,111,111,111,111,111,111,111,111,111,111,111,111,111,111,111,111,109,102,87,2,-79,-119,-185,-197,-200,-202,-204,-205,-206,-206,-206,-206,-206,-206,-203,-197,-191,-180,-174,-168,-163,-157,-151,-146,-142,-140,-140,-140,-140,-140,-140,-140,-140,-140,-140,-140,-140,-140,-140,-140,-140,-141,-143,-143,-143,-143,-143,-143,-143,-143,-143,-143,-143,-143,-143,-143,-143,-143,-143,-143,-143,-143,-143,-143,-143,-143]","[-119,-119,-119,-119,-119,-119,-119,-119,-119,-119,-119,-119,-119,-119,-119,-119,-119,-118,-111,-97,-26,26,49,94,110,124,139,155,165,173,174,174,174,173,169,165,161,155,147,141,133,121,109,100,92,88,86,86,86,89,92,93,95,95,96,96,97,97,97,97,97,97,98,98,98,98,98,98,98,98,98,98,98,98,98,98,98,98,98,98,98,99,99,99,99,99,99]","[0,0,0,0,0,0,0,0,0,0,0,0,0,0,0,0,0,0,0,0,0,0,0,0,0,0,0,0,0,0,0,0,0,0,0,0,0,0,0,0,0,0,0,0,0,0,0,0,0,0,0,0,0,1,1,1,1,1,1,1,1,0,0,0,0,0,0,0,0,0,0,0,0,0,0,0,0,0,0,0,0,0,0,0,0,0,0]","[0,0,0,0,0,0,0,0,0,0,0,0,0,0,0,0,0,0,0,0,0,0,0,0,0,0,0,0,0,0,0,0,0,0,0,0,0,0,0,0,0,0,0,0,0,0,0,0,0,0,0,0,0,0,0,0,0,0,0,0,0,0,0,0,0,0,0,0,0,0,0,0,0,0,0,0,0,0,0,0,0,0,0,0,0,0,0]","[0,0,0,0,0,0,0,0,0,0,0,0,0,0,0,0,0,0,0,0,0,0,0,0,0,0,0,0,0,0,0,0,0,0,0,0,0,0,0,0,0,0,0,0,0,0,0,0,0,0,0,0,0,0,0,0,0,0,0,0,0,0,0,0,0,0,0,0,0,0,0,0,0,0,0,0,0,0,0,0,0,0,0,0,0,0,0]","[0,0.019800000071526824,0.03539999997615695,0.04839999997616218,0.0648999999761557,0.08160000002384038,0.09839999997615934,0.11500000000000199,0.13170000004768667,0.14830000007152933,0.16489999997615712,0.18180000007152586,0.19839999997616076,0.2153000000715295,0.23150000000000404,0.24830000007152364,0.26489999997615854,0.28189999997616155,0.29860000002384623,0.31570000004768417,0.3347000000476825,0.3487000000476854,0.3653000000715281,0.3821000000238399,0.3987000000476826,0.41530000007152523,0.4322000000476862,0.44889999997615604,0.46589999997615905,0.4858000000715279,0.49880000007152603,0.5187000000476871,0.5317000000476853,0.5485000000000042,0.5653000000715238,0.5822000000476848,0.5988000000715274,0.6156000000238464,0.632200000047682,0.6483999999761565,0.6655000000000015,0.6822000000476862,0.6988000000715289,0.7196000000238456,0.7322000000476834,0.7484999999999999,0.7644999999999982,0.785399999976157,0.7982000000476859,0.8153999999761581,0.8321000000238428,0.8486000000238434,0.8653999999761623,0.8816000000238446,0.8987000000476826,0.9149999999999991,0.9322000000476862,0.9483999999761608,0.9650000000000034,0.9818000000715301,0.9982000000476816,1.0147000000476822,1.0313999999761592,1.0480000000000018,1.0651000000238398,1.0818000000715244,1.098300000071525,1.11489999997616,1.1317000000476867,1.1482000000476873,1.1648999999761571,1.1817000000476838,1.1983999999761608,1.2148999999761614,1.231700000047688,1.2509999999999977,1.2651000000238426,1.2817000000476853,1.2982000000476859,1.3149999999999977,1.3316000000238404,1.3488000000715274,1.365000000000002,1.3815000000000026,1.3983999999761565,1.4148999999761571,1.4318999999761601]",10,0,10,0,1,0.3156,,,,
A000000000-1,2025-04-16_14h20.16.188,GoFitts,2023.2.3,Win32,59.88023952,"[-138.54190422617458,100.65658533116151]","[156.44211206806924,-69.65251588295713]",55,342.4944227,3.75,0,0.4658,"[-143,-143,-143,-143,-143,-143,-143,-143,-143,-143,-143,-143,-143,-143,-143,-143,-143,-143,-143,-143,-141,-136,-101,-3,48,74,92,115,130,137,147,148,148,148,147,147,147,147,147,147,147,147,147,147,148,150,153,154,154,154,151,151,151,151,151,151,151,151,151,151,151,151,151,151,151,151,151,151,151,151,151,151]","[99,99,99,99,99,99,99,99,99,99,99,99,99,99,99,99,99,99,99,99,89,80,55,6,-15,-27,-42,-61,-70,-75,-79,-79,-77,-74,-70,-70,-70,-70,-70,-70,-70,-70,-70,-69,-69,-69,-69,-68,-67,-67,-64,-64,-64,-64,-64,-64,-64,-64,-64,-64,-64,-64,-64,-64,-64,-64,-64,-64,-64,-64,-64,-64]","[0,0,0,0,0,0,0,0,0,0,0,0,0,0,0,0,0,0,0,0,0,0,0,0,0,0,0,0,0,0,0,0,0,0,0,0,0,0,0,0,0,0,0,0,0,1,1,1,1,1,1,0,0,0,0,0,0,0,0,0,0,0,0,0,0,0,0,0,0,0,0,0]","[0,0,0,0,0,0,0,0,0,0,0,0,0,0,0,0,0,0,0,0,0,0,0,0,0,0,0,0,0,0,0,0,0,0,0,0,0,0,0,0,0,0,0,0,0,0,0,0,0,0,0,0,0,0,0,0,0,0,0,0,0,0,0,0,0,0,0,0,0,0,0,0]","[0,0,0,0,0,0,0,0,0,0,0,0,0,0,0,0,0,0,0,0,0,0,0,0,0,0,0,0,0,0,0,0,0,0,0,0,0,0,0,0,0,0,0,0,0,0,0,0,0,0,0,0,0,0,0,0,0,0,0,0,0,0,0,0,0,0,0,0,0,0,0,0]","[0,0.01880000007152205,0.03170000004768525,0.048300000071527904,0.06499999999999773,0.08170000004768241,0.09840000009536709,0.11490000009536772,0.13170000004767957,0.14810000002383816,0.16490000009536487,0.18170000004768383,0.19810000002384243,0.2149999999999963,0.23160000002383896,0.24830000007152364,0.26500000000000057,0.28170000004768525,0.2983000000715279,0.3149999999999977,0.33200000000000074,0.3486000000238434,0.36549999999999727,0.38570000004768445,0.3987000000476826,0.41890000009536976,0.4319000000953679,0.4524000000953663,0.4658000000715248,0.48590000009536993,0.498700000047684,0.5153000000715267,0.5321000000238385,0.5487000000476812,0.5692000000476796,0.5818000000715244,0.5983000000715251,0.6149000000953677,0.6314999999999955,0.6482000000476802,0.6649999999999991,0.6817000000476838,0.6983000000715265,0.7154000000953644,0.7339000000953675,0.748600000023842,0.7654000000953687,0.7819000000953693,0.802900000095363,0.8148000000715214,0.8319000000953665,0.8509999999999991,0.8646000000238416,0.8816000000238375,0.8984999999999985,0.9149000000953649,0.9314999999999998,0.9483000000715265,0.9648000000715271,0.9814000000953698,0.9984000000953657,1.0177000000476824,1.0318000000715273,1.048300000071528,1.0653000000715238,1.0817000000476824,1.098200000047683,1.1149000000953677,1.1316000000238375,1.1482000000476802,1.1649999999999991,1.1818000000715259]",11,0,11,0,1,0.3655,,,,
A000000000-1,2025-04-16_14h20.16.188,GoFitts,2023.2.3,Win32,59.88023952,"[156.44211206806924,-69.65251588295713]","[-167.50504892004753,35.60429726081415]",55,342.4944227,3.75,0,0.5327,"[151,151,151,151,151,151,151,151,151,151,151,151,151,151,151,151,151,151,151,144,126,74,48,-8,-70,-93,-108,-116,-118,-122,-130,-137,-147,-154,-155,-155,-155,-155,-155,-155,-155,-155,-155,-155,-155,-155,-155,-155,-155,-156,-157,-157,-158,-158,-159,-160,-160,-160,-160,-160,-160,-160,-160,-160,-160,-160,-160,-160,-160,-160,-160,-160,-160,-160,-160,-160]","[-64,-64,-64,-64,-64,-64,-64,-64,-64,-64,-64,-64,-64,-64,-64,-64,-64,-64,-64,-64,-64,-62,-58,-38,-9,6,17,23,25,27,30,31,32,33,33,33,33,33,33,33,33,33,33,33,33,33,33,33,34,34,35,35,35,35,36,36,36,36,36,37,37,37,37,37,37,37,37,38,38,38,38,38,38,38,38,38]","[0,0,0,0,0,0,0,0,0,0,0,0,0,0,0,0,0,0,0,0,0,0,0,0,0,0,0,0,0,0,0,0,0,0,0,0,0,0,0,0,0,0,0,0,0,1,1,1,1,1,1,1,0,0,0,0,0,0,0,0,0,0,0,0,0,0,0,0,0,0,0,0,0,0,0,0]","[0,0,0,0,0,0,0,0,0,0,0,0,0,0,0,0,0,0,0,0,0,0,0,0,0,0,0,0,0,0,0,0,0,0,0,0,0,0,0,0,0,0,0,0,0,0,0,0,0,0,0,0,0,0,0,0,0,0,0,0,0,0,0,0,0,0,0,0,0,0,0,0,0,0,0,0]","[0,0,0,0,0,0,0,0,0,0,0,0,0,0,0,0,0,0,0,0,0,0,0,0,0,0,0,0,0,0,0,0,0,0,0,0,0,0,0,0,0,0,0,0,0,0,0,0,0,0,0,0,0,0,0,0,0,0,0,0,0,0,0,0,0,0,0,0,0,0,0,0,0,0,0,0]","[0,0.018899999976156323,0.03170000004768525,0.04860000002383913,0.06520000004768178,0.08189999997615871,0.09870000004768542,0.11530000007152807,0.13189999997615587,0.14849999999999852,0.16510000002384118,0.18139999997615774,0.19820000004768445,0.21810000002383845,0.23180000007152302,0.24849999999999994,0.26500000000000057,0.28189999997615445,0.29860000002383913,0.3153999999761581,0.33260000002383805,0.3533000000715276,0.3656000000238393,0.382300000071524,0.3990000000000009,0.41530000007152523,0.4356000000238396,0.4491000000238401,0.4653000000715224,0.4852000000476835,0.5017000000476841,0.5151000000238426,0.5327000000476829,0.5532000000476813,0.5655000000000001,0.5818999999761587,0.5985000000000014,0.615100000023844,0.6319999999999979,0.6484999999999985,0.6651000000238412,0.6818999999761601,0.6983999999761537,0.7152000000476804,0.7318999999761573,0.748600000023842,0.7651000000238426,0.7818999999761544,0.7989999999999995,0.8188999999761606,0.8321000000238428,0.8485000000000014,0.865000000000002,0.8813999999761606,0.8984999999999985,0.9158999999761548,0.9356000000238396,0.9484999999999957,0.9652000000476804,0.9822000000476834,0.9984999999999999,1.0150000000000006,1.0317000000476853,1.048399999976155,1.0651000000238398,1.085300000071527,1.0985000000000014,1.1158000000715234,1.1318000000715216,1.1486000000238406,1.1653000000715252,1.1818999999761601,1.1984999999999957,1.2152000000476804,1.2318999999761573,1.248600000023842]",12,0,12,0,1,0.3325,,,,
A000000000-1,2025-04-16_14h20.16.188,GoFitts,2023.2.3,Win32,59.88023952,"[-167.50504892004753,35.60429726081415]","[171.2472113558172,0]",55,342.4944227,3.75,0,0.6162,"[-160,-160,-160,-160,-160,-160,-157,-68,15,50,102,121,138,162,188,220,247,249,258,258,258,254,252,252,252,252,252,251,249,244,234,222,196,189,186,184,184,184,184,184,184,184,184,181,179,177,177,176,176,175,171,169,165,163,162,161,160,159,159,159,159,159,158,158,158,158,158,158,158,158,158,158,158,158,158,158,158,158,158,158,158,158]","[38,38,39,39,39,39,19,-52,-84,-94,-104,-105,-103,-95,-87,-82,-81,-81,-81,-81,-81,-79,-78,-78,-78,-78,-78,-75,-70,-64,-57,-49,-35,-30,-28,-25,-25,-24,-23,-23,-23,-23,-23,-22,-22,-22,-21,-20,-17,-15,-14,-12,-12,-12,-11,-10,-9,-9,-9,-9,-9,-9,-9,-9,-9,-9,-9,-9,-9,-9,-9,-9,-9,-9,-9,-9,-9,-9,-9,-9,-9,-9]","[0,0,0,0,0,0,0,0,0,0,0,0,0,0,0,0,0,0,0,0,0,0,0,0,0,0,0,0,0,0,0,0,0,0,0,0,0,0,0,0,0,0,0,0,0,0,0,1,1,1,1,1,1,1,1,0,0,0,0,0,0,0,0,0,0,0,0,0,0,0,0,0,0,0,0,0,0,0,0,0,0,0]","[0,0,0,0,0,0,0,0,0,0,0,0,0,0,0,0,0,0,0,0,0,0,0,0,0,0,0,0,0,0,0,0,0,0,0,0,0,0,0,0,0,0,0,0,0,0,0,0,0,0,0,0,0,0,0,0,0,0,0,0,0,0,0,0,0,0,0,0,0,0,0,0,0,0,0,0,0,0,0,0,0,0]","[0,0,0,0,0,0,0,0,0,0,0,0,0,0,0,0,0,0,0,0,0,0,0,0,0,0,0,0,0,0,0,0,0,0,0,0,0,0,0,0,0,0,0,0,0,0,0,0,0,0,0,0,0,0,0,0,0,0,0,0,0,0,0,0,0,0,0,0,0,0,0,0,0,0,0,0,0,0,0,0,0,0]","[0,0.019900000095368853,0.036000000000001364,0.04899999999999949,0.06540000009536584,0.08180000007152444,0.09890000009536948,0.11590000009536539,0.13599999999999568,0.1490000000000009,0.1657000000476856,0.18230000007152825,0.1991000000238401,0.21970000004768053,0.23240000009536743,0.25310000002384214,0.27010000002383805,0.28249999999999886,0.2991000000238415,0.3153000000715238,0.33180000007152444,0.3486000000238434,0.3656000000238393,0.3819999999999979,0.3988000000715246,0.41530000007152523,0.43200000000000216,0.44899999999999807,0.46570000004768275,0.48240000009536743,0.49890000009536806,0.5161000000238403,0.5363000000715274,0.5531000000238393,0.5657000000476842,0.5824000000953689,0.5987000000476854,0.6162000000476837,0.6361000000238377,0.6486000000238406,0.6654000000953673,0.6819000000953679,0.6986000000238377,0.7154999999999987,0.7324000000953674,0.7492000000476864,0.7656000000238379,0.7821000000238385,0.7991000000238415,0.8156000000238421,0.8363000000715246,0.8489999999999966,0.8657000000476813,0.8859000000953685,0.899200000047685,0.9151000000238412,0.9321000000238442,0.9531000000238379,0.9652000000476804,0.9849999999999994,0.9989000000953681,1.0153000000715267,1.0324000000953646,1.0486000000238391,1.0653000000715238,1.0820000000000007,1.0986000000238434,1.11540000009537,1.132100000023847,1.1486000000238406,1.1694000000953721,1.181999999999995,1.1985000000000028,1.2154000000953644,1.2319000000953721,1.2486000000238349,1.2653000000715267,1.2820000000000036,1.2986000000238462,1.3153000000715238,1.3320000000000007,1.3488000000715274]",13,0,13,0,1,0.1159,,,,
A000000000-1,2025-04-16_14h20.16.188,GoFitts,2023.2.3,Win32,59.88023952,"[171.2472113558172,0]","[-167.50504892004753,-35.60429726081411]",55,342.4944227,3.75,0,0.7829,"[158,158,158,158,158,158,158,158,158,158,158,158,158,158,158,158,158,158,158,158,158,158,158,158,158,149,86,-35,-126,-196,-224,-231,-231,-229,-229,-229,-229,-229,-229,-229,-229,-229,-229,-229,-226,-217,-200,-183,-175,-175,-175,-175,-175,-175,-175,-175,-175,-175,-175,-175,-175,-175,-175,-175,-175,-175,-175,-175,-175,-175,-175,-175,-175,-175,-175,-175,-175,-175,-175,-175,-175,-175,-175,-174,-167,-159,-125,-86,-57,-20,10]","[-9,-9,-9,-9,-9,-9,-9,-9,-9,-9,-9,-9,-9,-9,-9,-9,-9,-9,-9,-9,-9,-9,-9,-9,-9,-9,-11,-20,-25,-31,-33,-34,-34,-34,-34,-34,-34,-34,-34,-34,-34,-34,-34,-33,-33,-33,-33,-33,-33,-33,-33,-33,-33,-33,-33,-33,-33,-33,-33,-33,-33,-33,-33,-33,-33,-33,-33,-33,-33,-33,-33,-33,-33,-33,-33,-33,-33,-33,-33,-33,-32,-31,-31,-30,-27,-25,-17,-9,0,12,20]","[0,0,0,0,0,0,0,0,0,0,0,0,0,0,0,0,0,0,0,0,0,0,0,0,0,0,0,0,0,0,0,0,0,0,0,0,0,0,0,0,0,0,0,0,0,0,0,0,0,0,0,0,0,0,0,0,0,0,0,0,0,0,0,0,0,0,0,0,0,0,0,0,0,1,1,1,1,1,1,1,0,0,0,0,0,0,0,0,0,0,0]","[0,0,0,0,0,0,0,0,0,0,0,0,0,0,0,0,0,0,0,0,0,0,0,0,0,0,0,0,0,0,0,0,0,0,0,0,0,0,0,0,0,0,0,0,0,0,0,0,0,0,0,0,0,0,0,0,0,0,0,0,0,0,0,0,0,0,0,0,0,0,0,0,0,0,0,0,0,0,0,0,0,0,0,0,0,0,0,0,0,0,0]","[0,0,0,0,0,0,0,0,0,0,0,0,0,0,0,0,0,0,0,0,0,0,0,0,0,0,0,0,0,0,0,0,0,0,0,0,0,0,0,0,0,0,0,0,0,0,0,0,0,0,0,0,0,0,0,0,0,0,0,0,0,0,0,0,0,0,0,0,0,0,0,0,0,0,0,0,0,0,0,0,0,0,0,0,0,0,0,0,0,0,0]","[0,0.02049999999999841,0.035699999928468173,0.04889999997615746,0.06550000000000011,0.08209999990462791,0.09869999992847056,0.11539999997616235,0.13209999990462507,0.1485999999046328,0.16549999999999443,0.18209999990463643,0.19859999990462995,0.21529999995232174,0.23219999992846851,0.24879999995231117,0.2653999999761538,0.28189999997616155,0.2985999999046385,0.3151999999284669,0.33199999999999363,0.3488999999761546,0.3652999999523132,0.382000000000005,0.3988999999761518,0.41569999992847784,0.43250000000000455,0.4532999999523213,0.4697999999523148,0.4861999999284734,0.5027999999523161,0.515500000000003,0.535499999999999,0.5489999999999924,0.565399999976151,0.5818999999761587,0.5985999999046356,0.6152999999523132,0.632000000000005,0.6486999999284677,0.6654999999999944,0.6820999999046364,0.698799999952314,0.715699999928475,0.7355000000000018,0.7491999999284786,0.7657999999523213,0.7828999999761521,0.8030999999046315,0.8152999999523161,0.8317999999523096,0.8485999999046356,0.8653999999761623,0.8820999999046251,0.8986999999284677,0.9152999999523104,0.9320999999046364,0.94859999990463,0.9652999999523217,0.9819999999999993,0.9986999999284762,1.015299999952319,1.0320999999046307,1.0485999999046385,1.065399999976151,1.0819999999999936,1.0987999999523197,1.1153999999761623,1.132099999904625,1.1485999999046328,1.1651999999284754,1.1820000000000022,1.198699999928479,1.2152999999523217,1.2320999999046336,1.2487999999523112,1.2653999999761538,1.2820999999046307,1.2988999999761575,1.3155000000000001,1.3340999999046375,1.3513999999761523,1.3652999999523132,1.3826999999284766,1.4026999999284726,1.4159999999999968,1.4329999999999927,1.4535000000000053,1.4653999999761567,1.4823999999761526,1.4993999999761627]",14,0,14,0,1,0.4325,,,,
A000000000-1,2025-04-16_14h20.16.188,GoFitts,2023.2.3,Win32,59.88023952,,,,,,0,,,,,,,,,,,,,,0,0,0,1
A000000000-1,2025-04-16_14h20.16.188,GoFitts,2023.2.3,Win32,59.88023952,"[71,45]","[277.1465798298843,-307.8024600011772]",21,828.3781289,6.32,1,4.1329,"[71,71,71,71,71,71,71,71,71,71,71,71,71,71,71,71,71,71,71,71,71,71,71,71,71,71,71,71,71,71,71,71,71,71,71,71,71,71,71,71,71,71,71,71,71,71,71,71,71,71,71,71,71,71,71,71,71,64,61,53,39,34,31,29,29,29,28,28,28,28,28,28,28,28,28,28,28,28,28,28,28,28,28,28,28,28,28,28,28,28,28,28,28,28,28,18,4,-8,-20,-26,-29,-31,-33,-34,-36,-37,-38,-38,-38,-38,-38,-38,-38,-38,-38,-38,-37,-34,-25,-5,11,17,21,22,23,23,23,24,24,24,24,24,24,24,24,24,24,24,24,24,24,24,24,24,24,24,24,24,24,24,24,22,18,14,10,8,8,8,18,31,52,78,82,82,82,82,78,74,69,65,60,50,35,-10,-34,-43,-62,-68,-69,-69,-69,-69,-69,-69,-69,-69,-69,-69,-51,-43,-34,-29,-14,-5,1,10,16,18,18,18,18,18,18,18,18,18,18,18,32,77,139,198,233,247,255,255,255,255,255,255,255,255,255,254,246,241,240,240,240,244,249,251,253,253,253,253,253,254,258,262,264,264,264,264,264,264,265,266,268,272,272,272,272,272,272,272,272,272,273,273,273,273,273,273,273,273,273,273,273,273,273,273,273,273,273,273,273,273,273,273,273,273,272,272,272,272,272,272,272,272,272,272]","[45,45,45,45,45,45,45,45,45,45,45,45,45,45,45,45,45,45,45,45,45,45,45,45,45,45,45,45,45,45,45,45,45,45,45,45,47,48,48,48,48,48,48,48,48,48,48,48,48,48,48,48,48,48,48,48,54,91,104,130,167,187,201,211,215,216,218,219,220,221,222,224,226,227,229,230,230,231,231,231,231,231,231,231,231,231,231,231,231,231,231,231,231,231,231,243,258,272,284,293,297,301,304,310,313,315,316,317,317,317,317,317,318,318,317,306,269,250,202,112,72,51,37,35,36,47,65,82,93,98,98,98,98,98,98,98,98,98,98,98,98,98,98,98,98,98,98,104,116,143,164,193,212,228,240,250,254,257,264,268,273,275,276,276,276,271,267,263,260,256,252,246,237,215,203,198,187,181,179,175,172,169,168,164,153,141,123,94,24,-6,-32,-42,-60,-65,-66,-62,-51,-41,-41,-41,-41,-41,-41,-41,-41,-41,-41,-63,-99,-150,-207,-257,-287,-301,-308,-308,-308,-308,-308,-308,-308,-308,-308,-309,-311,-312,-312,-311,-311,-311,-311,-311,-311,-311,-311,-311,-311,-311,-311,-310,-310,-310,-310,-310,-310,-310,-310,-310,-310,-310,-310,-310,-310,-310,-310,-310,-310,-310,-309,-309,-309,-309,-309,-309,-309,-309,-309,-309,-309,-309,-309,-308,-308,-308,-308,-308,-308,-308,-308,-308,-308,-308,-308,-308,-307,-307,-307,-307,-307,-307,-307,-307]","[0,0,0,0,0,0,0,0,0,0,0,0,0,0,0,0,0,0,0,0,0,0,0,0,0,0,0,0,0,0,0,0,0,0,0,0,0,0,0,0,0,0,0,0,0,0,0,0,0,0,0,0,0,0,0,0,0,0,0,0,0,0,0,0,0,0,0,0,0,0,0,0,0,0,0,0,0,0,0,0,0,0,0,0,0,0,0,0,0,0,0,0,0,0,0,0,0,0,0,0,0,0,0,0,0,0,0,0,0,0,0,0,0,0,0,0,0,0,0,0,0,0,0,0,0,0,0,0,0,0,0,0,0,0,0,0,0,0,0,0,0,0,0,0,0,0,0,0,0,0,0,0,0,0,0,0,0,0,0,0,0,0,0,0,0,0,0,0,0,0,0,0,0,0,0,0,0,0,0,0,0,0,0,0,0,0,0,0,0,0,0,0,0,0,0,0,0,0,0,0,0,0,0,0,0,0,0,0,0,0,0,0,0,0,0,0,0,0,0,0,0,0,0,0,0,0,0,0,0,0,0,0,0,0,0,0,0,0,0,0,0,0,0,0,0,0,0,0,0,0,0,0,0,0,0,0,0,0,0,0,0,0,0,1,1,1,1,1,1,1,0,0,0,0,0,0,0,0,0,0,0,0,0,0,0,0,0,0,0,0,0,0]","[0,0,0,0,0,0,0,0,0,0,0,0,0,0,0,0,0,0,0,0,0,0,0,0,0,0,0,0,0,0,0,0,0,0,0,0,0,0,0,0,0,0,0,0,0,0,0,0,0,0,0,0,0,0,0,0,0,0,0,0,0,0,0,0,0,0,0,0,0,0,0,0,0,0,0,0,0,0,0,0,0,0,0,0,0,0,0,0,0,0,0,0,0,0,0,0,0,0,0,0,0,0,0,0,0,0,0,0,0,0,0,0,0,0,0,0,0,0,0,0,0,0,0,0,0,0,0,0,0,0,0,0,0,0,0,0,0,0,0,0,0,0,0,0,0,0,0,0,0,0,0,0,0,0,0,0,0,0,0,0,0,0,0,0,0,0,0,0,0,0,0,0,0,0,0,0,0,0,0,0,0,0,0,0,0,0,0,0,0,0,0,0,0,0,0,0,0,0,0,0,0,0,0,0,0,0,0,0,0,0,0,0,0,0,0,0,0,0,0,0,0,0,0,0,0,0,0,0,0,0,0,0,0,0,0,0,0,0,0,0,0,0,0,0,0,0,0,0,0,0,0,0,0,0,0,0,0,0,0,0,0,0,0,0,0,0,0,0,0,0,0,0,0,0,0,0,0,0,0,0,0,0,0,0,0,0,0,0,0,0,0,0]","[0,0,0,0,0,0,0,0,0,0,0,0,0,0,0,0,0,0,0,0,0,0,0,0,0,0,0,0,0,0,0,0,0,0,0,0,0,0,0,0,0,0,0,0,0,0,0,0,0,0,0,0,0,0,0,0,0,0,0,0,0,0,0,0,0,0,0,0,0,0,0,0,0,0,0,0,0,0,0,0,0,0,0,0,0,0,0,0,0,0,0,0,0,0,0,0,0,0,0,0,0,0,0,0,0,0,0,0,0,0,0,0,0,0,0,0,0,0,0,0,0,0,0,0,0,0,0,0,0,0,0,0,0,0,0,0,0,0,0,0,0,0,0,0,0,0,0,0,0,0,0,0,0,0,0,0,0,0,0,0,0,0,0,0,0,0,0,0,0,0,0,0,0,0,0,0,0,0,0,0,0,0,0,0,0,0,0,0,0,0,0,0,0,0,0,0,0,0,0,0,0,0,0,0,0,0,0,0,0,0,0,0,0,0,0,0,0,0,0,0,0,0,0,0,0,0,0,0,0,0,0,0,0,0,0,0,0,0,0,0,0,0,0,0,0,0,0,0,0,0,0,0,0,0,0,0,0,0,0,0,0,0,0,0,0,0,0,0,0,0,0,0,0,0,0,0,0,0,0,0,0,0,0,0,0,0,0,0,0,0,0,0]","[0,0.017799999952316625,0.031399999976159165,0.048500000000004206,0.06519999992848113,0.08200000000000784,0.09850000000000136,0.11510000002384402,0.132000000000005,0.14860000002384766,0.1653999999761595,0.1817999999523181,0.19849999999999568,0.2151999999284726,0.23169999992848034,0.24860000002384197,0.26519999992846977,0.2817999999523124,0.2985000000000042,0.31519999992848113,0.33200000000000784,0.34850000000000136,0.365100000023844,0.38179999995232095,0.3983999999761636,0.4151000000238412,0.4317999999523181,0.4484999999999957,0.4651999999284726,0.4818999999761644,0.49860000002384197,0.5151999999284698,0.5318999999761616,0.5483999999761551,0.5648999999761628,0.5816999999284747,0.5991000000238387,0.6156999999284807,0.631799999952321,0.6484999999999985,0.6651999999284754,0.6817999999523181,0.6984999999999957,0.7151000000238383,0.7318999999761644,0.748500000000007,0.7650000000000006,0.7816000000238432,0.7985000000000042,0.8151000000238469,0.8313999999761563,0.8485000000000014,0.8652999999523132,0.8818999999761559,0.8984999999999985,0.9151999999284754,0.9322999999523205,0.953000000000003,0.9655000000000058,0.9821999999284827,0.9988999999761603,1.0151999999284698,1.0357999999523173,1.0486999999284734,1.0655000000000001,1.082299999952312,1.0988999999761546,1.1156000000238464,1.136299999952314,1.149000000000001,1.1656999999284778,1.1823999999761554,1.1988999999761631,1.215699999928475,1.2321000000238485,1.2487999999523254,1.2651000000238497,1.2821999999284799,1.2986000000238391,1.3151999999284811,1.3317999999523238,1.3485000000000014,1.3651999999284783,1.381799999952321,1.3986000000238477,1.4151999999284754,1.4318999999761672,1.4486000000238448,1.4651999999284726,1.4816999999284803,1.4987999999523254,1.5151000000238497,1.5316999999284775,1.5485000000000042,1.5653999999761652,1.5820000000000078,1.5986999999284706,1.619100000023849,1.6323999999761583,1.648899999976166,1.6656000000238436,1.6822999999523205,1.698799999952314,1.7186000000238408,1.7321999999284827,1.7487999999523254,1.7653999999761538,1.7821999999284799,1.7986000000238391,1.8151000000238469,1.8317999999523238,1.8483999999761664,1.8689999999999998,1.881799999952321,1.899000000000001,1.915899999976162,1.9363999999761603,1.9488999999761631,1.9653999999761567,1.9821999999284827,1.9988999999761603,2.015600000023838,2.03219999992848,2.0488999999761575,2.0656000000238492,2.082299999952312,2.0988999999761546,2.1156000000238464,2.1322999999523233,2.14919999992847,2.1651999999284754,2.181799999952318,2.1983999999761608,2.2151999999284726,2.2316999999284803,2.248500000000007,2.2651999999284698,2.2816999999284775,2.298500000000004,2.315199999928481,2.331799999952324,2.3485000000000014,2.3651999999284783,2.381799999952321,2.3983999999761636,2.415100000023841,2.432000000000002,2.448899999976163,2.465699999928475,2.4819999999999993,2.4987999999523254,2.515399999976154,2.53219999992848,2.5491000000238415,2.5656000000238492,2.5842999999523215,2.5990000000000038,2.6156999999284807,2.6359999999999957,2.648799999952317,2.6653999999761595,2.6822999999523205,2.7022999999523165,2.7151999999284726,2.7317999999523153,2.7488999999761603,2.765600000023838,2.7860000000000014,2.8026999999284783,2.814899999976163,2.8318999999761587,2.848100000023848,2.8659999999999997,2.8853999999761584,2.9016000000238478,2.915100000023841,2.9348999999761674,2.948600000023845,2.9691999999284775,2.9818999999761644,3.002399999976163,3.0191999999284747,3.03219999992848,3.049199999928476,3.069399999976156,3.082199999928477,3.0987999999523197,3.1156999999284807,3.1356999999284767,3.1526000000238383,3.168899999976162,3.182100000023837,3.198999999999998,3.215500000000006,3.2321999999284827,3.2521999999284787,3.2686999999284723,3.2858999999761664,3.3021000000238416,3.315100000023847,3.331799999952324,3.3485000000000014,3.3651999999284783,3.381799999952321,3.3983999999761636,3.4151999999284754,3.431699999928483,3.449100000023847,3.468500000000006,3.4821999999284827,3.4991000000238444,3.515699999928472,3.532399999976164,3.5487999999523225,3.565199999928481,3.5816999999284747,3.5985000000000014,3.615100000023844,3.631799999952321,3.6484999999999985,3.665100000023841,3.6818999999761672,3.6983999999761608,3.7156000000238407,3.7321000000238485,3.7488999999761603,3.7691000000238404,3.785299999952315,3.798399999976155,3.8156999999284835,3.832199999928477,3.8490000000000038,3.8656999999284807,3.881899999976156,3.8983999999761636,3.915100000023841,3.931799999952318,3.948699999928479,3.9683999999761568,3.982399999976167,3.9989999999999952,4.015000000000001,4.0318999999761616,4.048500000000004,4.065199999928481,4.081899999976159,4.09879999995232,4.115499999999997,4.132999999999996,4.152799999952322,4.165299999952325,4.181899999976167,4.198499999999996,4.215199999928473,4.23169999992848,4.248399999976158,4.26510000002385,4.281799999952312,4.2988999999761575,4.315199999928481,4.331699999928475,4.348399999976166,4.365100000023844,4.381799999952321,4.398399999976164,4.4151999999284754,4.431899999976167,4.448299999952312,4.464799999952319,4.48169999992848,4.49810000002384,4.51510000002385,4.531500000000008,4.548199999928471,4.565199999928481,4.581899999976159,4.598500000000001,4.615199999928478,4.631799999952321,4.648600000023848,4.6651999999284754,4.686000000000007,4.699299999952316,4.719600000023846,4.73689999997616,4.7521000000238445,4.76510000002385,4.7818999999761616,4.798600000023839,4.815199999928481,4.831699999928475,4.848699999928471]",0,0,0,0,1,,,,,
A000000000-1,2025-04-16_14h20.16.188,GoFitts,2023.2.3,Win32,59.88023952,"[277.1465798298843,-307.8024600011772]","[-335.0859920088918,243.45422373332448]",21,828.3781289,6.32,1,1.7363,"[272,272,272,272,272,272,272,272,272,272,272,272,268,258,246,236,230,229,227,227,227,227,227,227,227,227,227,227,227,227,226,219,178,116,38,-24,-53,-66,-70,-70,-70,-70,-70,-70,-70,-70,-70,-70,-80,-95,-114,-148,-192,-239,-282,-320,-337,-344,-346,-346,-346,-346,-346,-346,-346,-346,-346,-346,-346,-346,-346,-346,-346,-346,-346,-346,-346,-346,-346,-346,-346,-346,-346,-346,-346,-346,-346,-346,-346,-346,-346,-346,-346,-346,-346,-346,-346,-346,-346,-346,-346,-346,-345,-343,-341,-341,-341,-341,-341,-340,-340,-338,-336,-336,-336,-336,-336,-335,-335,-335,-335,-335,-335,-335,-335,-335,-335,-335,-335,-335,-335,-335,-335,-335,-335,-335,-335,-335,-335,-335,-335,-335,-335,-335,-335,-335,-335,-335]","[-307,-307,-307,-307,-307,-307,-307,-306,-306,-299,-283,-259,-229,-206,-190,-180,-173,-168,-164,-163,-163,-163,-163,-163,-163,-163,-163,-163,-163,-163,-160,-154,-126,-83,-21,36,66,83,89,89,89,89,89,89,89,89,89,89,92,100,117,143,175,202,219,229,233,234,234,234,234,234,234,234,234,234,234,234,234,234,234,234,234,234,235,236,236,236,236,236,236,236,236,236,236,236,236,236,236,236,236,236,236,236,236,236,236,236,236,236,236,236,236,236,236,236,236,236,236,236,236,237,238,239,239,239,240,240,240,240,241,241,242,242,242,242,242,242,242,242,242,241,241,241,240,240,240,240,239,239,239,239,238,238,238,238,238,235]","[0,0,0,0,0,0,0,0,0,0,0,0,0,0,0,0,0,0,0,0,0,0,0,0,0,0,0,0,0,0,0,0,0,0,0,0,0,0,0,0,0,0,0,0,0,0,0,0,0,0,0,0,0,0,0,0,0,0,0,0,0,0,0,0,0,0,0,0,0,0,0,0,0,0,0,0,0,0,0,0,0,0,0,0,0,1,1,1,1,1,1,1,0,0,0,0,0,0,0,0,0,0,0,0,0,0,0,0,0,0,0,0,0,0,0,0,0,0,0,0,1,1,1,1,1,0,0,0,0,0,0,0,0,0,0,0,0,0,0,0,0,0,0,0,0,0,0,0]","[0,0,0,0,0,0,0,0,0,0,0,0,0,0,0,0,0,0,0,0,0,0,0,0,0,0,0,0,0,0,0,0,0,0,0,0,0,0,0,0,0,0,0,0,0,0,0,0,0,0,0,0,0,0,0,0,0,0,0,0,0,0,0,0,0,0,0,0,0,0,0,0,0,0,0,0,0,0,0,0,0,0,0,0,0,0,0,0,0,0,0,0,0,0,0,0,0,0,0,0,0,0,0,0,0,0,0,0,0,0,0,0,0,0,0,0,0,0,0,0,0,0,0,0,0,0,0,0,0,0,0,0,0,0,0,0,0,0,0,0,0,0,0,0,0,0,0,0]","[0,0,0,0,0,0,0,0,0,0,0,0,0,0,0,0,0,0,0,0,0,0,0,0,0,0,0,0,0,0,0,0,0,0,0,0,0,0,0,0,0,0,0,0,0,0,0,0,0,0,0,0,0,0,0,0,0,0,0,0,0,0,0,0,0,0,0,0,0,0,0,0,0,0,0,0,0,0,0,0,0,0,0,0,0,0,0,0,0,0,0,0,0,0,0,0,0,0,0,0,0,0,0,0,0,0,0,0,0,0,0,0,0,0,0,0,0,0,0,0,0,0,0,0,0,0,0,0,0,0,0,0,0,0,0,0,0,0,0,0,0,0,0,0,0,0,0,0]","[0,0.01879999995230719,0.03119999992847511,0.048499999999989996,0.06529999995231606,0.08169999992847465,0.09849999999998715,0.1156000000238322,0.13179999995230673,0.14879999995231685,0.16579999995231276,0.18210000002383708,0.198799999952314,0.21560000002384072,0.23229999995230344,0.24910000002383015,0.26569999992847215,0.2821000000238314,0.2989999999999924,0.3191999999284718,0.3317999999523096,0.3486000000238363,0.3651999999284641,0.38189999997615587,0.3984999999999985,0.41519999992846124,0.431899999976153,0.4484999999999957,0.4651999999284726,0.4819999999999993,0.4988999999761461,0.5156999999284722,0.5361000000238363,0.5487999999523083,0.565600000023835,0.5821000000238286,0.6026000000238412,0.6192999999523039,0.6323999999761583,0.6521999999284702,0.6651999999284612,0.681899999976153,0.6984999999999957,0.7151999999284726,0.7318999999761502,0.7483999999761579,0.7651999999284698,0.7817999999523124,0.7988999999761575,0.815399999976151,0.832299999952312,0.8487999999523055,0.8653999999761481,0.8821999999284742,0.8991000000238358,0.9156000000238294,0.9321000000238371,0.9489999999999981,0.9689999999999941,0.9818999999761502,0.9984999999999928,1.0151000000238355,1.0316999999284633,1.0486999999284734,1.065199999928467,1.0816999999284747,1.0984999999999872,1.1152999999523132,1.1317999999523067,1.1483999999761494,1.1648999999761571,1.181699999928469,1.1986000000238306,1.2151000000238383,1.2322999999523034,1.2484999999999928,1.2648999999761514,1.2816999999284633,1.29849999999999,1.315199999928467,1.3316999999284747,1.3486999999284706,1.365199999928464,1.3817999999523067,1.3983999999761494,1.415100000023834,1.4316999999284619,1.4486999999284578,1.4651999999284655,1.4817999999523082,1.4986000000238349,1.5151999999284627,1.531499999999987,1.5481000000238296,1.5649999999999906,1.5818999999761516,1.5986000000238292,1.6151000000238227,1.6319999999999837,1.6486000000238263,1.664999999999985,1.68210000002383,1.6988999999761418,1.7154999999999845,1.7362999999523012,1.752799999952309,1.7683999999761468,1.7817999999523053,1.798600000023832,1.815600000023828,1.8317999999523025,1.8486999999284635,1.865600000023825,1.882199999928467,1.8983999999761423,1.914999999999985,1.93210000002383,1.9488999999761418,1.9651999999284655,1.9819999999999922,1.9983999999761508,2.0151999999284627,2.0321999999284586,2.048600000023832,2.064600000023823,2.0812999999523,2.09849999999998,2.1151000000238227,2.1318999999761488,2.1486000000238263,2.165199999928454,2.1821999999284643,2.1982999999523045,2.2151999999284655,2.2322999999522963,2.248399999976151,2.2651999999284627,2.2847999999523054,2.2986999999284663,2.31519999992846,2.3316999999284675,2.34849999999998,2.365600000023825,2.3817999999522996,2.3984999999999914,2.415100000023834,2.431799999952297,2.44919999992846]",1,0,1,0,1,0.1657,,,,
A000000000-1,2025-04-16_14h20.16.188,GoFitts,2023.2.3,Win32,59.88023952,"[-335.0859920088918,243.45422373332448]","[378.3805384161253,-168.4658696653475]",21,828.3781289,6.32,1,1.1161,"[-335,-335,-335,-335,-335,-334,-329,-326,-318,-298,-249,-108,37,165,237,300,318,346,351,351,351,351,351,351,351,351,351,352,359,373,381,383,383,377,365,362,367,382,399,402,402,402,402,402,402,402,402,402,402,402,402,400,400,400,400,400,400,400,400,400,400,400,400,399,394,392,389,388,388,388,388,388,385,381,372,369,369,369,369,369,369,369,369,369,369,369,369,369,373,378,380,380,380,380,380,380,380,380,380,380,380,380,380,380,379,378,378,378,378,377,376]","[235,232,230,228,227,226,221,214,197,157,94,0,-65,-109,-134,-149,-150,-150,-149,-149,-149,-149,-149,-149,-149,-148,-148,-147,-144,-140,-136,-135,-134,-134,-143,-152,-161,-168,-172,-172,-172,-172,-171,-171,-171,-171,-171,-171,-170,-170,-170,-170,-170,-170,-170,-170,-170,-170,-170,-170,-170,-170,-170,-170,-170,-170,-170,-170,-170,-170,-170,-170,-170,-170,-169,-168,-168,-168,-168,-168,-168,-168,-168,-168,-168,-168,-168,-168,-166,-166,-166,-166,-166,-166,-166,-166,-166,-167,-167,-167,-167,-167,-167,-167,-166,-166,-164,-164,-163,-162,-160]","[0,0,0,0,0,0,0,0,0,0,0,0,0,0,0,0,0,0,0,0,0,0,0,0,0,0,0,0,0,0,0,0,0,0,0,0,0,0,0,0,0,0,0,0,0,0,0,0,0,0,0,0,0,0,0,0,0,0,0,0,0,0,0,0,0,0,0,0,0,0,0,0,0,0,0,0,0,0,0,0,0,0,0,0,0,0,0,0,0,0,0,0,0,0,0,0,0,0,0,1,1,1,1,1,1,1,1,0,0,0,0]","[0,0,0,0,0,0,0,0,0,0,0,0,0,0,0,0,0,0,0,0,0,0,0,0,0,0,0,0,0,0,0,0,0,0,0,0,0,0,0,0,0,0,0,0,0,0,0,0,0,0,0,0,0,0,0,0,0,0,0,0,0,0,0,0,0,0,0,0,0,0,0,0,0,0,0,0,0,0,0,0,0,0,0,0,0,0,0,0,0,0,0,0,0,0,0,0,0,0,0,0,0,0,0,0,0,0,0,0,0,0,0]","[0,0,0,0,0,0,0,0,0,0,0,0,0,0,0,0,0,0,0,0,0,0,0,0,0,0,0,0,0,0,0,0,0,0,0,0,0,0,0,0,0,0,0,0,0,0,0,0,0,0,0,0,0,0,0,0,0,0,0,0,0,0,0,0,0,0,0,0,0,0,0,0,0,0,0,0,0,0,0,0,0,0,0,0,0,0,0,0,0,0,0,0,0,0,0,0,0,0,0,0,0,0,0,0,0,0,0,0,0,0,0]","[0,0.019300000071524437,0.03210000002384561,0.048800000071523186,0.06539999997616519,0.08200000000000784,0.09850000000000136,0.11520000004769315,0.13210000002383993,0.14870000004768258,0.1653999999761595,0.18200000000000216,0.19880000007152887,0.2153000000715224,0.23199999999999932,0.25200000000000955,0.26530000007153376,0.28170000004769236,0.29860000002383913,0.31480000007152853,0.33150000000000546,0.3481000000238481,0.36489999997615996,0.3813999999761677,0.3982000000476802,0.4153999999761595,0.4356000000238396,0.4486000000238448,0.46539999997615666,0.48210000002384845,0.49860000002384197,0.515399999976168,0.5319999999999965,0.5521000000238416,0.5653000000715309,0.5820000000000078,0.5985000000000014,0.6158000000715305,0.6360000000000099,0.6522000000476851,0.6648999999761571,0.6814999999999998,0.6987000000476797,0.7148999999761543,0.731700000047681,0.748500000000007,0.7648000000715314,0.7815000000000083,0.7986000000238391,0.8148000000715285,0.8315000000000055,0.8487000000476854,0.8676000000238417,0.8816000000238517,0.8982000000476802,0.9148000000715228,0.9314999999999998,0.9482000000476916,0.9648000000715342,0.9816000000238461,0.9983000000715236,1.0148999999761656,1.0313999999761592,1.0486000000238391,1.065300000071531,1.0818000000715244,1.0986000000238505,1.1161000000238488,1.1353999999761584,1.1483000000715293,1.1648000000715228,1.1817000000476838,1.19850000000001,1.2155000000000058,1.2319999999999993,1.248399999976158,1.2648999999761656,1.2813999999761592,1.2982000000476859,1.3151000000238469,1.3333999999761659,1.348100000023848,1.36489999997616,1.3815000000000026,1.3982000000476802,1.4148999999761571,1.4317000000476838,1.4483000000715265,1.4651000000238383,1.4822000000476834,1.498600000023842,1.5148999999761656,1.5316000000238432,1.5482000000476859,1.5647000000476936,1.5815000000000055,1.598200000047683,1.6153999999761623,1.6316000000238517,1.6476000000238429,1.6687000000476928,1.6814999999999998,1.6982000000476916,1.7148999999761543,1.7318999999761644,1.748600000023842,1.7652000000476846,1.7811000000238408,1.797899999976167,1.815300000071531,1.832200000047692]",2,0,2,0,1,0.0193,,,,
A000000000-1,2025-04-16_14h20.16.188,GoFitts,2023.2.3,Win32,59.88023952,"[378.3805384161253,-168.4658696653475]","[-405.13803962330525,86.11474870406293]",21,828.3781289,6.32,1,1.216,"[376,376,374,369,357,350,336,325,316,308,308,308,308,308,308,308,308,308,308,308,302,266,199,94,-14,-120,-133,-145,-149,-150,-152,-157,-167,-175,-184,-187,-190,-195,-202,-221,-242,-270,-277,-286,-286,-286,-286,-286,-286,-286,-286,-286,-286,-287,-293,-302,-312,-321,-327,-331,-331,-331,-331,-333,-338,-344,-353,-367,-370,-376,-383,-390,-398,-405,-406,-407,-407,-407,-407,-407,-407,-407,-407,-407,-407,-407,-407,-407,-407,-407,-407,-407,-407,-407,-407,-407,-407,-407,-407,-407,-407,-407,-407,-407,-407,-407,-396,-315,-273,-183,-99,-38,11,70,115,142,154]","[-160,-159,-158,-154,-144,-139,-130,-125,-122,-119,-119,-119,-119,-119,-119,-119,-119,-119,-119,-119,-115,-107,-101,-89,-75,-55,-50,-43,-37,-36,-32,-30,-28,-26,-24,-23,-21,-20,-18,-15,-12,-9,-7,-2,-2,-2,-2,-2,-2,-2,-2,-2,-2,-2,3,16,30,43,53,58,58,58,58,59,61,65,67,72,73,75,76,76,77,79,80,81,81,82,82,82,82,82,82,82,82,82,82,82,82,82,82,82,82,82,82,82,82,82,82,82,82,82,82,82,82,80,72,47,39,26,20,22,29,42,53,57,58]","[0,0,0,0,0,0,0,0,0,0,0,0,0,0,0,0,0,0,0,0,0,0,0,0,0,0,0,0,0,0,0,0,0,0,0,0,0,0,0,0,0,0,0,0,0,0,0,0,0,0,0,0,0,0,0,0,0,0,0,0,0,0,0,0,0,0,0,0,0,0,0,0,0,0,0,0,0,0,0,0,0,0,0,0,0,0,0,1,1,1,1,1,1,1,0,0,0,0,0,0,0,0,0,0,0,0,0,0,0,0,0,0,0,0,0,0,0]","[0,0,0,0,0,0,0,0,0,0,0,0,0,0,0,0,0,0,0,0,0,0,0,0,0,0,0,0,0,0,0,0,0,0,0,0,0,0,0,0,0,0,0,0,0,0,0,0,0,0,0,0,0,0,0,0,0,0,0,0,0,0,0,0,0,0,0,0,0,0,0,0,0,0,0,0,0,0,0,0,0,0,0,0,0,0,0,0,0,0,0,0,0,0,0,0,0,0,0,0,0,0,0,0,0,0,0,0,0,0,0,0,0,0,0,0,0]","[0,0,0,0,0,0,0,0,0,0,0,0,0,0,0,0,0,0,0,0,0,0,0,0,0,0,0,0,0,0,0,0,0,0,0,0,0,0,0,0,0,0,0,0,0,0,0,0,0,0,0,0,0,0,0,0,0,0,0,0,0,0,0,0,0,0,0,0,0,0,0,0,0,0,0,0,0,0,0,0,0,0,0,0,0,0,0,0,0,0,0,0,0,0,0,0,0,0,0,0,0,0,0,0,0,0,0,0,0,0,0,0,0,0,0,0,0]","[0,0.019299999952323788,0.03200000000001069,0.05260000002384402,0.06939999997615587,0.08189999997615871,0.10250000000000625,0.11529999995232743,0.13119999992848363,0.14869999992848193,0.16500000000000625,0.18149999999999977,0.1981999999284767,0.2150000000000034,0.23169999992848034,0.248299999952323,0.26500000000000057,0.2816999999284775,0.2981999999284852,0.3149999999999977,0.33200000000000784,0.34869999992848477,0.36549999999999727,0.3821999999284742,0.3983999999761636,0.4194999999999993,0.43219999992848557,0.448799999952314,0.4695000000000107,0.4821999999284827,0.4987999999523254,0.5156000000238521,0.5356999999284824,0.5487999999523225,0.5690000000000026,0.5818999999761587,0.5986999999284848,0.6154999999999973,0.631799999952321,0.6486999999284819,0.6672999999523199,0.6861999999284762,0.6989999999999981,0.7153999999761567,0.7316999999284803,0.7483999999761579,0.7648999999761656,0.7818999999761616,0.7983999999761693,0.8147999999523137,0.8316000000238404,0.8486999999284848,0.8650000000000091,0.8821000000238399,0.8986999999284819,0.9191000000238461,0.9321000000238513,0.948799999952314,0.9692999999523266,0.9857999999523201,0.998500000000007,1.0151000000238497,1.0316999999284775,1.0487999999523225,1.0655000000000001,1.0821000000238428,1.0987999999523197,1.1153999999761623,1.132000000000005,1.1522999999523194,1.1655000000000086,1.1818999999761672,1.198699999928479,1.2160000000000082,1.2360000000000042,1.2487999999523254,1.2651000000238497,1.2821000000238456,1.2983999999761693,1.3148999999761628,1.3315000000000055,1.3481999999284824,1.36489999997616,1.3816000000238517,1.3982999999523145,1.4150000000000063,1.431600000023849,1.4483999999761608,1.4650000000000034,1.4815000000000111,1.498500000000007,1.5148999999761656,1.5317999999523266,1.5485000000000042,1.5646000000238445,1.5812999999523214,1.5983999999761664,1.615000000000009,1.6316999999284718,1.6484999999999985,1.6650000000000063,1.6814999999999998,1.6982999999523258,1.7151000000238525,1.7316999999284803,1.7487999999523254,1.7690000000000055,1.7861000000238505,1.7986999999284734,1.815299999952316,1.8356000000238453,1.847899999976164,1.8681000000238441,1.8856999999284767,1.8984999999999985,1.9153999999761595,1.9320000000000022]",3,0,3,0,1,0.032,,,,
A000000000-1,2025-04-16_14h20.16.188,GoFitts,2023.2.3,Win32,59.88023952,"[-405.13803962330525,86.11474870406293]","[414.18906443094164,0]",21,828.3781289,6.32,1,0.7366,"[154,163,171,184,199,216,219,224,224,224,224,224,224,224,224,224,224,224,224,224,224,225,238,245,277,288,317,328,329,329,329,329,330,332,350,362,365,368,368,368,369,375,385,401,415,422,422,422,422,422,421,421,421,421,421,421,421,421,421,421,421,420,419,416,415,415,415,415,415,415,415,414,413,411,405,387,366,331,182,87,41,-60,-113,-159,-190,-204,-208,-208]","[58,57,55,54,53,47,45,42,42,42,42,42,42,42,42,42,42,42,42,42,42,30,12,8,-6,-12,-23,-27,-27,-27,-25,-25,-24,-24,-21,-19,-18,-17,-17,-17,-16,-12,-9,-5,-2,0,0,0,0,0,0,0,0,0,0,0,0,0,0,0,0,0,0,0,0,0,0,1,1,1,1,1,1,1,1,0,0,0,3,3,2,0,-3,-7,-11,-12,-13,-13]","[0,0,0,0,0,0,0,0,0,0,0,0,0,0,0,0,0,0,0,0,0,0,0,0,0,0,0,0,0,0,0,0,0,0,0,0,0,0,0,0,0,0,0,0,0,0,0,0,0,0,0,0,0,0,0,0,0,0,0,0,1,1,1,1,1,1,0,0,0,0,0,0,0,0,0,0,0,0,0,0,0,0,0,0,0,0,0,0]","[0,0,0,0,0,0,0,0,0,0,0,0,0,0,0,0,0,0,0,0,0,0,0,0,0,0,0,0,0,0,0,0,0,0,0,0,0,0,0,0,0,0,0,0,0,0,0,0,0,0,0,0,0,0,0,0,0,0,0,0,0,0,0,0,0,0,0,0,0,0,0,0,0,0,0,0,0,0,0,0,0,0,0,0,0,0,0,0]","[0,0,0,0,0,0,0,0,0,0,0,0,0,0,0,0,0,0,0,0,0,0,0,0,0,0,0,0,0,0,0,0,0,0,0,0,0,0,0,0,0,0,0,0,0,0,0,0,0,0,0,0,0,0,0,0,0,0,0,0,0,0,0,0,0,0,0,0,0,0,0,0,0,0,0,0,0,0,0,0,0,0,0,0,0,0,0,0]","[0,0.01969999992847704,0.03239999997614973,0.049299999952310714,0.06569999992846931,0.0866999999284701,0.09900000000000375,0.1157999999523156,0.13599999999999568,0.14869999992846772,0.1653999999761595,0.18210000002383708,0.19869999992846488,0.21529999995230753,0.23199999999999932,0.24869999992847625,0.26519999992846977,0.2819999999999965,0.2986999999284734,0.3151999999284669,0.33210000002384277,0.34919999992847295,0.36969999992847136,0.3826000000238423,0.40289999997615666,0.41579999995231276,0.4323999999761554,0.449100000023833,0.4657999999523099,0.4819999999999993,0.4989999999999952,0.5151999999284698,0.5323999999761497,0.5491999999284758,0.5702999999523115,0.5865000000000009,0.5990000000000038,0.6156999999284665,0.6317999999523067,0.6486999999284677,0.6657999999523128,0.6822999999523205,0.6989999999999981,0.7156000000238407,0.7366000000238415,0.7530000000000001,0.7652999999523189,0.7819999999999965,0.7986000000238391,0.815399999976151,0.8323999999761611,0.8488999999761546,0.8653999999761623,0.8819999999999908,0.8986999999284677,0.9153999999761595,0.9320000000000022,0.948799999952314,0.9653999999761567,0.9817999999523153,0.9984999999999928,1.015799999952307,1.0321000000238456,1.0526999999284783,1.065600000023835,1.0821000000238428,1.0982999999523173,1.115100000023844,1.1316000000238375,1.1487999999523169,1.1652999999523104,1.1823999999761554,1.198999999999998,1.2156000000238407,1.2322999999523176,1.2494999999999976,1.269699999928477,1.2824999999999989,1.3033999999761505,1.3194999999999908,1.332399999976161,1.3529999999999944,1.369399999976153,1.3823999999761583,1.3991000000238358,1.4157999999523128,1.4324999999999903,1.4523999999761514]",4,0,4,0,1,1.2495,,,,
A000000000-1,2025-04-16_14h20.16.188,GoFitts,2023.2.3,Win32,59.88023952,"[414.18906443094164,0]","[-405.13803962330525,-86.11474870406283]",21,828.3781289,6.32,1,4.4452,"[-208,-208,-208,-208,-208,-208,-208,-208,-208,-208,-208,-208,-237,-276,-329,-368,-385,-391,-392,-398,-407,-416,-431,-436,-438,-438,-438,-438,-438,-438,-437,-433,-430,-429,-427,-425,-425,-425,-424,-420,-415,-412,-407,-406,-406,-406,-406,-406,-406,-406,-406,-406,-406,-406,-406,-406,-406,-406,-406,-406,-406,-406,-406,-406,-406,-405,-403,-399,-388,-373,-364,-330,-302,-261,-209,-138,-25,46,82,97,100,100,100,100,100,100,100,100,100,100,100,102,116,151,194,234,270,277,290,291,291,291,291,291,291,291,291,291,291,291,294,309,328,343,350,355,355,355,355,355,356,359,363,363,362,352,264,182,95,19,-42,-84,-115,-133,-147,-165,-179,-187,-190,-189,-189,-189,-189,-189,-189,-189,-189,-189,-189,-189,-189,-189,-197,-259,-352,-369,-386,-389,-389,-389,-392,-398,-403,-409,-413,-415,-416,-416,-416,-414,-413,-413,-415,-415,-415,-415,-415,-415,-415,-415,-414,-414,-414,-414,-414,-414,-414,-414,-414,-414,-414,-414,-414,-414,-414,-414,-414,-414,-414,-414,-414,-414,-414,-414,-414,-414,-413,-413,-410,-404,-388,-367,-351,-340,-299,-274,-252,-240,-234,-233,-232,-232,-232,-226,-213,-206,-203,-203,-211,-258,-273,-280,-281,-280,-280,-280,-282,-295,-320,-357,-371,-380,-382,-381,-379,-378,-378,-378,-378,-380,-382,-384,-387,-388,-388,-388,-388,-388,-389,-391,-393,-393,-393,-393,-393,-393,-393,-397,-400,-402,-404,-404,-404,-404,-404,-404,-404,-404,-404,-404,-404,-404,-404,-404,-404,-404,-404,-404,-404,-404,-404,-404,-404,-404,-405,-405,-405,-406,-406,-406,-406,-406,-400,-390,-335,-290,-242,-181,-103,-20,56]","[-13,-13,-13,-13,-13,-13,-13,-13,-13,-13,-13,-13,-17,-26,-37,-44,-47,-50,-53,-57,-64,-70,-81,-86,-89,-90,-90,-90,-90,-90,-91,-93,-95,-95,-95,-95,-95,-95,-95,-94,-92,-92,-91,-91,-91,-91,-91,-91,-91,-91,-90,-90,-89,-89,-88,-88,-87,-86,-86,-86,-85,-85,-84,-84,-84,-82,-82,-81,-80,-80,-80,-76,-72,-62,-46,-23,11,32,49,59,63,63,63,63,63,63,63,63,63,63,63,64,74,90,107,123,137,140,147,149,150,151,151,151,151,151,151,151,151,149,146,145,145,145,145,145,145,145,145,145,145,147,148,148,148,147,129,105,75,40,7,-18,-31,-39,-42,-43,-44,-44,-41,-34,-33,-33,-33,-33,-33,-33,-33,-33,-33,-33,-33,-33,-35,-61,-97,-103,-111,-113,-115,-115,-115,-115,-115,-114,-112,-110,-109,-107,-103,-100,-94,-93,-92,-91,-91,-91,-91,-91,-91,-90,-90,-90,-90,-89,-89,-88,-87,-85,-84,-83,-82,-81,-81,-80,-80,-80,-80,-80,-80,-80,-80,-80,-80,-80,-80,-80,-80,-80,-80,-80,-80,-80,-80,-78,-69,-61,-53,-47,-44,-43,-43,-42,-42,-40,-37,-35,-34,-34,-35,-42,-43,-44,-44,-44,-44,-44,-45,-48,-53,-62,-66,-70,-72,-74,-76,-79,-81,-82,-82,-82,-83,-84,-84,-84,-84,-84,-84,-84,-84,-84,-84,-84,-84,-84,-84,-84,-84,-84,-84,-84,-84,-84,-84,-84,-84,-84,-84,-84,-84,-84,-84,-84,-84,-84,-84,-84,-84,-84,-84,-84,-84,-84,-84,-84,-84,-84,-84,-84,-84,-84,-84,-84,-84,-84,-81,-76,-68,-56,-36,-14,8]","[0,0,0,0,0,0,0,0,0,0,0,0,0,0,0,0,0,0,0,0,0,0,0,0,0,0,0,0,0,0,0,0,0,0,0,0,0,0,0,0,0,0,0,0,0,0,0,0,0,0,0,0,0,0,0,0,1,1,1,1,1,1,1,1,0,0,0,0,0,0,0,0,0,0,0,0,0,0,0,0,0,0,0,0,0,0,0,0,0,0,0,0,0,0,0,0,0,0,0,0,0,0,0,0,0,0,0,0,0,0,0,0,0,0,0,0,0,0,0,0,0,0,0,0,0,0,0,0,0,0,0,0,0,0,0,0,0,0,0,0,0,0,0,0,0,0,0,0,0,0,0,0,0,0,0,0,0,0,0,0,0,0,0,0,0,0,0,0,0,0,0,0,0,0,0,0,0,0,0,0,0,0,0,0,0,0,0,1,1,1,1,1,1,1,0,0,0,0,0,0,0,0,0,0,0,0,0,0,0,0,0,0,0,0,0,0,0,0,0,0,0,0,0,0,0,0,0,0,0,0,0,0,0,0,0,0,0,0,0,0,0,0,0,0,0,0,0,0,0,0,0,0,0,0,0,0,0,0,0,0,0,0,0,0,0,0,0,0,0,0,0,0,0,0,0,0,0,0,0,0,0,0,0,0,0,0,0,1,1,1,1,1,1,0,0,0,0,0,0,0,0,0,0,0,0,0,0,0,0,0,0]","[0,0,0,0,0,0,0,0,0,0,0,0,0,0,0,0,0,0,0,0,0,0,0,0,0,0,0,0,0,0,0,0,0,0,0,0,0,0,0,0,0,0,0,0,0,0,0,0,0,0,0,0,0,0,0,0,0,0,0,0,0,0,0,0,0,0,0,0,0,0,0,0,0,0,0,0,0,0,0,0,0,0,0,0,0,0,0,0,0,0,0,0,0,0,0,0,0,0,0,0,0,0,0,0,0,0,0,0,0,0,0,0,0,0,0,0,0,0,0,0,0,0,0,0,0,0,0,0,0,0,0,0,0,0,0,0,0,0,0,0,0,0,0,0,0,0,0,0,0,0,0,0,0,0,0,0,0,0,0,0,0,0,0,0,0,0,0,0,0,0,0,0,0,0,0,0,0,0,0,0,0,0,0,0,0,0,0,0,0,0,0,0,0,0,0,0,0,0,0,0,0,0,0,0,0,0,0,0,0,0,0,0,0,0,0,0,0,0,0,0,0,0,0,0,0,0,0,0,0,0,0,0,0,0,0,0,0,0,0,0,0,0,0,0,0,0,0,0,0,0,0,0,0,0,0,0,0,0,0,0,0,0,0,0,0,0,0,0,0,0,0,0,0,0,0,0,0,0,0,0,0,0,0,0,0,0,0,0,0,0,0,0,0,0,0,0,0,0,0,0,0,0,0,0,0,0,0,0,0,0,0]","[0,0,0,0,0,0,0,0,0,0,0,0,0,0,0,0,0,0,0,0,0,0,0,0,0,0,0,0,0,0,0,0,0,0,0,0,0,0,0,0,0,0,0,0,0,0,0,0,0,0,0,0,0,0,0,0,0,0,0,0,0,0,0,0,0,0,0,0,0,0,0,0,0,0,0,0,0,0,0,0,0,0,0,0,0,0,0,0,0,0,0,0,0,0,0,0,0,0,0,0,0,0,0,0,0,0,0,0,0,0,0,0,0,0,0,0,0,0,0,0,0,0,0,0,0,0,0,0,0,0,0,0,0,0,0,0,0,0,0,0,0,0,0,0,0,0,0,0,0,0,0,0,0,0,0,0,0,0,0,0,0,0,0,0,0,0,0,0,0,0,0,0,0,0,0,0,0,0,0,0,0,0,0,0,0,0,0,0,0,0,0,0,0,0,0,0,0,0,0,0,0,0,0,0,0,0,0,0,0,0,0,0,0,0,0,0,0,0,0,0,0,0,0,0,0,0,0,0,0,0,0,0,0,0,0,0,0,0,0,0,0,0,0,0,0,0,0,0,0,0,0,0,0,0,0,0,0,0,0,0,0,0,0,0,0,0,0,0,0,0,0,0,0,0,0,0,0,0,0,0,0,0,0,0,0,0,0,0,0,0,0,0,0,0,0,0,0,0,0,0,0,0,0,0,0,0,0,0,0,0,0]","[0,0.015600000023837879,0.027899999976156664,0.044700000047683375,0.0613999999761603,0.07810000002383788,0.0947999999523148,0.11149999999999238,0.12810000002383504,0.14460000002384277,0.16160000002383867,0.17789999997614814,0.19520000004767724,0.21179999995231924,0.22879999995231515,0.2452000000476744,0.2653999999761538,0.278499999999994,0.29510000002383663,0.3118999999761485,0.32860000002384027,0.3452000000476829,0.3661000000238346,0.3785000000000025,0.39529999995231435,0.411899999976157,0.42820000004768133,0.4447999999523091,0.4615000000000009,0.47799999999999443,0.49499999999999034,0.5144999999999982,0.5316000000238432,0.5448999999761526,0.5617999999523136,0.5822000000476777,0.5947999999523148,0.6114999999999924,0.6283999999761534,0.6452000000476801,0.6652999999523104,0.6788999999761529,0.6987000000476797,0.7120000000000033,0.7281000000238436,0.7446000000238371,0.7613999999761489,0.7779999999999916,0.7947999999523176,0.8113999999761603,0.8286000000238403,0.8446000000238456,0.8617000000476764,0.8817999999523067,0.8951000000238452,0.9115000000000038,0.9283999999761505,0.9452000000476772,0.9612999999523169,0.9779999999999944,0.9949999999999903,1.011299999952314,1.028499999999994,1.0448999999761526,1.061100000023842,1.077799999952319,1.0951000000238338,1.113700000047686,1.1322000000476748,1.1496000000238382,1.161899999976157,1.1822999999523063,1.1951000000238423,1.211700000047685,1.2284999999999968,1.2451000000238395,1.2617000000476821,1.278600000023843,1.29529999995232,1.3157000000476842,1.3287000000476752,1.3447999999523148,1.3612999999523083,1.3780000000000001,1.3947000000476777,1.4112000000476854,1.4281000000238322,1.4447000000476748,1.4613999999761518,1.4782000000476785,1.4947999999523063,1.5118999999761513,1.5278999999761567,1.5451000000238366,1.5616000000238444,1.5783999999761562,1.5991000000238387,1.6114999999999924,1.6282000000476842,1.64520000004768,1.6617999999523079,1.6782999999523156,1.6947000000476748,1.7113999999761518,1.7281000000238436,1.7447000000476862,1.761499999999998,1.7781000000238407,1.7947000000476834,1.8117999999523136,1.8284999999999911,1.8452999999523172,1.8616000000238415,1.8785000000000025,1.8953999999761493,1.9117000000476736,1.9282000000476813,1.9447999999523091,1.961500000000001,1.9781000000238436,1.9951000000238395,2.0118999999761513,2.028600000023843,2.0448999999761526,2.0617000000476793,2.078499999999991,2.094999999999999,2.115399999976148,2.1283999999761534,2.145100000023845,2.162100000023841,2.1787000000476837,2.194999999999993,2.211899999976154,2.228700000047681,2.2452999999523087,2.2618999999761513,2.2787999999523123,2.295399999976155,2.3117000000476793,2.328399999976156,2.344799999952315,2.3613999999761575,2.378200000047684,2.3946000000238428,2.4115000000000038,2.428100000023832,2.444799999952309,2.4613999999761518,2.4781000000238436,2.4947999999523063,2.511399999976149,2.52829999995231,2.5448999999761526,2.5642999999523113,2.578200000047687,2.5988999999761546,2.6117000000476764,2.6285000000000025,2.6447000000476777,2.6617000000476736,2.6783999999761505,2.6952000000476772,2.7117999999523192,2.7286000000238317,2.7452000000476744,2.7617999999523164,2.778600000023843,2.7951000000238366,2.8118999999761485,2.8286000000238403,2.8457000000476853,2.8661000000238346,2.88210000002384,2.894799999952312,2.9115000000000038,2.9282000000476813,2.944799999952309,2.9613999999761518,2.978499999999997,2.9996000000238325,3.015600000023838,3.0279999999999916,3.0451000000238366,3.0613999999761603,3.078399999976156,3.095100000023834,3.1117000000476764,3.1283999999761534,3.14520000004768,3.161799999952308,3.1784999999999997,3.194700000047675,3.2123999999761566,3.2308999999761596,3.244299999952318,3.261499999999998,3.2781000000238407,3.2947999999523176,3.3114999999999952,3.328100000023838,3.344799999952315,3.3616000000238415,3.378100000023835,3.3947000000476777,3.4115000000000038,3.429000000000002,3.4483999999761608,3.4617999999523192,3.4782999999523128,3.4954999999999927,3.515999999999991,3.5306000000238384,3.5451000000238366,3.5618999999761485,3.578100000023838,3.5968999999761593,3.6116000000238415,3.6286000000238374,3.6452999999523144,3.661899999976157,3.6784999999999997,3.694799999952309,3.711899999976154,3.7286000000238317,3.7452000000476744,3.7618999999761513,3.7781000000238407,3.7952000000476858,3.8118999999761485,3.828700000047675,3.845100000023834,3.8617999999523107,3.8782999999523184,3.894899999976161,3.9116000000238387,3.9284999999999997,3.9468999999761536,3.961899999976154,3.978499999999997,3.9952999999523087,4.011899999976151,4.028600000023843,4.04529999995232,4.061700000047679,4.080500000000001,4.095100000023834,4.115700000047681,4.128,4.14520000004768,4.161899999976157,4.180299999952311,4.194999999999993,4.2111000000238334,4.231600000023832,4.244799999952306,4.261399999976149,4.277999999999992,4.295200000047686,4.3117999999523136,4.328399999976156,4.344799999952315,4.361299999952308,4.378,4.394700000047678,4.411399999976155,4.427700000047679,4.445200000047677,4.4652000000476875,4.478399999976162,4.495200000047674,4.511600000023833,4.528100000023841,4.544799999952318,4.561200000047677,4.577700000047685,4.594299999952312,4.6113999999761575,4.628,4.644600000023843,4.66129999995232,4.678100000023832,4.694799999952309,4.711399999976152,4.7282000000476785,4.744799999952306,4.761299999952314,4.778100000023841,4.794799999952318,4.811299999952311,4.828000000000003,4.8447000000476805,4.861499999999992,4.877799999952316,4.894600000023843,4.911500000000004,4.928299999952316,4.944999999999993,4.9652999999523075,4.978100000023844,4.9982000000476745,5.011499999999998,5.028499999999994,5.045799999952308,5.066200000047687,5.082899999976149,5.09879999995232,5.111799999952311,5.132299999952309,5.149000000000001,5.165999999999997]",5,0,5,0,1,1.1321,,,,
A000000000-1,2025-04-16_14h20.16.188,GoFitts,2023.2.3,Win32,59.88023952,"[-405.13803962330525,-86.11474870406283]","[378.38053841612526,168.4658696653475]",21,828.3781289,6.32,1,0.9446,"[56,115,121,127,127,127,127,127,127,127,127,127,129,143,165,190,213,231,245,250,252,255,261,268,278,289,299,307,308,309,309,309,310,321,327,341,355,357,357,357,359,364,372,383,384,384,384,384,378,376,376,380,389,390,390,390,389,383,379,379,379,379,379,379,379,379,379,379,379,379,379,379,379,379,379,379,379,379,379,379,379,379,379,379,379,379,379,379,379,379,379,379,379,379,379,379,379,379,379,379,379]","[8,30,34,38,38,38,38,38,38,38,38,38,48,71,99,124,140,150,156,159,160,161,162,162,162,162,161,161,161,161,161,161,161,161,161,161,161,161,161,161,162,164,167,167,167,167,167,167,166,166,166,166,166,166,166,166,166,166,166,166,166,166,166,166,166,166,166,166,166,166,166,166,166,166,166,166,166,166,166,166,166,166,166,166,166,166,166,166,166,166,166,166,166,166,166,166,166,166,166,166,166]","[0,0,0,0,0,0,0,0,0,0,0,0,0,0,0,0,0,0,0,0,0,0,0,0,0,0,0,0,0,0,0,0,0,0,0,0,0,0,0,0,0,0,0,0,0,0,0,0,0,0,0,0,0,0,0,0,0,0,0,0,0,0,0,0,0,0,0,0,0,0,0,0,0,0,0,0,0,1,1,1,1,1,1,1,1,0,0,0,0,0,0,0,0,0,0,0,0,0,0,0,0]","[0,0,0,0,0,0,0,0,0,0,0,0,0,0,0,0,0,0,0,0,0,0,0,0,0,0,0,0,0,0,0,0,0,0,0,0,0,0,0,0,0,0,0,0,0,0,0,0,0,0,0,0,0,0,0,0,0,0,0,0,0,0,0,0,0,0,0,0,0,0,0,0,0,0,0,0,0,0,0,0,0,0,0,0,0,0,0,0,0,0,0,0,0,0,0,0,0,0,0,0,0]","[0,0,0,0,0,0,0,0,0,0,0,0,0,0,0,0,0,0,0,0,0,0,0,0,0,0,0,0,0,0,0,0,0,0,0,0,0,0,0,0,0,0,0,0,0,0,0,0,0,0,0,0,0,0,0,0,0,0,0,0,0,0,0,0,0,0,0,0,0,0,0,0,0,0,0,0,0,0,0,0,0,0,0,0,0,0,0,0,0,0,0,0,0,0,0,0,0,0,0,0,0]","[0,0.015000000000000568,0.027699999928472607,0.04739999997616451,0.06260000002383492,0.07729999995231651,0.09379999995231003,0.11039999997615269,0.12719999992847875,0.1437999999523214,0.16049999999999898,0.17710000002384163,0.19410000002383754,0.21079999995231447,0.22760000002384118,0.2442999999523181,0.26089999997616076,0.2776999999284726,0.29429999995231526,0.31069999992847386,0.3277999999523189,0.3439999999999941,0.36079999995232015,0.37760000002384686,0.3941000000238404,0.4106999999284682,0.42789999997616235,0.44410000002383754,0.4608999999761636,0.4776000000238412,0.49389999997616485,0.5104999999999933,0.5276999999284726,0.548199999928471,0.5609999999999928,0.5776000000238355,0.5941000000238432,0.6110000000000042,0.6269999999999953,0.6437999999523214,0.6608999999761522,0.677600000023844,0.6986000000238448,0.7150000000000034,0.7276999999284754,0.7438999999761648,0.7603999999761584,0.7771999999284702,0.7941999999284803,0.810799999952323,0.8271999999284674,0.8441999999284775,0.8612999999523225,0.8813999999761535,0.8937999999523214,0.910399999976164,0.927600000023844,0.9446000000238399,0.9646999999284702,0.9771999999284731,0.9939999999999998,1.0103999999761584,1.0271999999284702,1.043899999976162,1.0602999999523206,1.0771000000238473,1.0941000000238432,1.1106000000238367,1.1271999999284787,1.1441000000238404,1.160600000023848,1.177199999928476,1.1937999999523186,1.2104999999999961,1.227199999928473,1.2437999999523157,1.2606000000238424,1.277000000000001,1.293899999976162,1.3105000000000047,1.3271000000238473,1.34379999995231,1.3606000000238367,1.3771999999284787,1.3938999999761563,1.41019999992848,1.4266000000238392,1.443399999976151,1.4601000000238429,1.4773999999761571,1.497199999928469,1.5104999999999933,1.5271999999284702,1.543699999928478,1.5603999999761555,1.5771000000238473,1.59379999995231,1.6105000000000018,1.6271999999284787,1.6437999999523214,1.6606999999284682]",6,0,6,0,1,0.8612,,,,
A000000000-1,2025-04-16_14h20.16.188,GoFitts,2023.2.3,Win32,59.88023952,"[378.38053841612526,168.4658696653475]","[-335.08599200889194,-243.4542237333244]",21,828.3781289,6.32,1,2.8363,"[379,379,379,379,379,372,325,299,159,43,-87,-151,-288,-323,-332,-333,-333,-333,-333,-333,-333,-333,-333,-333,-333,-333,-333,-333,-334,-336,-339,-339,-338,-335,-334,-334,-334,-334,-334,-334,-334,-334,-334,-334,-334,-334,-334,-334,-334,-334,-334,-334,-334,-334,-334,-334,-334,-334,-334,-335,-335,-335,-335,-335,-335,-335,-335,-335,-335,-335,-335,-335,-335,-335,-335,-335,-335,-335,-335,-335,-335,-335,-335,-335,-335,-335,-335,-332,-320,-306,-295,-280,-269,-259,-240,-213,-192,-183,-183,-183,-183,-183,-183,-183,-183,-183,-183,-183,-183,-183,-183,-183,-183,-183,-183,-183,-183,-183,-183,-183,-182,-182,-181,-180,-180,-181,-190,-207,-229,-269,-291,-305,-315,-323,-330,-342,-355,-366,-380,-385,-385,-383,-377,-371,-360,-350,-340,-333,-330,-328,-326,-324,-323,-323,-323,-323,-323,-323,-323,-323,-323,-323,-323,-322,-322,-322,-322,-322,-322,-324,-328,-329,-330,-330,-330,-330,-330,-330,-331,-334,-335,-335,-335,-335,-335,-335,-334,-334,-334,-334,-334,-334,-334,-334,-334,-334,-334,-334,-334,-334,-334,-334,-334,-334,-334,-334,-334,-334,-334,-334,-334,-334,-334,-334]","[166,166,166,166,166,158,107,82,-27,-103,-176,-205,-274,-293,-302,-304,-304,-304,-304,-304,-304,-304,-304,-304,-304,-304,-304,-304,-304,-303,-296,-287,-277,-268,-266,-266,-266,-266,-266,-265,-264,-262,-261,-259,-255,-252,-246,-241,-239,-236,-235,-234,-231,-231,-231,-231,-231,-231,-232,-232,-232,-232,-233,-235,-236,-237,-238,-238,-238,-238,-238,-238,-238,-238,-238,-238,-238,-238,-238,-238,-238,-238,-238,-238,-238,-238,-237,-234,-230,-227,-225,-223,-222,-221,-219,-217,-214,-213,-213,-213,-213,-213,-213,-213,-213,-213,-213,-213,-213,-213,-213,-213,-213,-213,-213,-213,-213,-213,-213,-211,-173,-164,-154,-152,-152,-154,-158,-161,-165,-173,-178,-183,-187,-190,-192,-195,-200,-206,-216,-221,-223,-225,-225,-228,-231,-234,-237,-239,-242,-244,-245,-245,-245,-245,-245,-245,-247,-248,-249,-250,-250,-250,-250,-250,-249,-249,-248,-248,-247,-246,-244,-244,-243,-243,-243,-243,-243,-243,-243,-242,-242,-242,-242,-242,-242,-242,-242,-242,-242,-242,-241,-240,-240,-240,-240,-240,-240,-240,-240,-240,-240,-240,-240,-240,-240,-240,-240,-240,-240,-240,-240,-240,-240,-240]","[0,0,0,0,0,0,0,0,0,0,0,0,0,0,0,0,0,0,0,0,0,0,0,0,0,0,0,0,0,0,0,0,0,0,0,0,0,0,0,0,0,0,0,0,0,0,0,0,0,0,0,0,0,0,0,0,0,0,0,0,0,0,0,0,0,0,0,0,0,0,0,0,0,0,1,1,1,1,1,1,1,0,0,0,0,0,0,0,0,0,0,0,0,0,0,0,0,0,0,0,0,0,0,0,0,0,0,0,0,0,0,0,0,0,0,0,0,0,0,0,0,0,0,0,0,0,0,0,0,0,0,0,0,0,0,0,0,0,0,0,0,0,0,0,0,0,0,0,0,0,0,0,0,0,0,0,0,0,0,0,0,0,0,0,0,0,0,0,0,0,0,0,0,0,0,0,0,0,0,0,0,0,0,0,0,0,0,0,0,0,0,0,0,0,0,0,1,1,1,1,1,1,0,0,0,0,0,0,0,0,0,0,0,0]","[0,0,0,0,0,0,0,0,0,0,0,0,0,0,0,0,0,0,0,0,0,0,0,0,0,0,0,0,0,0,0,0,0,0,0,0,0,0,0,0,0,0,0,0,0,0,0,0,0,0,0,0,0,0,0,0,0,0,0,0,0,0,0,0,0,0,0,0,0,0,0,0,0,0,0,0,0,0,0,0,0,0,0,0,0,0,0,0,0,0,0,0,0,0,0,0,0,0,0,0,0,0,0,0,0,0,0,0,0,0,0,0,0,0,0,0,0,0,0,0,0,0,0,0,0,0,0,0,0,0,0,0,0,0,0,0,0,0,0,0,0,0,0,0,0,0,0,0,0,0,0,0,0,0,0,0,0,0,0,0,0,0,0,0,0,0,0,0,0,0,0,0,0,0,0,0,0,0,0,0,0,0,0,0,0,0,0,0,0,0,0,0,0,0,0,0,0,0,0,0,0,0,0,0,0,0,0,0,0,0,0,0,0,0]","[0,0,0,0,0,0,0,0,0,0,0,0,0,0,0,0,0,0,0,0,0,0,0,0,0,0,0,0,0,0,0,0,0,0,0,0,0,0,0,0,0,0,0,0,0,0,0,0,0,0,0,0,0,0,0,0,0,0,0,0,0,0,0,0,0,0,0,0,0,0,0,0,0,0,0,0,0,0,0,0,0,0,0,0,0,0,0,0,0,0,0,0,0,0,0,0,0,0,0,0,0,0,0,0,0,0,0,0,0,0,0,0,0,0,0,0,0,0,0,0,0,0,0,0,0,0,0,0,0,0,0,0,0,0,0,0,0,0,0,0,0,0,0,0,0,0,0,0,0,0,0,0,0,0,0,0,0,0,0,0,0,0,0,0,0,0,0,0,0,0,0,0,0,0,0,0,0,0,0,0,0,0,0,0,0,0,0,0,0,0,0,0,0,0,0,0,0,0,0,0,0,0,0,0,0,0,0,0,0,0,0,0,0,0]","[0,0.019000000000005457,0.03179999995231242,0.04860000002383913,0.06529999995231606,0.08270000004768008,0.1028999999761595,0.11549999999999727,0.1355000000000075,0.15089999997616133,0.16549999999999443,0.18220000004768622,0.19889999997616314,0.21560000002384072,0.23239999997615257,0.25089999997615564,0.2652000000476846,0.28189999997616155,0.29860000002383913,0.31510000002384686,0.3318999999761587,0.34839999997615223,0.3652999999523132,0.38189999997615587,0.39860000002384766,0.4152000000476903,0.431899999976153,0.4486000000238448,0.4656000000238407,0.48229999995231765,0.49910000002384436,0.515700000047687,0.5323999999761639,0.5491000000238415,0.5656000000238492,0.5820000000000078,0.5985000000000014,0.6153999999761623,0.631799999952321,0.6490000000000009,0.6672999999523199,0.6823999999761554,0.6989999999999981,0.7157000000476899,0.7322000000476834,0.7496000000238467,0.7698999999761611,0.7861000000238363,0.7988999999761575,0.8192000000476867,0.832299999952312,0.8490000000000038,0.866299999952318,0.8859999999999957,0.8987000000476826,0.9152999999523104,0.9320000000000022,0.9486000000238448,0.9657999999523241,0.9822999999523176,0.998600000023842,1.0152000000476846,1.0330000000000013,1.0528999999761623,1.0656000000238492,1.082399999976161,1.0992000000476878,1.1172999999523228,1.13210000002384,1.1487000000476826,1.1652000000476903,1.1820000000000022,1.1984999999999957,1.2152999999523217,1.2317999999523153,1.248500000000007,1.2652000000476846,1.2819999999999965,1.2985000000000042,1.3152000000476818,1.3320000000000078,1.3482999999523173,1.36489999997616,1.3816000000238375,1.3983999999761636,1.4153999999761595,1.432100000023837,1.4487000000476797,1.466200000047678,1.4862000000476883,1.4989999999999952,1.5157999999523213,1.532399999976164,1.5491000000238415,1.5657000000476842,1.582399999976161,1.5987999999523197,1.6157000000476813,1.632000000000005,1.6487000000476826,1.6652999999523104,1.681899999976153,1.6987000000476797,1.7152999999523217,1.7318999999761644,1.748600000023842,1.765299999952319,1.7818999999761616,1.7980000000000018,1.8147999999523137,1.8315000000000055,1.8487999999523197,1.8653999999761623,1.881799999952321,1.8983999999761636,1.9154999999999944,1.9320000000000022,1.9484999999999957,1.9652999999523217,1.9823999999761526,2.003,2.0157999999523213,2.032399999976164,2.0491000000238415,2.065200000047682,2.0821000000238428,2.0990000000000038,2.119200000047684,2.132200000047689,2.149000000000001,2.1656000000238436,2.185899999976158,2.199100000023847,2.215799999952324,2.2323999999761526,2.2491000000238444,2.265700000047687,2.282399999976164,2.3032000000476813,2.319500000000005,2.332299999952312,2.3490000000000038,2.369100000023849,2.3825000000000074,2.399100000023836,2.4168999999761525,2.436299999952311,2.452899999976154,2.465899999976159,2.4822000000476834,2.4992000000476793,2.515899999976156,2.5361000000238363,2.548600000023839,2.565200000047682,2.5821000000238428,2.5988999999761546,2.6157999999523156,2.636299999952314,2.6527999999523217,2.6652000000476903,2.681899999976153,2.6984999999999957,2.71570000004769,2.7322999999523176,2.748700000047691,2.765700000047687,2.785299999952315,2.7990000000000066,2.8156000000238492,2.836399999976166,2.852200000047688,2.8654999999999973,2.882000000000005,2.8987000000476826,2.9153999999761595,2.931899999976153,2.9487000000476797,2.96570000004769,2.9823999999761526,2.9989999999999952,3.015299999952319,3.0318999999761616,3.048600000023839,3.065200000047682,3.082000000000008,3.0988999999761546,3.115299999952313,3.131799999952321,3.1486000000238477,3.1657000000476785,3.1822999999523205,3.1987000000476797,3.2152000000476875,3.2318999999761644,3.248700000047691,3.265299999952319,3.2818999999761616,3.298500000000004,3.315299999952316,3.3318999999761587,3.3486000000238363,3.36489999997616,3.3855000000000075,3.3986000000238477,3.4152999999523104,3.431899999976153,3.4484999999999957,3.4652999999523217,3.4821000000238485,3.498600000023842,3.515299999952319,3.5319999999999965,3.5487999999523225]",7,0,7,0,1,0.0826,,,,
A000000000-1,2025-04-16_14h20.16.188,GoFitts,2023.2.3,Win32,59.88023952,"[-335.08599200889194,-243.4542237333244]","[277.14657982988416,307.80246000117734]",21,828.3781289,6.32,1,1.8994,"[-334,-334,-334,-334,-334,-334,-334,-329,-304,-262,-199,-126,-62,-15,77,129,161,185,187,187,187,187,187,187,187,187,187,187,190,215,237,255,261,265,265,264,259,252,246,244,244,244,244,244,247,253,254,254,255,255,256,257,259,261,262,262,262,262,262,263,265,267,267,267,267,267,267,267,268,272,273,276,276,276,276,276,276,277,279,281,281,281,281,281,281,281,281,281,281,281,281,281,281,281,281,281,281,281,281,281,281,281,281,281,281,281,281,281,281,281,281,281,281,281,281,281,281,281,281,281,281,281,281,281,281,281,281,281,281,281,281,281,281,281,281,281,281,281,281,281,281,281,281,281,281,281,281,281,281,281,281,281,281,281,281,281,281,281,281]","[-240,-240,-240,-240,-240,-240,-240,-237,-225,-205,-175,-140,-91,-42,46,92,119,148,156,156,156,156,156,156,156,156,156,156,169,215,246,270,279,287,287,286,284,283,282,282,282,282,282,282,284,286,287,287,288,288,290,291,293,295,296,296,296,296,296,297,298,300,300,301,302,302,302,302,303,307,308,310,311,311,311,311,312,314,316,317,318,318,318,318,318,318,318,318,318,318,318,318,318,318,318,318,318,318,318,318,318,318,318,318,318,318,318,318,318,318,318,318,318,318,313,309,309,309,309,309,309,309,309,309,309,309,309,309,309,309,309,309,309,309,309,309,309,309,309,309,309,309,309,309,309,309,309,309,309,309,309,309,309,309,309,309,309,309,309]","[0,0,0,0,0,0,0,0,0,0,0,0,0,0,0,0,0,0,0,0,0,0,0,0,0,0,0,0,0,0,0,0,0,0,0,0,0,0,0,0,0,0,0,0,0,0,0,0,0,0,0,0,0,0,0,0,0,0,0,0,0,0,0,0,0,0,0,0,0,0,0,0,0,0,0,0,0,0,0,0,0,0,0,0,0,0,0,0,0,1,1,1,1,1,0,0,0,0,0,0,0,0,0,0,0,0,0,0,0,0,0,0,0,0,0,0,0,0,0,0,0,0,0,0,0,0,0,0,0,0,0,0,1,1,1,1,1,0,0,0,0,0,0,0,0,0,0,0,0,0,0,0,0,0,0,0,0,0,0]","[0,0,0,0,0,0,0,0,0,0,0,0,0,0,0,0,0,0,0,0,0,0,0,0,0,0,0,0,0,0,0,0,0,0,0,0,0,0,0,0,0,0,0,0,0,0,0,0,0,0,0,0,0,0,0,0,0,0,0,0,0,0,0,0,0,0,0,0,0,0,0,0,0,0,0,0,0,0,0,0,0,0,0,0,0,0,0,0,0,0,0,0,0,0,0,0,0,0,0,0,0,0,0,0,0,0,0,0,0,0,0,0,0,0,0,0,0,0,0,0,0,0,0,0,0,0,0,0,0,0,0,0,0,0,0,0,0,0,0,0,0,0,0,0,0,0,0,0,0,0,0,0,0,0,0,0,0,0,0]","[0,0,0,0,0,0,0,0,0,0,0,0,0,0,0,0,0,0,0,0,0,0,0,0,0,0,0,0,0,0,0,0,0,0,0,0,0,0,0,0,0,0,0,0,0,0,0,0,0,0,0,0,0,0,0,0,0,0,0,0,0,0,0,0,0,0,0,0,0,0,0,0,0,0,0,0,0,0,0,0,0,0,0,0,0,0,0,0,0,0,0,0,0,0,0,0,0,0,0,0,0,0,0,0,0,0,0,0,0,0,0,0,0,0,0,0,0,0,0,0,0,0,0,0,0,0,0,0,0,0,0,0,0,0,0,0,0,0,0,0,0,0,0,0,0,0,0,0,0,0,0,0,0,0,0,0,0,0,0]","[0,0.0197000000476919,0.03560000002384811,0.048500000000004206,0.06529999995231606,0.08179999995232379,0.09850000000000136,0.11570000004768133,0.1343999999761678,0.1490000000000009,0.16550000000000864,0.18250000000000455,0.19899999999999807,0.21570000004768985,0.23610000002383913,0.2488999999761603,0.26550000000000296,0.28189999997616155,0.300899999976167,0.3155000000000001,0.3318999999761587,0.3486000000238505,0.3652999999523132,0.38189999997615587,0.39860000002384766,0.4152000000476903,0.43200000000000216,0.44870000004769395,0.4656000000238407,0.48229999995231765,0.49910000002384436,0.515700000047687,0.5323999999761639,0.5490000000000066,0.5688999999761677,0.5823999999761611,0.5991000000238387,0.6156000000238464,0.636200000047694,0.6527999999523217,0.6652000000476903,0.6820000000000022,0.6985000000000099,0.7152000000476875,0.7323999999761668,0.7490000000000094,0.765700000047687,0.7820000000000107,0.7991000000238415,0.8152999999523161,0.8323999999761611,0.8490000000000038,0.8657000000476813,0.8823999999761583,0.898899999976166,0.9152000000476903,0.9318999999761672,0.948700000047694,0.9652999999523217,0.9823999999761668,0.9988999999761603,1.015500000000003,1.0320000000000107,1.0488999999761575,1.0657000000476842,1.085000000000008,1.0986000000238505,1.1153999999761623,1.1328999999761606,1.1530000000000058,1.1655000000000086,1.1822000000476862,1.198799999952314,1.2151000000238525,1.231499999999997,1.248600000023842,1.265299999952319,1.2822999999523148,1.2988999999761575,1.3148999999761628,1.3333999999761659,1.3527000000476903,1.3652999999523132,1.3818999999761559,1.3986000000238477,1.4152999999523246,1.4320000000000022,1.44850000000001,1.4652000000476875,1.4819999999999993,1.498700000047691,1.515500000000003,1.5317999999523266,1.5485000000000042,1.5647999999523137,1.5816000000238404,1.5982999999523173,1.6152999999523132,1.631799999952321,1.6486000000238477,1.6651000000238412,1.6820000000000022,1.698700000047694,1.7153999999761567,1.7319999999999993,1.748700000047691,1.7652000000476846,1.7820000000000107,1.7987000000476883,1.8151000000238469,1.8317999999523238,1.8486000000238505,1.8652000000476932,1.8818999999761559,1.8993999999761684,1.919200000047681,1.9318999999761672,1.948700000047694,1.9652000000476875,1.9819999999999993,1.998500000000007,2.015299999952319,2.0320000000000107,2.048399999976155,2.065299999952316,2.081799999952324,2.0986000000238505,2.115299999952313,2.132000000000005,2.1486000000238477,2.1652000000476903,2.1818999999761672,2.198700000047694,2.2152000000476875,2.2319999999999993,2.248500000000007,2.265299999952319,2.2815000000000083,2.298200000047686,2.3147999999523137,2.3313999999761563,2.348200000047683,2.3671000000238394,2.382000000000005,2.3984999999999985,2.4153999999761595,2.4318999999761672,2.45150000000001,2.4652999999523217,2.4819999999999993,2.498500000000007,2.5152000000476846,2.5320000000000107,2.548600000023839,2.565299999952316,2.581799999952324,2.5986000000238505,2.615299999952313,2.632000000000005]",8,0,8,0,1,0.1343,,,,
