key_resp_4.keys,key_resp_4.rt,身分證字號,date,expName,psychopyVersion,OS,frameRate,mouse_2.x,mouse_2.y,mouse_2.leftButton,mouse_2.midButton,mouse_2.rightButton,mouse_2.time,cont.keys,cont.rt,retry_testing.thisRepN,retry_testing.thisTrialN,retry_testing.thisN,retry_testing.thisIndex,retry_testing.ran,key_resp.keys,key_resp.rt,key_resp_3.keys,key_resp_3.rt,from,to,w,a,sequence_loop.thisN,mouse.x,mouse.y,mouse.leftButton,mouse.midButton,mouse.rightButton,mouse.time,key_resp_2.keys,trial_loop.thisRepN,trial_loop.thisTrialN,trial_loop.thisN,trial_loop.thisIndex,trial_loop.ran,sequence_loop.thisRepN,sequence_loop.thisTrialN,sequence_loop.thisIndex,sequence_loop.ran
return,7.9148,A111111111,2024-06-20_17h28.05.785,GoFitts,2022.2.4,Win32,59.88023952,,,,,,,,,,,,,,,,,,,,,,,,,,,,,,,,,,,,,,
,,A111111111,2024-06-20_17h28.05.785,GoFitts,2022.2.4,Win32,59.88023952,"[922,922,922,922,922,922,926,939,959,959,959,959,959,959,959,959,959,959,959,959,959,959,959,959,959,959,959,959,959,959,959,953,949,945,945,946,944,938,934,934,932,927,919,908,899,883,858,823,765,650,518,377,237,108,10,-53,-75,-77,-71,-45,7,83,158,228,285,326,353,367,373,375,375,376,377,378,379,379,377,376,375,373,370,367,364,361,359,358,358,358,358,358,358,358,358,358,358,358,358,358,358,358,358,358,358,358,359,360,361,361,361,361,361,361,361,361,361,361,361,361,361,361,361,361,359,357,356,354,352,351,348,341,333,330,330,338,338,338,338,338,338,338,338,338,338,338,326,303,268,216,165,134,116,108,104,101,100,99,95,91,85,81,78,72,66,57,48,42,35,27,22,19,18,17,17,17,17,17,17,17,17,17,17,17,17,17,17,17,17,17,17,15,10,1,-11,-27,-56,-95,-142,-199,-257,-313,-353,-375,-385,-386,-386,-386,-385,-383,-382,-381,-380,-378,-375,-372,-368,-367,-366,-362,-356,-350,-346,-343,-343,-343,-343,-343,-342,-342,-342,-342,-340,-335,-322,-296,-259,-216,-177,-136,-104,-79,-66,-62,-60,-60,-60,-60,-59,-57,-52,-43,-34,-25,-16]","[42,42,42,42,42,42,41,36,34,40,55,73,104,139,153,160,160,160,160,160,160,160,160,160,160,160,160,160,160,160,160,172,194,226,254,274,283,289,291,291,291,293,294,293,282,254,224,197,174,151,139,130,119,110,105,103,102,102,102,96,84,65,44,22,1,-13,-22,-25,-25,-25,-25,-25,-24,-22,-21,-19,-18,-16,-14,-11,-6,-2,1,4,5,5,5,5,5,5,5,5,5,5,5,5,5,5,5,5,5,5,5,5,5,4,4,4,4,4,4,4,4,4,4,4,4,4,4,4,3,3,1,0,-1,-3,-5,-5,-5,-3,4,15,21,23,23,23,23,23,23,23,23,23,23,23,38,57,79,115,150,177,198,216,232,248,260,271,280,288,295,301,307,313,319,325,331,336,341,345,348,349,350,351,351,351,351,351,351,351,351,351,351,351,351,351,351,351,351,351,351,342,330,310,279,236,176,112,49,-1,-39,-66,-80,-86,-86,-84,-77,-68,-58,-48,-39,-32,-27,-23,-19,-17,-15,-14,-13,-12,-10,-8,-6,-4,-3,-3,-3,-3,-3,-3,-3,-3,-5,-13,-31,-63,-104,-149,-193,-240,-280,-312,-329,-336,-339,-340,-340,-340,-340,-340,-340,-340,-341,-342,-342]","[0,0,0,0,0,0,0,0,0,0,0,0,0,0,0,0,0,0,0,0,0,0,0,0,0,0,0,0,0,0,0,0,0,0,0,0,0,0,0,0,0,0,0,0,0,0,0,0,0,0,0,0,0,0,0,0,0,0,0,0,0,0,0,0,0,0,0,0,0,0,0,0,0,0,0,0,0,0,0,0,0,0,0,0,0,0,0,0,0,0,0,0,1,1,1,1,1,1,1,0,0,0,0,0,0,0,0,0,0,0,0,0,0,0,0,0,0,0,0,0,0,0,0,0,0,0,0,0,0,0,0,0,0,0,0,0,0,0,0,0,0,0,0,0,0,0,0,0,0,0,0,0,0,0,0,0,0,0,0,0,0,0,0,0,0,0,0,0,0,0,0,0,0,0,1,1,1,1,1,1,1,1,0,0,0,0,0,0,0,0,0,0,0,0,0,0,0,0,0,0,0,0,0,0,0,0,0,0,0,0,0,0,0,0,0,0,0,0,0,0,0,0,0,0,1,1,1,1,1,1,0,0,0,0,0,0,0,0,0,0,0,0,0,0,0,0,0,0,0,0,0,0,0]","[0,0,0,0,0,0,0,0,0,0,0,0,0,0,0,0,0,0,0,0,0,0,0,0,0,0,0,0,0,0,0,0,0,0,0,0,0,0,0,0,0,0,0,0,0,0,0,0,0,0,0,0,0,0,0,0,0,0,0,0,0,0,0,0,0,0,0,0,0,0,0,0,0,0,0,0,0,0,0,0,0,0,0,0,0,0,0,0,0,0,0,0,0,0,0,0,0,0,0,0,0,0,0,0,0,0,0,0,0,0,0,0,0,0,0,0,0,0,0,0,0,0,0,0,0,0,0,0,0,0,0,0,0,0,0,0,0,0,0,0,0,0,0,0,0,0,0,0,0,0,0,0,0,0,0,0,0,0,0,0,0,0,0,0,0,0,0,0,0,0,0,0,0,0,0,0,0,0,0,0,0,0,0,0,0,0,0,0,0,0,0,0,0,0,0,0,0,0,0,0,0,0,0,0,0,0,0,0,0,0,0,0,0,0,0,0,0,0,0,0,0,0,0,0,0,0,0,0,0,0,0,0,0,0,0,0,0,0,0,0,0,0,0,0,0,0,0,0,0,0,0,0,0]","[0,0,0,0,0,0,0,0,0,0,0,0,0,0,0,0,0,0,0,0,0,0,0,0,0,0,0,0,0,0,0,0,0,0,0,0,0,0,0,0,0,0,0,0,0,0,0,0,0,0,0,0,0,0,0,0,0,0,0,0,0,0,0,0,0,0,0,0,0,0,0,0,0,0,0,0,0,0,0,0,0,0,0,0,0,0,0,0,0,0,0,0,0,0,0,0,0,0,0,0,0,0,0,0,0,0,0,0,0,0,0,0,0,0,0,0,0,0,0,0,0,0,0,0,0,0,0,0,0,0,0,0,0,0,0,0,0,0,0,0,0,0,0,0,0,0,0,0,0,0,0,0,0,0,0,0,0,0,0,0,0,0,0,0,0,0,0,0,0,0,0,0,0,0,0,0,0,0,0,0,0,0,0,0,0,0,0,0,0,0,0,0,0,0,0,0,0,0,0,0,0,0,0,0,0,0,0,0,0,0,0,0,0,0,0,0,0,0,0,0,0,0,0,0,0,0,0,0,0,0,0,0,0,0,0,0,0,0,0,0,0,0,0,0,0,0,0,0,0,0,0,0,0]","[0.0017999999821185497,0.01429999998211784,0.026099999994038114,0.04279999998211892,0.0601999999880789,0.07600000000000051,0.0931999999880766,0.10959999999403891,0.12619999998807785,0.14300000000000068,0.15959999999403962,0.17619999998807856,0.19299999999999784,0.20949999999999847,0.22709999999403863,0.2427999999821182,0.25929999998211883,0.2759999999999998,0.29259999999403874,0.30929999998211954,0.3260000000000005,0.3427999999821161,0.3595999999940389,0.3766999999880767,0.3932999999821192,0.41009999999403846,0.4266999999880774,0.44329999998211633,0.45969999998807864,0.4760999999940374,0.4926999999880799,0.5093999999761571,0.52619999998808,0.5428999999761572,0.5594999999999999,0.5761999999880771,0.5928999999761579,0.6095000000000006,0.6260999999940395,0.6427999999821168,0.6595999999940396,0.6763999999761587,0.6930999999940397,0.7095999999940403,0.7262999999821176,0.7452999999821195,0.7607999999821189,0.7762999999821183,0.7929999999999993,0.8096999999880765,0.8265999999940377,0.843,0.8595999999940389,0.8765999999940384,0.8930000000000007,0.9095999999940396,0.9265000000000008,0.9443999999761559,0.9594999999999985,0.9765999999940398,0.9930999999940404,1.0096999999880794,1.0264999999999986,1.0431999999880794,1.0599999999999987,1.0766999999880795,1.0930999999940383,1.1099999999999994,1.1265999999940384,1.1432999999821192,1.1597999999821162,1.1766999999880774,1.1930999999940397,1.2100999999940392,1.226699999988078,1.243299999982117,1.2601999999880782,1.278099999994037,1.2951999999880783,1.3098999999761567,1.3265999999940377,1.3433999999761568,1.3606999999880784,1.3765999999940384,1.3934999999999995,1.4101999999880768,1.4267999999821193,1.4435000000000002,1.4600999999940392,1.4768999999761583,1.493299999982117,1.5101999999880782,1.5269999999999975,1.543399999976156,1.561,1.5775000000000006,1.5940999999940395,1.6107999999821168,1.6275999999940396,1.643799999982118,1.6602999999821186,1.677099999994038,1.6936999999880769,1.710599999994038,1.7270999999940386,1.7435999999940393,1.7605999999940387,1.7770999999940393,1.7940000000000005,1.8104999999999976,1.8275999999940389,1.844399999976158,1.8611999999880773,1.877899999976158,1.8943999999761587,1.910499999999999,1.9271999999880798,1.943999999999999,1.9606999999880799,1.977999999999998,1.994799999982117,2.0109999999999992,2.0270999999940393,2.0440000000000005,2.0606999999880777,2.0775000000000006,2.0939999999999976,2.1108999999761586,2.127699999988078,2.1441999999880785,2.160699999988079,2.177299999982118,2.1978999999761584,2.2111999999880787,2.227499999999999,2.24419999998808,2.261499999999998,2.278299999982117,2.294799999982118,2.311699999988079,2.3281999999880796,2.344899999976157,2.361599999994038,2.378499999999999,2.394299999982117,2.410899999976156,2.4276999999880786,2.444399999976156,2.4611999999880787,2.4776999999880793,2.4943999999761566,2.5111999999880794,2.5276999999880765,2.5445999999940376,2.5611999999880766,2.577799999982119,2.5945,2.611299999982119,2.6280999999940384,2.644599999994039,2.6612999999821163,2.678000000000001,2.6945999999940398,2.711399999976159,2.72809999999404,2.744799999982117,2.7612999999821177,2.7779999999999987,2.7946999999880795,2.8113999999761567,2.82859999999404,2.844899999976157,2.861599999994038,2.878399999976157,2.8948999999761575,2.9117999999821187,2.9281999999880775,2.9448999999761583,2.961500000000001,2.9783999999761583,2.994899999976159,3.01159999999404,3.0284999999999975,3.044999999999998,3.061599999994037,3.078299999982118,3.094999999999999,3.1116999999880797,3.1288999999761558,3.145099999994038,3.161699999988077,3.1783999999761576,3.195199999988077,3.2116999999880775,3.2283999999761583,3.2451999999880776,3.2618999999761584,3.2784999999999975,3.2952999999821166,3.3119999999999976,3.3284999999999982,3.3452999999821174,3.3618999999761563,3.3787999999821174,3.3953999999761564,3.412199999988079,3.428799999982118,3.445399999976157,3.46219999998808,3.478899999976157,3.495399999976158,3.512199999988077,3.528799999982116,3.5468999999761586,3.5620999999940395,3.5791999999880773,3.597199999988078,3.6123999999761587,3.629199999988078,3.6454999999999984,3.6622999999821175,3.6791999999880787,3.6970999999940375,3.7132999999821195,3.7300999999940387,3.74569999998808,3.7623999999761573,3.7790999999940382,3.7959999999999994,3.8127999999821185,3.8293999999761574,3.845799999982116,3.8625000000000007,3.879199999988078,3.8958999999761588,3.912399999976156,3.9291999999880787,3.9457999999821176,3.9625999999940404,3.9792999999821177,3.9958999999761566,4.012599999994038,4.029499999999999,4.046299999982118,4.062599999994038,4.079399999976157,4.095899999976158,4.112599999994039,4.129299999982116,4.146099999994039,4.162899999976158,4.179299999982117,4.19609999999404]",return,4.5368,0,0,0,0,1,,,,,,,,,,,,,,,,,,,,,,,,,
,,A111111111,2024-06-20_17h28.05.785,GoFitts,2022.2.4,Win32,59.88023952,,,,,,,,,,,,,,return,1.2009,,,,,,,,,,,,,,,,,,,,,,,
,,A111111111,2024-06-20_17h28.05.785,GoFitts,2022.2.4,Win32,59.88023952,,,,,,,,,,,,,,,,return,0.9334,"[-14,-79]","[-158.94898511924342,-33.78564975788585]",60.5,325,0,"[-14,-14,-14,-14,-14,-14,-14,-14,-14,-14,-14,-14,-14,-14,-14,-14,-14,-14,-14,-14,-14,-14,-14,-14,-14,-14,-14,-14,-14,-14,-14,-18,-20,-20,-20,-20,-20,-20,-20,-20,-20,-20,-20,-54,-82,-104,-116,-125,-138]","[-79,-79,-79,-79,-79,-79,-79,-79,-79,-79,-79,-79,-79,-79,-79,-79,-79,-79,-79,-79,-79,-79,-79,-79,-79,-79,-79,-79,-79,-79,-77,-57,-46,-41,-41,-41,-41,-41,-41,-41,-41,-41,-41,-34,-34,-35,-35,-35,-36]","[0,0,0,0,0,0,0,0,0,0,0,0,0,0,0,0,0,0,0,0,0,0,0,0,0,0,0,0,0,0,0,0,0,0,0,0,0,0,0,0,0,0,0,0,0,0,0,0,0]","[0,0,0,0,0,0,0,0,0,0,0,0,0,0,0,0,0,0,0,0,0,0,0,0,0,0,0,0,0,0,0,0,0,0,0,0,0,0,0,0,0,0,0,0,0,0,0,0,0]","[0,0,0,0,0,0,0,0,0,0,0,0,0,0,0,0,0,0,0,0,0,0,0,0,0,0,0,0,0,0,0,0,0,0,0,0,0,0,0,0,0,0,0,0,0,0,0,0,0]","[0.0017000000178803987,0.017200000017879802,0.03440000000595944,0.04120000001788071,0.06499999999999773,0.0852000000178812,0.10099999999999909,0.10780000001192036,0.13440000000596086,0.14090000000595992,0.15730000001191868,0.1855000000000011,0.20110000002384254,0.20780000001192178,0.2339000000059599,0.24050000000000082,0.2572000000178818,0.27410000002384294,0.2908000000119202,0.31810000002383987,0.3247000000178808,0.3504000000059584,0.35720000001787966,0.3738000000119186,0.39060000002384143,0.40720000001788037,0.4239000000059612,0.44060000002384214,0.4572000000178811,0.47390000000595833,0.4914999999999985,0.5175000000000018,0.5341000000238445,0.5511000000238404,0.5684999999999967,0.575300000011918,0.60160000002384,0.6081000000238426,0.6239000000059569,0.6406000000238414,0.6686000000238401,0.6751000000238427,0.6901000000238433,0.7176000000238396,0.7343000000119169,0.7510000000000012,0.7678000000119205,0.7844999999999978,0.8011000000238404]",,0,0,0,0,1,,,,
,,A111111111,2024-06-20_17h28.05.785,GoFitts,2022.2.4,Win32,59.88023952,,,,,,,,,,,,,,,,,,"[-158.94898511924342,-33.78564975788585]","[148.45113686692264,66.09470449981752]",60.5,325,0,"[-138,-150,-158,-162,-165,-166,-166,-166,-166,-166,-166,-166,-166,-166,-166,-166,-166,-166,-164,-145,-120,-84,-43,1,38,71,96,109,117,121]","[-36,-36,-36,-36,-36,-35,-35,-35,-35,-35,-35,-35,-35,-35,-35,-35,-35,-35,-35,-30,-21,-10,4,19,32,44,52,56,57,58]","[0,0,0,0,0,0,0,0,0,0,1,1,1,1,1,1,1,1,0,0,0,0,0,0,0,0,0,0,0,0]","[0,0,0,0,0,0,0,0,0,0,0,0,0,0,0,0,0,0,0,0,0,0,0,0,0,0,0,0,0,0]","[0,0,0,0,0,0,0,0,0,0,0,0,0,0,0,0,0,0,0,0,0,0,0,0,0,0,0,0,0,0]","[0.0005000000000023874,0.01640000000595876,0.03300000000000125,0.05090000000596007,0.06780000001192121,0.0844000000059637,0.10059999999403857,0.11440000000596484,0.13400000000000034,0.1415999999940425,0.1664999999999992,0.18330000001191848,0.19990000000596098,0.20550000000000068,0.2222000000178852,0.23900000000000432,0.2558000000119236,0.2725999999940427,0.2890000000000015,0.31659999999403965,0.33340000000595893,0.3500999999940433,0.3665999999940439,0.3834000000059632,0.40009999999404045,0.4167000000178831,0.4335000000000022,0.4500999999940376,0.46699999999999875,0.48380000001192514]",,1,0,1,0,1,,,,
,,A111111111,2024-06-20_17h28.05.785,GoFitts,2022.2.4,Win32,59.88023952,,,,,,,,,,,,,,,,,,"[148.45113686692264,66.09470449981752]","[-131.46526158592897,-95.51510349752687]",60.5,325,0,"[121,123,124,126,127,128,129,130,130,130,130,130,130,131,131,131,131,131,124,111,93,71,42,12,-17,-38,-52,-60,-66,-70,-78,-90,-104,-117]","[58,58,58,58,58,58,58,58,58,58,58,58,58,58,58,58,58,58,55,48,34,16,-6,-26,-44,-56,-61,-63,-66,-67,-70,-75,-81,-86]","[0,0,0,0,0,0,0,0,1,1,1,1,1,1,1,1,0,0,0,0,0,0,0,0,0,0,0,0,0,0,0,0,0,0]","[0,0,0,0,0,0,0,0,0,0,0,0,0,0,0,0,0,0,0,0,0,0,0,0,0,0,0,0,0,0,0,0,0,0]","[0,0,0,0,0,0,0,0,0,0,0,0,0,0,0,0,0,0,0,0,0,0,0,0,0,0,0,0,0,0,0,0,0,0]","[0.0003000000119186552,0.016300000011916893,0.032900000005959384,0.049700000017878665,0.06730000001191883,0.08430000001192184,0.10090000000595722,0.11740000000595785,0.13450000000000273,0.15059999999403573,0.1670000000000016,0.17330000001192047,0.18849999999999767,0.21450000000000102,0.23380000001191803,0.24049999999999727,0.26690000000596115,0.28320000001787804,0.29980000001192053,0.3164999999999978,0.3330999999940403,0.34990000000595955,0.3665999999940368,0.38309999999403743,0.3999000000059567,0.4167000000178831,0.4332000000178837,0.44999999999999574,0.4670999999940406,0.4834999999999994,0.5,0.5165999999940354,0.5334999999999965,0.5499999999999972]",,2,0,2,0,1,,,,
,,A111111111,2024-06-20_17h28.05.785,GoFitts,2022.2.4,Win32,59.88023952,,,,,,,,,,,,,,,,,,"[-131.46526158592897,-95.51510349752687]","[108.73372353331446,120.76103414007656]",60.5,325,0,"[-117,-123,-123,-123,-123,-123,-123,-123,-126,-129,-130,-130,-130,-130,-130,-128,-115,-86,-42,3,48,82,100,108,111]","[-86,-89,-89,-89,-89,-89,-89,-89,-96,-98,-99,-99,-99,-99,-99,-98,-87,-70,-43,-12,21,49,69,83,91]","[0,0,0,0,1,1,1,1,1,0,0,0,0,0,0,0,0,0,0,0,0,0,0,0,0]","[0,0,0,0,0,0,0,0,0,0,0,0,0,0,0,0,0,0,0,0,0,0,0,0,0]","[0,0,0,0,0,0,0,0,0,0,0,0,0,0,0,0,0,0,0,0,0,0,0,0,0]","[0.0002999999821184929,0.016900000005961147,0.03319999998807788,0.05069999998807617,0.06619999998807913,0.08340000000595893,0.09990000000595955,0.10469999998807822,0.1331999999880793,0.1501999999880752,0.16669999998807583,0.1834999999999951,0.2000999999940376,0.2049999999999983,0.22140000000595705,0.25109999999403954,0.2665999999940354,0.28340000000595467,0.300099999994039,0.3167999999821163,0.3332999999821169,0.35019999998807805,0.36679999998211343,0.3836999999880746,0.40009999999403334]",,3,0,3,0,1,,,,
,,A111111111,2024-06-20_17h28.05.785,GoFitts,2022.2.4,Win32,59.88023952,,,,,,,,,,,,,,,,,,"[108.73372353331446,120.76103414007656]","[-81.25000000000007,-140.72912811497125]",60.5,325,0,"[111,112,112,112,112,113,113,113,113,113,113,113,113,113,113,113,113,113,112,103,89,69,41,5,-29,-60,-80]","[91,96,99,101,104,109,112,113,114,114,114,114,114,114,114,114,114,114,113,101,80,46,3,-43,-83,-108,-125]","[0,0,0,0,0,0,0,0,0,1,1,1,1,1,1,1,0,0,0,0,0,0,0,0,0,0,0]","[0,0,0,0,0,0,0,0,0,0,0,0,0,0,0,0,0,0,0,0,0,0,0,0,0,0,0]","[0,0,0,0,0,0,0,0,0,0,0,0,0,0,0,0,0,0,0,0,0,0,0,0,0,0,0]","[0.0003000000119186552,0.01640000000595876,0.03490000000596183,0.050100000023839186,0.06680000001191644,0.0832000000178823,0.10120000001788299,0.11790000000596024,0.13440000000596086,0.15020000001788247,0.16680000001191786,0.1839999999999975,0.19040000000595825,0.20460000002383794,0.23320000001788088,0.2397000000178835,0.26360000002384254,0.28340000000596177,0.3001000000238392,0.31680000001191644,0.33340000000595893,0.3502000000178782,0.36690000000596257,0.38360000002384,0.4002000000178825,0.4170000000000016,0.4335000000000022]",,4,0,4,0,1,,,,
,,A111111111,2024-06-20_17h28.05.785,GoFitts,2022.2.4,Win32,59.88023952,,,,,,,,,,,,,,,,,,"[-81.25000000000007,-140.72912811497125]","[50.215261585928964,154.54668389796245]",60.5,325,0,"[-80,-90,-93,-94,-94,-94,-94,-94,-94,-94,-94,-94,-94,-94,-94,-94,-92,-82,-63,-38,-8,23,47,61,68,71,71,71,71,71,70,68,66,63,60]","[-125,-134,-138,-139,-139,-139,-139,-139,-139,-139,-139,-139,-139,-139,-139,-139,-135,-121,-103,-74,-34,6,42,66,84,94,101,105,108,111,112,116,120,124,127]","[0,0,0,0,0,0,0,0,0,0,1,1,1,1,1,1,1,0,0,0,0,0,0,0,0,0,0,0,0,0,0,0,0,0,0]","[0,0,0,0,0,0,0,0,0,0,0,0,0,0,0,0,0,0,0,0,0,0,0,0,0,0,0,0,0,0,0,0,0,0,0]","[0,0,0,0,0,0,0,0,0,0,0,0,0,0,0,0,0,0,0,0,0,0,0,0,0,0,0,0,0,0,0,0,0,0,0]","[0.0003000000119186552,0.016599999994035386,0.03319999998807788,0.052699999988078616,0.06740000000596069,0.08430000001192184,0.10069999998808044,0.11730000001192309,0.1331999999880793,0.13769999998807947,0.1541999999880801,0.17069999998808072,0.20080000001191678,0.20749999999999602,0.23400000000000176,0.2409000000059578,0.26669999998807725,0.2835999999940384,0.3001999999880809,0.3166999999880744,0.33359999999403556,0.3503000000119201,0.3668000000119207,0.3836999999880746,0.40030000001191723,0.41680000001191786,0.43369999998807884,0.4504999999999981,0.4671999999880754,0.483699999988076,0.5019000000059606,0.5170999999940378,0.5338000000119223,0.5504999999999995,0.5671999999880768]",,5,0,5,0,1,,,,
,,A111111111,2024-06-20_17h28.05.785,GoFitts,2022.2.4,Win32,59.88023952,,,,,,,,,,,,,,,,,,"[50.215261585928964,154.54668389796245]","[-16.985875280993813,-161.6098079973444]",60.5,325,0,"[60,59,59,59,59,59,59,59,59,59,59,59,59,59,58,54,50,42,31,21,10,-4,-13]","[127,129,131,133,134,135,135,136,136,136,136,136,136,136,133,119,96,65,24,-26,-73,-112,-141]","[0,0,1,1,1,1,1,1,1,1,1,0,0,0,0,0,0,0,0,0,0,0,0]","[0,0,0,0,0,0,0,0,0,0,0,0,0,0,0,0,0,0,0,0,0,0,0]","[0,0,0,0,0,0,0,0,0,0,0,0,0,0,0,0,0,0,0,0,0,0,0]","[0.0002999999821184929,0.01769999998807492,0.03309999999403601,0.04979999998212037,0.06749999999999545,0.0832999999821169,0.09969999998807566,0.11659999999403681,0.1331999999880793,0.13799999999999812,0.16729999998212008,0.1834999999999951,0.19969999998807708,0.21729999998211724,0.23329999998211548,0.2497999999821161,0.2665000000000006,0.28329999998211974,0.29999999999999716,0.31659999999403965,0.33319999998807504,0.34990000000595955,0.36679999998212054]",,6,0,6,0,1,,,,
,,A111111111,2024-06-20_17h28.05.785,GoFitts,2022.2.4,Win32,59.88023952,,,,,,,,,,,,,,,,,,"[-16.985875280993813,-161.6098079973444]","[-16.985875280993668,161.60980799734443]",60.5,325,0,"[-13,-19,-19,-22,-22,-23,-23,-23,-23,-23,-23,-23,-23,-23,-23,-23,-23,-23,-22,-13,-4,2,5,7,10,14,15,16,17,17,17,17,17,17,17,17,17,17,17,17,17,15,15,12,7,0]","[-141,-158,-160,-169,-172,-173,-175,-175,-175,-175,-175,-175,-175,-175,-175,-175,-175,-175,-165,-128,-87,-35,19,70,111,146,171,188,201,211,215,217,217,217,217,217,217,217,217,217,212,207,202,196,186,173]","[0,0,0,0,0,0,0,0,0,0,0,0,1,1,1,1,1,1,0,0,0,0,0,0,0,0,0,0,0,0,0,0,0,0,1,1,1,1,1,1,0,0,0,0,0,0]","[0,0,0,0,0,0,0,0,0,0,0,0,0,0,0,0,0,0,0,0,0,0,0,0,0,0,0,0,0,0,0,0,0,0,0,0,0,0,0,0,0,0,0,0,0,0]","[0,0,0,0,0,0,0,0,0,0,0,0,0,0,0,0,0,0,0,0,0,0,0,0,0,0,0,0,0,0,0,0,0,0,0,0,0,0,0,0,0,0,0,0,0,0]","[0.0002999999821184929,0.01629999998211673,0.02129999998211929,0.04979999998212037,0.06649999999999778,0.0832999999821169,0.09990000000595955,0.11650000000000205,0.13329999998212116,0.13829999998211662,0.1529999999999987,0.16959999999404118,0.2010000000000005,0.217599999994043,0.2339000000059599,0.2404000000059625,0.2530000000000001,0.26979999998211923,0.28600000000000136,0.3166999999880815,0.3332999999821169,0.35019999998807805,0.3666999999880787,0.3834000000059632,0.4001999999880823,0.4167999999821177,0.4332999999821183,0.45019999998807947,0.46679999998212196,0.48359999999404124,0.5002999999821185,0.5170999999940378,0.5335999999940384,0.5384000000059643,0.5670000000000002,0.5839000000059613,0.58869999998808,0.6026999999880829,0.6194000000059603,0.6360000000000028,0.6672999999821201,0.6837999999821207,0.7004000000059634,0.7171999999880825,0.7340000000000018,0.7504000000059605]",,7,0,7,0,1,,,,
,,A111111111,2024-06-20_17h28.05.785,GoFitts,2022.2.4,Win32,59.88023952,,,,,,,,,,,,,,,,,,"[-16.985875280993668,161.60980799734443]","[50.21526158592892,-154.54668389796245]",60.5,325,0,"[0,-7,-13,-16,-16,-16,-16,-16,-16,-16,-16,-16,-16,-16,-16,-16,-16,-16,-12,-3,12,29,43,51,59]","[173,160,150,148,148,148,148,148,148,148,148,148,148,148,148,148,147,139,121,89,43,-17,-74,-109,-132]","[0,0,0,0,0,1,1,1,1,1,1,1,1,1,0,0,0,0,0,0,0,0,0,0,0]","[0,0,0,0,0,0,0,0,0,0,0,0,0,0,0,0,0,0,0,0,0,0,0,0,0]","[0,0,0,0,0,0,0,0,0,0,0,0,0,0,0,0,0,0,0,0,0,0,0,0,0]","[0.0003000000119186552,0.016699999988077252,0.033300000011919906,0.04999999999999716,0.06659999999403254,0.08359999999403556,0.09999999999999432,0.11659999999403681,0.1214999999999975,0.13519999998807464,0.15209999999403578,0.18409999999403936,0.1909999999999954,0.2024000000059587,0.23349999999999937,0.25030000001191866,0.26669999998807725,0.2835999999940384,0.300099999994039,0.31680000001191644,0.3334999999999937,0.3500999999940362,0.3668000000119207,0.3835999999940327,0.40030000001191723]",,8,0,8,0,1,,,,
,,A111111111,2024-06-20_17h28.05.785,GoFitts,2022.2.4,Win32,59.88023952,,,,,,,,,,,,,,,,,,"[50.21526158592892,-154.54668389796245]","[-81.24999999999996,140.7291281149713]",60.5,325,0,"[59,62,63,63,63,63,63,63,63,63,63,62,62,61,61,61,61,61,61,53,37,11,-17,-34,-43,-51,-57,-60,-63]","[-132,-144,-151,-152,-153,-153,-155,-156,-156,-156,-157,-162,-163,-163,-163,-163,-163,-163,-161,-142,-112,-71,-19,28,62,91,110,119,123]","[0,0,0,0,0,0,0,0,0,0,0,0,0,0,1,1,1,1,1,0,0,0,0,0,0,0,0,0,0]","[0,0,0,0,0,0,0,0,0,0,0,0,0,0,0,0,0,0,0,0,0,0,0,0,0,0,0,0,0]","[0,0,0,0,0,0,0,0,0,0,0,0,0,0,0,0,0,0,0,0,0,0,0,0,0,0,0,0,0]","[0.00019999998807662678,0.016599999994035386,0.03329999998211974,0.050199999988073785,0.06669999998807441,0.08340000000595893,0.09829999998211747,0.11679999998211343,0.13240000000595842,0.13719999998807708,0.15179999998211713,0.18340000000596035,0.20029999998211423,0.21699999999999875,0.23359999999403414,0.2507999999821138,0.26719999998807964,0.2835999999940384,0.3001999999880738,0.3189999999999955,0.3339999999999961,0.3500999999940362,0.36690000000595546,0.3834000000059561,0.40029999998211707,0.4169000000059597,0.4334999999999951,0.45029999998211423,0.4670999999940406]",,9,0,9,0,1,,,,
,,A111111111,2024-06-20_17h28.05.785,GoFitts,2022.2.4,Win32,59.88023952,,,,,,,,,,,,,,,,,,"[-81.24999999999996,140.7291281149713]","[108.7337235333145,-120.76103414007653]",60.5,325,0,"[-63,-64,-64,-64,-64,-64,-64,-65,-65,-65,-65,-65,-65,-65,-65,-65,-61,-48,-31,-15,5,25,41,53,60,65,70,73,75,76,77,79,80,86]","[123,124,124,124,126,128,129,131,131,132,132,132,132,132,132,132,125,108,86,57,15,-32,-68,-94,-114,-125,-132,-135,-136,-136,-136,-137,-137,-137]","[0,0,0,0,0,0,0,0,1,1,1,1,1,1,1,0,0,0,0,0,0,0,0,0,0,0,0,0,0,0,0,0,0,0]","[0,0,0,0,0,0,0,0,0,0,0,0,0,0,0,0,0,0,0,0,0,0,0,0,0,0,0,0,0,0,0,0,0,0]","[0,0,0,0,0,0,0,0,0,0,0,0,0,0,0,0,0,0,0,0,0,0,0,0,0,0,0,0,0,0,0,0,0,0]","[0.0002999999821184929,0.018000000000000682,0.033799999982115025,0.050499999999999545,0.066299999982121,0.07139999997615831,0.08549999999999613,0.10109999999404096,0.11759999999404158,0.13449999999999562,0.15089999997615422,0.16749999999999687,0.184299999982116,0.2010000000000005,0.21750000000000114,0.23439999997615502,0.25089999997615564,0.2676999999880749,0.2845000000000013,0.3008999999761599,0.3176999999880792,0.33439999997615644,0.3509999999999991,0.36769999998807634,0.3843999999761607,0.4010999999940381,0.4176999999880806,0.43439999997615786,0.4510999999940353,0.4687999999821173,0.4850999999940413,0.5010999999940395,0.5185999999940378,0.5342999999821174]",,10,0,10,0,1,,,,
,,A111111111,2024-06-20_17h28.05.785,GoFitts,2022.2.4,Win32,59.88023952,,,,,,,,,,,,,,,,,,"[108.7337235333145,-120.76103414007653]","[-131.46526158592894,95.51510349752691]",60.5,325,0,"[86,92,100,106,109,110,110,110,110,110,110,110,110,110,107,97,80,57,28,-6,-29,-48,-65,-79,-92,-102,-107]","[-137,-135,-132,-128,-124,-124,-123,-123,-123,-123,-123,-123,-123,-123,-122,-117,-111,-99,-83,-60,-39,-17,10,33,54,69,79]","[0,0,0,0,0,0,0,1,1,1,1,1,1,1,0,0,0,0,0,0,0,0,0,0,0,0,0]","[0,0,0,0,0,0,0,0,0,0,0,0,0,0,0,0,0,0,0,0,0,0,0,0,0,0,0]","[0,0,0,0,0,0,0,0,0,0,0,0,0,0,0,0,0,0,0,0,0,0,0,0,0,0,0]","[0.00019999998807662678,0.016399999976158597,0.03319999998807788,0.04979999998211326,0.06649999999999778,0.08419999998807981,0.10069999998807333,0.11639999997615291,0.13299999999999557,0.14979999998211468,0.16639999997615718,0.1830999999940346,0.19979999998211895,0.21639999997615433,0.23329999998211548,0.24989999997615797,0.2665000000000006,0.2831999999880779,0.29979999998211326,0.3164999999999978,0.33319999998807504,0.3499999999999943,0.36649999999999494,0.38309999999403743,0.39989999997615655,0.4164999999999992,0.43319999998807646]",,11,0,11,0,1,,,,
,,A111111111,2024-06-20_17h28.05.785,GoFitts,2022.2.4,Win32,59.88023952,,,,,,,,,,,,,,,,,,"[-131.46526158592894,95.51510349752691]","[148.45113686692267,-66.09470449981752]",60.5,325,0,"[-107,-109,-110,-110,-110,-110,-110,-110,-110,-110,-110,-110,-110,-110,-110,-106,-94,-75,-46,-4,39,75,103,123]","[79,87,93,95,96,96,96,96,96,96,96,96,96,96,96,94,85,69,47,18,-10,-29,-44,-56]","[0,0,0,0,0,0,0,1,1,1,1,1,1,1,1,0,0,0,0,0,0,0,0,0]","[0,0,0,0,0,0,0,0,0,0,0,0,0,0,0,0,0,0,0,0,0,0,0,0]","[0,0,0,0,0,0,0,0,0,0,0,0,0,0,0,0,0,0,0,0,0,0,0,0]","[0.0003000000119186552,0.016599999994035386,0.03320000001787804,0.04980000001192053,0.06659999999403965,0.08390000000596132,0.10130000001191775,0.11780000001191837,0.1338000000119166,0.1504000000059591,0.16720000001787838,0.18380000001191732,0.20130000001191561,0.2175000000000047,0.23320000001787733,0.25000000000000355,0.26670000001788097,0.28330000001192346,0.30009999999403547,0.3165999999940432,0.3333000000119206,0.3499000000059631,0.36680000001192425,0.3830999999940339]",,12,0,12,0,1,,,,
,,A111111111,2024-06-20_17h28.05.785,GoFitts,2022.2.4,Win32,59.88023952,,,,,,,,,,,,,,,,,,"[148.45113686692267,-66.09470449981752]","[-158.94898511924342,33.78564975788589]",60.5,325,0,"[123,135,145,151,154,154,154,154,154,155,155,155,155,155,155,155,155,155,144,120,86,44,7,-17,-32,-47,-61,-74,-84,-90,-94,-97,-101,-107,-114,-121,-128,-130]","[-56,-64,-71,-76,-79,-79,-79,-79,-79,-80,-80,-80,-80,-80,-80,-80,-80,-80,-75,-69,-60,-49,-40,-30,-20,-8,3,12,18,22,23,25,26,26,27,27,27,27]","[0,0,0,0,0,0,0,0,0,0,0,1,1,1,1,1,1,1,0,0,0,0,0,0,0,0,0,0,0,0,0,0,0,0,0,0,0,0]","[0,0,0,0,0,0,0,0,0,0,0,0,0,0,0,0,0,0,0,0,0,0,0,0,0,0,0,0,0,0,0,0,0,0,0,0,0,0]","[0,0,0,0,0,0,0,0,0,0,0,0,0,0,0,0,0,0,0,0,0,0,0,0,0,0,0,0,0,0,0,0,0,0,0,0,0,0]","[0.0003000000119328661,0.01659999999404249,0.033300000011919906,0.0499000000059624,0.06780000001192832,0.08459999999404033,0.10090000000596433,0.11759999999404158,0.13380000001193082,0.15080000001192673,0.16730000001192025,0.18359999999404408,0.2000999999940518,0.21730000001193162,0.23400000000000887,0.25080000001192104,0.26740000000596353,0.284000000000006,0.30030000001193,0.3169000000059725,0.33340000000596604,0.3503000000119272,0.3669000000059697,0.3835999999940469,0.4001999999880894,0.41680000001193207,0.4335000000000093,0.4501999999880866,0.46680000001192923,0.4835000000000065,0.5001999999880837,0.5169000000059611,0.5339000000059713,0.5501999999880809,0.5669000000059725,0.5835999999940498,0.6004000000059619,0.6169000000059697]",,13,0,13,0,1,,,,
,,A111111111,2024-06-20_17h28.05.785,GoFitts,2022.2.4,Win32,59.88023952,,,,,,,,,,,,,,,,,,"[-158.94898511924342,33.78564975788589]","[162.5,0]",60.5,325,0,"[-130,-130,-130,-130,-130,-130,-130,-130,-130,-130,-130,-123,-110,-91,-54,-2,80,151]","[27,27,27,27,27,27,27,27,27,27,27,25,23,18,9,-1,-10,-14]","[0,1,1,1,1,1,1,1,1,0,0,0,0,0,0,0,0,0]","[0,0,0,0,0,0,0,0,0,0,0,0,0,0,0,0,0,0]","[0,0,0,0,0,0,0,0,0,0,0,0,0,0,0,0,0,0]","[0.00020000001788389454,0.016700000017891625,0.03330000001193412,0.05000000000001137,0.06740000000596069,0.08409999999405215,0.10080000001192957,0.11700000000000443,0.13370000001788185,0.15059999999404283,0.16680000001193207,0.18340000000596035,0.2000999999940518,0.21670000001789447,0.23350000000000648,0.25,0.2667000000178916,0.28350000000000364]",,14,0,14,0,1,,,,
,,A111111111,2024-06-20_17h28.05.785,GoFitts,2022.2.4,Win32,59.88023952,,,,,,,,,,,,,,,,,,,,,,0,,,,,,,,,,,,,0,0,0,1
,,A111111111,2024-06-20_17h28.05.785,GoFitts,2022.2.4,Win32,59.88023952,,,,,,,,,,,,,,,,return,1.3187,"[112,-20]","[184.01091674868607,-204.36482700628335]",32.3,550,1,"[112,112,112,112,112,112,112,112,112,112,112,112,112,112,112,112,112,112,112,112,112,112,112,112,112,112,112,112,112,112,112,112,112,114,129,151,165,167,167,174,191,216,238,249,251,251,248,245,242,240,238,237,237,237,237,237,237,234,229,223,219,217,212,207,202,198]","[-20,-20,-20,-20,-20,-20,-20,-20,-20,-20,-20,-20,-20,-20,-20,-20,-20,-20,-20,-20,-20,-20,-20,-20,-20,-20,-20,-20,-20,-20,-20,-20,-20,-15,10,46,65,67,67,61,34,-12,-66,-108,-136,-151,-162,-170,-175,-177,-179,-179,-179,-179,-179,-179,-179,-179,-180,-183,-185,-187,-192,-195,-198,-200]","[0,0,0,0,0,0,0,0,0,0,0,0,0,0,0,0,0,0,0,0,0,0,0,0,0,0,0,0,0,0,0,0,0,0,0,0,0,0,0,0,0,0,0,0,0,0,0,0,0,0,0,0,0,0,0,0,0,0,0,0,0,0,0,0,0,0]","[0,0,0,0,0,0,0,0,0,0,0,0,0,0,0,0,0,0,0,0,0,0,0,0,0,0,0,0,0,0,0,0,0,0,0,0,0,0,0,0,0,0,0,0,0,0,0,0,0,0,0,0,0,0,0,0,0,0,0,0,0,0,0,0,0,0]","[0,0,0,0,0,0,0,0,0,0,0,0,0,0,0,0,0,0,0,0,0,0,0,0,0,0,0,0,0,0,0,0,0,0,0,0,0,0,0,0,0,0,0,0,0,0,0,0,0,0,0,0,0,0,0,0,0,0,0,0,0,0,0,0,0,0]","[0.0007999999821208803,0.016900000005961147,0.032699999988082595,0.04949999999999477,0.0669000000059583,0.08409999999403794,0.10009999999404329,0.11699999999999022,0.13400000000000034,0.1501999999880752,0.16690000000595262,0.18369999998807884,0.20040000000595626,0.21729999998211724,0.23349999999999227,0.24959999999403237,0.26719999998807964,0.28379999998212213,0.29999999999999716,0.31709999999404204,0.3334000000059518,0.35040000000596194,0.36679999998212054,0.3836999999880817,0.4006999999880776,0.4171999999880711,0.4339999999999975,0.45069999998807475,0.46729999998211724,0.4839000000059599,0.5005000000000024,0.5171999999880796,0.533900000005957,0.5499000000059624,0.5665999999940396,0.5832999999821169,0.5999000000059596,0.6184999999999974,0.6341999999880699,0.6499999999999915,0.6666999999880829,0.6832999999821112,0.7000000000000028,0.7166999999880801,0.7332999999821226,0.7500999999940348,0.7666999999880773,0.7836999999880732,0.8004000000059506,0.8169999999999931,0.8335999999940356,0.8505999999940315,0.8670999999940392,0.8835999999940327,0.9004000000059591,0.9171999999880711,0.9336999999880788,0.9504000000059563,0.9669999999999987,0.9837999999821108,1.0004000000059534,1.0180999999940354,1.0336999999880732,1.0505999999940343,1.0669000000059583,1.084099999994038]",,0,0,0,0,1,,,,
,,A111111111,2024-06-20_17h28.05.785,GoFitts,2022.2.4,Win32,59.88023952,,,,,,,,,,,,,,,,,,"[184.01091674868607,-204.36482700628335]","[-222.4796734531105,161.64094438043014]",32.3,550,1,"[198,195,194,192,191,191,191,191,191,191,191,191,191,191,191,191,191,192,190,175,146,93,17,-76,-151,-192,-210,-215,-216,-214,-211,-209,-208,-207,-205,-204,-202,-202,-202,-202,-203,-207,-212,-217]","[-200,-201,-201,-202,-202,-203,-203,-203,-203,-203,-203,-203,-203,-203,-203,-203,-203,-202,-193,-179,-158,-127,-89,-43,-2,30,57,76,94,108,117,122,125,127,130,131,133,134,135,138,141,144,148,152]","[0,0,0,0,0,0,0,1,1,1,1,1,1,1,0,0,0,0,0,0,0,0,0,0,0,0,0,0,0,0,0,0,0,0,0,0,0,0,0,0,0,0,0,0]","[0,0,0,0,0,0,0,0,0,0,0,0,0,0,0,0,0,0,0,0,0,0,0,0,0,0,0,0,0,0,0,0,0,0,0,0,0,0,0,0,0,0,0,0]","[0,0,0,0,0,0,0,0,0,0,0,0,0,0,0,0,0,0,0,0,0,0,0,0,0,0,0,0,0,0,0,0,0,0,0,0,0,0,0,0,0,0,0,0]","[0.00020000001788389454,0.01650000000000773,0.03420000001788992,0.0499000000059624,0.06650000000000489,0.0832000000178823,0.09970000001789003,0.1168000000119207,0.13309999999404454,0.14980000001192195,0.16640000000596444,0.1833000000119256,0.20020000001788674,0.21709999999404772,0.23330000001192275,0.25,0.2665999999940425,0.283099999994036,0.29980000001192764,0.31659999999403965,0.3332000000178823,0.3500000000000085,0.36650000000000205,0.3834000000059632,0.4000000000000057,0.4165999999940482,0.43340000000596035,0.45020000001788674,0.46659999999404533,0.48359999999404124,0.5002000000178839,0.5167000000178916,0.5335999999940384,0.5515000000000043,0.5669000000059583,0.585000000000008,0.6015000000000015,0.6182000000178789,0.635200000017889,0.6504000000059591,0.6674000000059692,0.6835999999940441,0.7005000000000052,0.716900000005964]",,1,0,1,0,1,,,,
,,A111111111,2024-06-20_17h28.05.785,GoFitts,2022.2.4,Win32,59.88023952,,,,,,,,,,,,,,,,,,"[-222.4796734531105,161.64094438043014]","[251.22500085171527,-111.85257684584504]",32.3,550,1,"[-217,-222,-223,-224,-224,-224,-224,-224,-224,-224,-224,-224,-224,-224,-221,-214,-202,-182,-146,-95,-26,34,81,121,153,176,191,199,203,205,207,208,210,212,213,214,216,220,225,233,242]","[152,156,158,159,160,160,160,160,160,160,160,160,160,159,156,149,139,120,87,41,-16,-66,-104,-135,-154,-164,-166,-166,-164,-158,-153,-141,-133,-128,-125,-122,-120,-118,-116,-112,-108]","[0,0,0,0,0,1,1,1,1,1,1,1,0,0,0,0,0,0,0,0,0,0,0,0,0,0,0,0,0,0,0,0,0,0,0,0,0,0,0,0,0]","[0,0,0,0,0,0,0,0,0,0,0,0,0,0,0,0,0,0,0,0,0,0,0,0,0,0,0,0,0,0,0,0,0,0,0,0,0,0,0,0,0]","[0,0,0,0,0,0,0,0,0,0,0,0,0,0,0,0,0,0,0,0,0,0,0,0,0,0,0,0,0,0,0,0,0,0,0,0,0,0,0,0,0]","[0.0003000000119186552,0.01649999999999352,0.033400000005954666,0.05020000001788105,0.06790000000594887,0.08480000001191002,0.10090000000595012,0.1168000000119207,0.13349999999999795,0.14999999999999147,0.167400000005955,0.18430000001191615,0.20010000002383777,0.21680000001191502,0.2336000000238414,0.2501000000238349,0.26690000000596115,0.2834999999999894,0.3003000000119158,0.3169000000059583,0.3336000000238357,0.35040000000596194,0.3669999999999902,0.38370000001788185,0.40049999999999386,0.41680000001191786,0.43360000002383003,0.4503000000119215,0.46699999999999875,0.48370000001787616,0.5011000000238397,0.5174000000059493,0.5338000000119223,0.5504999999999995,0.5674000000059607,0.5841000000238381,0.6006000000238316,0.6174000000059578,0.6338000000119166,0.6508000000119125,0.667400000005955]",,2,0,2,0,1,,,,
,,A111111111,2024-06-20_17h28.05.785,GoFitts,2022.2.4,Win32,59.88023952,,,,,,,,,,,,,,,,,,"[251.22500085171527,-111.85257684584504]","[-268.9905902017966,57.17571497488381]",32.3,550,1,"[242,247,250,250,250,250,250,250,250,250,250,250,250,250,250,248,242,229,209,174,125,70,5,-55,-101,-130,-151,-164,-172,-179,-183,-187,-194,-199,-202,-205,-210,-216,-223,-230,-237,-244,-248,-250,-251,-252,-252,-252,-252,-252,-252,-252,-252,-252,-252,-252,-252,-252,-250,-246,-242,-239,-236,-234,-234,-234,-234,-234,-234,-234,-241,-251,-257,-262]","[-108,-105,-104,-104,-104,-104,-104,-104,-104,-104,-104,-104,-104,-104,-104,-104,-104,-104,-102,-99,-89,-78,-63,-46,-30,-16,-4,4,11,15,18,20,22,23,23,25,28,31,34,38,42,45,47,47,49,49,49,50,50,50,50,50,50,50,50,50,50,50,49,47,45,43,41,41,41,40,40,40,40,40,42,44,46,48]","[0,0,0,0,0,1,1,1,1,1,1,1,1,0,0,0,0,0,0,0,0,0,0,0,0,0,0,0,0,0,0,0,0,0,0,0,0,0,0,0,0,0,0,0,0,0,0,1,1,1,1,1,1,1,1,0,0,0,0,0,0,0,0,0,0,0,0,0,0,0,0,0,0,0]","[0,0,0,0,0,0,0,0,0,0,0,0,0,0,0,0,0,0,0,0,0,0,0,0,0,0,0,0,0,0,0,0,0,0,0,0,0,0,0,0,0,0,0,0,0,0,0,0,0,0,0,0,0,0,0,0,0,0,0,0,0,0,0,0,0,0,0,0,0,0,0,0,0,0]","[0,0,0,0,0,0,0,0,0,0,0,0,0,0,0,0,0,0,0,0,0,0,0,0,0,0,0,0,0,0,0,0,0,0,0,0,0,0,0,0,0,0,0,0,0,0,0,0,0,0,0,0,0,0,0,0,0,0,0,0,0,0,0,0,0,0,0,0,0,0,0,0,0,0]","[0.00020000001788389454,0.016800000011926386,0.03290000000596649,0.04940000000596001,0.06630000001192116,0.08340000000596604,0.0998000000119248,0.11660000002385118,0.13330000001192843,0.150600000023843,0.16740000000596922,0.1840000000000117,0.20050000000000523,0.21699999999999875,0.23340000000597172,0.24980000001193048,0.26650000000000773,0.2833000000119199,0.2999000000059624,0.3167000000178888,0.3333000000119313,0.3500000000000085,0.3669000000059697,0.3834000000059632,0.4001000000238406,0.41690000000596683,0.43340000000596035,0.450100000023852,0.46699999999999875,0.48400000000000887,0.5003000000119329,0.5186000000238522,0.5336000000238528,0.5504999999999995,0.5670000000000073,0.5839000000059684,0.6002000000178924,0.6171000000238536,0.6338000000119308,0.6503000000119243,0.6669000000059668,0.6837000000178932,0.7005000000000052,0.7171000000238479,0.7338000000119251,0.7507000000178863,0.7674000000059635,0.785499999999999,0.8015000000000043,0.8179000000059631,0.8347000000178895,0.851200000017883,0.8679000000059602,0.8847000000178866,0.9013000000119291,0.917500000000004,0.9340000000000117,0.9507000000178891,0.9672000000178826,0.9842000000178928,1.000800000011921,1.0175000000000125,1.035499999999999,1.051000000000002,1.0675000000000097,1.0853000000119266,1.1014000000059667,1.1183000000119279,1.1343000000119332,1.1508000000119267,1.167500000000004,1.1842000000178814,1.2010000000000076,1.2176000000238503]",,3,0,3,0,1,,,,
,,A111111111,2024-06-20_17h28.05.785,GoFitts,2022.2.4,Win32,59.88023952,,,,,,,,,,,,,,,,,,"[-268.9905902017966,57.17571497488381]","[275,0]",32.3,550,1,"[-262,-268,-271,-274,-275,-275,-275,-275,-275,-275,-275,-275,-275,-275,-275,-275,-274,-263,-240,-194,-113,-17,81,151,190,211,217,218,218,218,218,218,218,218,219,223,230,238,247,255,263]","[48,51,53,56,57,57,57,57,57,57,57,57,57,57,57,57,57,51,44,37,30,24,19,15,12,11,9,9,9,9,9,9,9,9,6,2,-4,-8,-9,-9,-8]","[0,0,0,0,0,0,0,0,1,1,1,1,1,1,1,1,0,0,0,0,0,0,0,0,0,0,0,0,0,0,0,0,0,0,0,0,0,0,0,0,0]","[0,0,0,0,0,0,0,0,0,0,0,0,0,0,0,0,0,0,0,0,0,0,0,0,0,0,0,0,0,0,0,0,0,0,0,0,0,0,0,0,0]","[0,0,0,0,0,0,0,0,0,0,0,0,0,0,0,0,0,0,0,0,0,0,0,0,0,0,0,0,0,0,0,0,0,0,0,0,0,0,0,0,0]","[0.0002999999821184929,0.01650000000000773,0.03340000000596888,0.05009999999404613,0.06679999998212338,0.08340000000596604,0.10019999998807805,0.11719999998807396,0.13500000000000512,0.1509000000059615,0.16740000000596922,0.1839999999999975,0.20090000000595865,0.2175999999940359,0.2341999999880784,0.25109999999403954,0.2669999999999959,0.28350000000000364,0.30029999998211565,0.3167999999821234,0.3335000000000008,0.350299999982127,0.36679999998212054,0.3835999999940469,0.40009999999404045,0.41709999999403635,0.4339999999999975,0.45050000000000523,0.4671999999880825,0.483799999982125,0.5004000000059676,0.5175999999940473,0.5345000000000084,0.5505999999940343,0.5670000000000073,0.5840000000000032,0.6005999999940457,0.617199999988074,0.6337999999821164,0.6505999999940428,0.6670999999940364]",,4,0,4,0,1,,,,
,,A111111111,2024-06-20_17h28.05.785,GoFitts,2022.2.4,Win32,59.88023952,,,,,,,,,,,,,,,,,,"[275,0]","[-268.9905902017966,-57.175714974883746]",32.3,550,1,"[263,267,269,269,269,269,269,269,269,269,269,269,269,269,269,269,268,260,244,226,207,185,159,123,76,16,-53,-117,-160,-191,-207,-214,-221,-233,-242,-249,-253,-254]","[-8,-7,-6,-6,-6,-6,-6,-6,-6,-6,-6,-6,-6,-6,-6,-6,-6,-5,-5,-5,-6,-10,-16,-26,-36,-46,-55,-60,-62,-63,-63,-63,-62,-62,-62,-62,-62,-62]","[0,0,0,0,0,0,0,0,0,1,1,1,1,1,1,1,0,0,0,0,0,0,0,0,0,0,0,0,0,0,0,0,0,0,0,0,0,0]","[0,0,0,0,0,0,0,0,0,0,0,0,0,0,0,0,0,0,0,0,0,0,0,0,0,0,0,0,0,0,0,0,0,0,0,0,0,0]","[0,0,0,0,0,0,0,0,0,0,0,0,0,0,0,0,0,0,0,0,0,0,0,0,0,0,0,0,0,0,0,0,0,0,0,0,0,0]","[0.0003000000119186552,0.016800000011912175,0.03370000001787332,0.05030000001191581,0.06699999999999307,0.08340000000595182,0.10840000000595751,0.11970000001787184,0.13330000001191422,0.15020000001787537,0.1667000000178831,0.18330000001191138,0.2000999999940376,0.21659999999403112,0.23330000001192275,0.25009999999403476,0.26690000000596115,0.2837000000178733,0.3003000000119158,0.31699999999999307,0.3335000000000008,0.35030000001191297,0.3669999999999902,0.3838000000119166,0.40030000001191013,0.41709999999403635,0.43380000001191377,0.45040000000595626,0.4670999999940335,0.4838000000119109,0.5005000000000024,0.5170999999940307,0.5340999999940408,0.5504999999999995,0.567099999994042,0.5840999999940379,0.6009000000059501,0.6174999999999926]",,5,0,5,0,1,,,,
,,A111111111,2024-06-20_17h28.05.785,GoFitts,2022.2.4,Win32,59.88023952,,,,,,,,,,,,,,,,,,"[-268.9905902017966,-57.175714974883746]","[251.22500085171524,111.85257684584504]",32.3,550,1,"[-254,-256,-257,-257,-257,-257,-257,-257,-257,-257,-257,-257,-257,-257,-257,-257,-257,-257,-251,-236,-210,-163,-84,-1,74,123,157,179,191,198,204,210,220,230,244,255,259,260,260,260,260,260]","[-62,-62,-62,-62,-62,-62,-62,-62,-62,-62,-62,-62,-62,-62,-62,-62,-62,-62,-61,-59,-54,-43,-23,2,29,51,68,80,86,90,92,92,92,93,94,94,95,95,95,95,98,100]","[0,0,0,0,0,0,0,0,0,0,0,1,1,1,1,1,0,0,0,0,0,0,0,0,0,0,0,0,0,0,0,0,0,0,0,0,0,0,0,0,0,0]","[0,0,0,0,0,0,0,0,0,0,0,0,0,0,0,0,0,0,0,0,0,0,0,0,0,0,0,0,0,0,0,0,0,0,0,0,0,0,0,0,0,0]","[0,0,0,0,0,0,0,0,0,0,0,0,0,0,0,0,0,0,0,0,0,0,0,0,0,0,0,0,0,0,0,0,0,0,0,0,0,0,0,0,0,0]","[0.0001999999880837322,0.01659999999404249,0.03309999999403601,0.04999999999999716,0.06669999998807441,0.08369999998808453,0.10109999999403385,0.11659999999403681,0.13299999999999557,0.1536999999880777,0.1670000000000016,0.1833999999761602,0.1998999999761537,0.21649999999999636,0.23399999999999466,0.2507999999821209,0.26669999998807725,0.283099999994036,0.29999999999999716,0.3165000000000049,0.3332999999821169,0.3498999999761594,0.3665999999940368,0.38329999998211406,0.39989999997615655,0.41659999999403396,0.4333999999761602,0.45000000000000284,0.4666999999880801,0.48359999999404124,0.5000999999940348,0.516799999982112,0.5333999999761545,0.5501999999880809,0.5667999999821234,0.5835000000000008,0.6004999999999967,0.6181999999880787,0.6343999999761536,0.6509999999999962,0.6682999999821249,0.685099999994037]",,6,0,6,0,1,,,,
,,A111111111,2024-06-20_17h28.05.785,GoFitts,2022.2.4,Win32,59.88023952,,,,,,,,,,,,,,,,,,"[251.22500085171524,111.85257684584504]","[-222.4796734531106,-161.64094438043008]",32.3,550,1,"[260,260,260,259,258,258,258,258,258,258,258,258,258,258,258,258,256,249,239,224,196,152,84,6,-76,-146,-185,-203,-206,-206,-206,-206,-207,-208,-208,-208,-208,-209,-211,-215]","[100,104,108,110,112,112,112,112,112,112,112,112,112,112,112,112,112,110,107,99,86,65,29,-13,-59,-93,-111,-122,-128,-131,-135,-138,-140,-142,-143,-144,-144,-146,-150,-154]","[0,0,0,0,0,0,0,1,1,1,1,1,1,1,1,0,0,0,0,0,0,0,0,0,0,0,0,0,0,0,0,0,0,0,0,0,0,0,0,0]","[0,0,0,0,0,0,0,0,0,0,0,0,0,0,0,0,0,0,0,0,0,0,0,0,0,0,0,0,0,0,0,0,0,0,0,0,0,0,0,0]","[0,0,0,0,0,0,0,0,0,0,0,0,0,0,0,0,0,0,0,0,0,0,0,0,0,0,0,0,0,0,0,0,0,0,0,0,0,0,0,0]","[0.0012000000178886694,0.016100000023840266,0.031100000023840835,0.047700000017883326,0.06560000002384925,0.08220000001787753,0.09870000001788526,0.11460000002384163,0.13140000000596785,0.1478000000119266,0.16450000000000387,0.18130000001191604,0.1980000000000075,0.21460000002383595,0.23140000000596217,0.24810000002383958,0.2649000000059658,0.28130000001192457,0.2983000000119205,0.31470000001787923,0.33150000000000546,0.347999999999999,0.36480000001192536,0.3815000000000026,0.39799999999999613,0.4148000000119225,0.4314999999999998,0.4481000000238424,0.46490000000595444,0.4817000000178808,0.4983000000119233,0.5151000000238355,0.531700000017878,0.5486000000238391,0.5662000000178864,0.5829999999999984,0.5992000000178876,0.615100000023844,0.6318000000119213,0.6483000000119148]",,7,0,7,0,1,,,,
,,A111111111,2024-06-20_17h28.05.785,GoFitts,2022.2.4,Win32,59.88023952,,,,,,,,,,,,,,,,,,"[-222.4796734531106,-161.64094438043008]","[184.01091674868601,204.3648270062834]",32.3,550,1,"[-215,-219,-221,-224,-225,-225,-225,-225,-225,-225,-225,-225,-225,-225,-225,-223,-211,-188,-151,-105,-57,-11,28,63,91,110,124,135,146,160,174,184,189,193,195,197,199,200,200,201,202,202,202,201,200,199]","[-154,-159,-162,-165,-165,-165,-165,-165,-165,-165,-165,-165,-165,-165,-165,-163,-151,-131,-101,-61,-18,23,56,86,109,124,132,138,142,146,150,155,157,160,162,165,168,172,175,180,185,189,194,197,200,201]","[0,0,0,0,0,0,1,1,1,1,1,1,1,0,0,0,0,0,0,0,0,0,0,0,0,0,0,0,0,0,0,0,0,0,0,0,0,0,0,0,0,0,0,0,0,0]","[0,0,0,0,0,0,0,0,0,0,0,0,0,0,0,0,0,0,0,0,0,0,0,0,0,0,0,0,0,0,0,0,0,0,0,0,0,0,0,0,0,0,0,0,0,0]","[0,0,0,0,0,0,0,0,0,0,0,0,0,0,0,0,0,0,0,0,0,0,0,0,0,0,0,0,0,0,0,0,0,0,0,0,0,0,0,0,0,0,0,0,0,0]","[0.0003000000119186552,0.016700000017877414,0.034700000017878097,0.04999999999999716,0.0669000000059583,0.08340000000596604,0.10000000000000853,0.1168000000119207,0.1334000000059632,0.15000000000000568,0.16680000001191786,0.18410000002384663,0.20090000000595865,0.21720000001788264,0.2334000000059575,0.25,0.2668000000119264,0.28360000002383856,0.30020000001788105,0.3169000000059583,0.3335000000000008,0.3502000000178782,0.3669000000059697,0.38349999999999795,0.4002000000178896,0.41690000000596683,0.43360000002384425,0.4503000000119215,0.466900000005964,0.48380000001192514,0.5003000000119187,0.5169999999999959,0.534000000000006,0.5506000000238487,0.5674000000059607,0.5838000000119195,0.6006000000238458,0.6173000000119231,0.635200000017889,0.6508000000119267,0.6671000000238507,0.6839999999999975,0.7007000000178891,0.7189000000059593,0.735600000023851,0.7521000000238445]",,8,0,8,0,1,,,,
,,A111111111,2024-06-20_17h28.05.785,GoFitts,2022.2.4,Win32,59.88023952,,,,,,,,,,,,,,,,,,"[184.01091674868601,204.3648270062834]","[-137.5000000000001,-238.15698604072054]",32.3,550,1,"[199,199,199,199,199,199,199,199,199,199,199,199,199,199,199,198,197,197,194,189,178,162,132,82,15,-61,-116,-143,-157,-163,-164,-164,-164,-165,-169,-171,-171,-171,-171,-170,-162,-146]","[201,202,202,202,202,202,202,202,202,202,202,202,202,202,202,202,202,202,202,199,188,164,115,38,-43,-124,-183,-210,-226,-234,-238,-239,-239,-240,-243,-246,-249,-251,-251,-251,-252,-250]","[0,0,0,1,1,1,1,1,1,1,0,0,0,0,0,0,0,0,0,0,0,0,0,0,0,0,0,0,0,0,0,0,0,0,0,0,0,0,0,0,0,0]","[0,0,0,0,0,0,0,0,0,0,0,0,0,0,0,0,0,0,0,0,0,0,0,0,0,0,0,0,0,0,0,0,0,0,0,0,0,0,0,0,0,0]","[0,0,0,0,0,0,0,0,0,0,0,0,0,0,0,0,0,0,0,0,0,0,0,0,0,0,0,0,0,0,0,0,0,0,0,0,0,0,0,0,0,0]","[0.0009000000059558033,0.017799999982116788,0.03229999998211497,0.04929999998212509,0.06559999999403487,0.0820999999940426,0.09879999998211986,0.11540000000596251,0.13190000000595603,0.1480999999940451,0.16500000000000625,0.18159999999403453,0.198299999982126,0.21479999998211952,0.23140000000596217,0.24809999999403942,0.2649000000059658,0.28159999999404306,0.29840000000596945,0.31490000000596297,0.3315999999940402,0.34829999998211747,0.3649000000059601,0.3815999999940374,0.3982999999821146,0.4151999999880758,0.4316999999880835,0.4484000000059609,0.46490000000596865,0.4817999999821154,0.49869999998807657,0.5154000000059682,0.5317999999821268,0.548599999994039,0.5650999999940467,0.5819000000059589,0.5986999999880851,0.6155999999940462,0.6320999999940398,0.6486999999880823,0.6652999999821247,0.6817999999821183]",,9,0,9,0,1,,,,
,,A111111111,2024-06-20_17h28.05.785,GoFitts,2022.2.4,Win32,59.88023952,,,,,,,,,,,,,,,,,,"[-137.5000000000001,-238.15698604072054]","[84.97967345311055,261.5405419811672]",32.3,550,1,"[-146,-124,-109,-100,-99,-99,-99,-99,-99,-99,-99,-99,-105,-112,-118,-122,-122,-122,-123,-123,-125,-126,-127,-127,-127,-127,-127,-127,-123,-112,-93,-70,-41,-15,5,18,28,34,37,39,40,42,44,46,50,57,65,72,82,91,97,99,101,102,102,102,102,102,100,96,92]","[-250,-245,-242,-240,-240,-240,-240,-240,-240,-240,-240,-240,-240,-240,-240,-240,-240,-240,-240,-240,-240,-240,-240,-240,-240,-240,-236,-227,-212,-188,-150,-107,-50,13,67,111,142,162,174,183,189,193,197,200,204,210,215,220,227,232,237,240,243,245,246,247,247,247,247,248,248]","[0,0,0,0,0,0,0,0,0,0,0,0,0,0,0,0,0,0,0,0,0,0,0,0,0,0,0,0,0,0,0,0,0,0,0,0,0,0,0,0,0,0,0,0,0,0,0,0,0,0,0,0,0,0,0,0,0,0,0,0,0]","[0,0,0,0,0,0,0,0,0,0,0,0,0,0,0,0,0,0,0,0,0,0,0,0,0,0,0,0,0,0,0,0,0,0,0,0,0,0,0,0,0,0,0,0,0,0,0,0,0,0,0,0,0,0,0,0,0,0,0,0,0]","[0,0,0,0,0,0,0,0,0,0,0,0,0,0,0,0,0,0,0,0,0,0,0,0,0,0,0,0,0,0,0,0,0,0,0,0,0,0,0,0,0,0,0,0,0,0,0,0,0,0,0,0,0,0,0,0,0,0,0,0,0]","[0.0001999999880837322,0.01640000000595876,0.033300000011919906,0.05000000000001137,0.06680000001192354,0.08340000000596604,0.10009999999404329,0.11690000000596967,0.13400000000000034,0.15080000001192673,0.1679000000059716,0.18369999998807884,0.20019999998808657,0.21680000001192923,0.23340000000597172,0.25019999998808373,0.26690000000596115,0.2835999999940384,0.3001999999880809,0.3169000000059583,0.3346999999880893,0.35019999998807805,0.3669000000059697,0.3838000000119308,0.4001999999880894,0.41680000001193207,0.43369999998807884,0.4500999999940376,0.466900000005964,0.48359999999404124,0.5001999999880837,0.5170999999940449,0.5336999999880874,0.5504000000059648,0.567099999994042,0.5836999999880845,0.6004000000059619,0.6170999999940392,0.6338000000119308,0.6504000000059591,0.6671999999880853,0.6839000000059627,0.7004000000059705,0.7175000000000011,0.7340999999940436,0.7505999999940371,0.7671999999880796,0.784000000000006,0.8006999999880833,0.8173000000119259,0.8340000000000032,0.8508000000119296,0.8673000000119231,0.8841999999880841,0.9008000000119267,0.9175999999940387,0.9341999999880812,0.9515999999940448,0.9675999999940501,0.9841999999880784,1.0020000000000095]",,10,0,10,0,1,,,,
,,A111111111,2024-06-20_17h28.05.785,GoFitts,2022.2.4,Win32,59.88023952,,,,,,,,,,,,,,,,,,"[84.97967345311055,261.5405419811672]","[-28.745327398604914,-273.49352122627516]",32.3,550,1,"[92,91,90,90,90,90,90,90,90,90,90,90,90,90,90,90,90,88,83,74,58,26,-16,-62,-98,-120,-128,-129,-125,-117,-108,-101,-95,-93,-92,-90,-87,-81,-73,-63,-56,-49,-45,-43,-43,-43,-43,-43,-42,-41]","[248,249,249,249,251,252,252,253,253,253,253,253,253,253,253,253,253,244,229,197,155,91,9,-86,-174,-230,-266,-289,-302,-313,-319,-322,-324,-325,-325,-327,-328,-328,-325,-317,-310,-301,-294,-290,-289,-288,-287,-286,-283,-281]","[0,0,0,0,0,0,1,1,1,1,1,1,1,1,0,0,0,0,0,0,0,0,0,0,0,0,0,0,0,0,0,0,0,0,0,0,0,0,0,0,0,0,0,0,0,0,0,0,0,0]","[0,0,0,0,0,0,0,0,0,0,0,0,0,0,0,0,0,0,0,0,0,0,0,0,0,0,0,0,0,0,0,0,0,0,0,0,0,0,0,0,0,0,0,0,0,0,0,0,0,0]","[0,0,0,0,0,0,0,0,0,0,0,0,0,0,0,0,0,0,0,0,0,0,0,0,0,0,0,0,0,0,0,0,0,0,0,0,0,0,0,0,0,0,0,0,0,0,0,0,0,0]","[0.0012000000178886694,0.01840000000596831,0.03280000001191752,0.04910000002384152,0.06520000001788162,0.08170000001788935,0.09960000002384106,0.11599999999999966,0.13240000000595842,0.14910000002385004,0.16570000001787832,0.18240000000595558,0.1991000000238472,0.2157000000178897,0.23170000001788082,0.24850000000000705,0.26520000001788446,0.281700000017878,0.29840000000596945,0.31510000002384686,0.3318000000119241,0.3484000000059666,0.3650000000000091,0.3817000000178865,0.39860000002384766,0.4153000000119249,0.4319000000059674,0.4484999999999957,0.4654000000059568,0.4819999999999993,0.49850000000000705,0.5153000000119192,0.5321000000238456,0.5489000000059576,0.5655000000000001,0.5822000000178775,0.5999000000059596,0.6154000000059625,0.6321000000238399,0.6488000000119172,0.6654000000059597,0.6820000000000022,0.6988000000119285,0.7157000000178897,0.7325000000000017,0.7503000000119187,0.7658000000119216,0.7837000000178875,0.7993000000119252,0.8156000000238492]",,11,0,11,0,1,,,,
,,A111111111,2024-06-20_17h28.05.785,GoFitts,2022.2.4,Win32,59.88023952,,,,,,,,,,,,,,,,,,"[-28.745327398604914,-273.49352122627516]","[-28.745327398604665,273.49352122627516]",32.3,550,1,"[-41,-40,-40,-40,-40,-40,-40,-40,-40,-40,-39,-39,-38,-37,-36,-35,-30,-23,-14,-2,8,18,26,33,39,43,44,44,43,41,38,32,24,13,1,-8,-12,-16,-19]","[-281,-278,-278,-278,-278,-278,-277,-277,-277,-277,-277,-275,-273,-270,-266,-254,-233,-194,-139,-74,-13,51,106,151,192,225,252,272,286,294,298,299,298,295,291,289,287,285,284]","[0,0,1,1,1,1,1,1,1,1,0,0,0,0,0,0,0,0,0,0,0,0,0,0,0,0,0,0,0,0,0,0,0,0,0,0,0,0,0]","[0,0,0,0,0,0,0,0,0,0,0,0,0,0,0,0,0,0,0,0,0,0,0,0,0,0,0,0,0,0,0,0,0,0,0,0,0,0,0]","[0,0,0,0,0,0,0,0,0,0,0,0,0,0,0,0,0,0,0,0,0,0,0,0,0,0,0,0,0,0,0,0,0,0,0,0,0,0,0]","[0.0002000000178696837,0.01649999999999352,0.033300000011919906,0.0499000000059624,0.06659999999403965,0.0832000000178823,0.09990000000595955,0.11659999999403681,0.13370000001788185,0.15049999999999386,0.1667000000178831,0.18340000000596035,0.19999999999998863,0.21659999999403112,0.2348000000119157,0.24980000001191627,0.2665999999940283,0.28340000000595467,0.29999999999999716,0.31659999999403965,0.3334000000059518,0.3499999999999943,0.3668000000119207,0.3835999999940327,0.40009999999404045,0.4167000000178831,0.4334999999999951,0.4502000000178725,0.466800000011915,0.48349999999999227,0.5003000000119187,0.5169999999999959,0.5334000000059547,0.5503000000119158,0.5669000000059583,0.5835999999940356,0.6004000000059619,0.6169999999999902,0.6337000000178818]",,12,0,12,0,1,,,,
,,A111111111,2024-06-20_17h28.05.785,GoFitts,2022.2.4,Win32,59.88023952,,,,,,,,,,,,,,,,,,"[-28.745327398604665,273.49352122627516]","[84.9796734531105,-261.5405419811673]",32.3,550,1,"[-19,-22,-23,-25,-27,-28,-29,-30,-30,-30,-30,-30,-30,-30,-30,-30,-29,-22,-10,4,18,30,37,43,48,55,62,70,75,77,77,77,77,78,80,83,87,90,92,93,92]","[284,282,282,281,280,278,277,277,277,277,277,277,277,277,276,273,265,252,229,191,130,44,-46,-130,-189,-232,-260,-278,-287,-290,-291,-292,-292,-292,-292,-291,-289,-286,-282,-278,-271]","[0,0,0,0,0,0,0,0,1,1,1,1,1,1,1,0,0,0,0,0,0,0,0,0,0,0,0,0,0,0,0,0,0,0,0,0,0,0,0,0,0]","[0,0,0,0,0,0,0,0,0,0,0,0,0,0,0,0,0,0,0,0,0,0,0,0,0,0,0,0,0,0,0,0,0,0,0,0,0,0,0,0,0]","[0,0,0,0,0,0,0,0,0,0,0,0,0,0,0,0,0,0,0,0,0,0,0,0,0,0,0,0,0,0,0,0,0,0,0,0,0,0,0,0,0]","[0.0001999999880837322,0.01709999999404488,0.03319999998808498,0.05009999999404613,0.06669999998808862,0.08340000000596604,0.10009999999404329,0.11659999999403681,0.13349999999999795,0.15000000000000568,0.1664999999999992,0.18350000000000932,0.20080000001192388,0.21730000001193162,0.23440000000596228,0.2504000000059676,0.2668000000119264,0.2834000000059689,0.30009999999404613,0.3166999999880886,0.3335000000000008,0.3505000000000109,0.3668000000119207,0.38349999999999795,0.40009999999404045,0.41690000000596683,0.4335999999940441,0.4500999999940376,0.466900000005964,0.4839000000059599,0.5015999999940419,0.5181999999880844,0.5345000000000084,0.5504999999999995,0.5679999999999978,0.5836999999880845,0.6006999999880804,0.6174000000059578,0.6336999999880817,0.6505000000000081,0.6670999999940506]",,13,0,13,0,1,,,,
,,A111111111,2024-06-20_17h28.05.785,GoFitts,2022.2.4,Win32,59.88023952,,,,,,,,,,,,,,,,,,"[84.9796734531105,-261.5405419811673]","[-137.49999999999994,238.15698604072065]",32.3,550,1,"[92,91,88,87,87,87,87,87,87,87,87,87,87,87,85,82,78,69,51,20,-21,-54,-75,-88,-96,-102,-104,-104,-104,-101,-98,-95,-92,-92,-92,-93,-97,-104,-113,-118,-120,-122,-124,-126,-126,-126,-126,-126,-126,-126,-126,-126,-126,-126,-126,-126,-127,-127,-127,-128,-130]","[-271,-266,-264,-262,-262,-262,-262,-262,-262,-262,-262,-262,-262,-262,-261,-258,-250,-236,-208,-167,-113,-60,-12,30,62,89,110,124,135,144,152,159,165,172,179,185,192,197,204,208,212,216,220,221,222,223,223,223,223,223,223,224,224,224,224,224,224,224,224,224,225]","[0,0,0,0,0,0,1,1,1,1,1,1,1,0,0,0,0,0,0,0,0,0,0,0,0,0,0,0,0,0,0,0,0,0,0,0,0,0,0,0,0,0,0,0,0,0,0,1,1,1,1,1,1,1,1,1,0,0,0,0,0]","[0,0,0,0,0,0,0,0,0,0,0,0,0,0,0,0,0,0,0,0,0,0,0,0,0,0,0,0,0,0,0,0,0,0,0,0,0,0,0,0,0,0,0,0,0,0,0,0,0,0,0,0,0,0,0,0,0,0,0,0,0]","[0,0,0,0,0,0,0,0,0,0,0,0,0,0,0,0,0,0,0,0,0,0,0,0,0,0,0,0,0,0,0,0,0,0,0,0,0,0,0,0,0,0,0,0,0,0,0,0,0,0,0,0,0,0,0,0,0,0,0,0,0]","[0.00009999999403476068,0.01649999999999352,0.03319999998807077,0.04979999998211326,0.06659999999403965,0.08359999999403556,0.10090000000595012,0.11740000000595785,0.13390000000595137,0.15099999999999625,0.167400000005955,0.1839999999999975,0.20069999998807475,0.2166999999880801,0.2334000000059575,0.24990000000595103,0.2665999999940283,0.28329999998211974,0.2999000000059624,0.31659999999403965,0.3334000000059518,0.3500999999940291,0.36679999998212054,0.383400000005949,0.4001999999880752,0.4166999999880687,0.43340000000596035,0.4502999999821071,0.4669000000059498,0.4834000000059575,0.5001999999880695,0.516799999982112,0.5336999999880732,0.5504000000059506,0.5669999999999931,0.5837999999821193,0.6002999999821128,0.6169999999999902,0.6335999999940327,0.6520999999940358,0.6672999999821201,0.6839000000059627,0.7002999999821071,0.7169999999999987,0.7341999999880784,0.7506999999880719,0.7671999999880796,0.785499999999999,0.8004999999999995,0.8171999999880768,0.8339000000059542,0.8506999999880804,0.867199999988074,0.8840999999940351,0.9006999999880776,0.917400000005955,0.9341999999880812,0.9507999999821095,0.9675000000000011,0.9841999999880784,1.0009000000059558]",,14,0,14,0,1,,,,
,,A111111111,2024-06-20_17h28.05.785,GoFitts,2022.2.4,Win32,59.88023952,,,,,,,,,,,,,,,,,,,,,,1,,,,,,,,,,,,,1,0,0,1
,,A111111111,2024-06-20_17h28.05.785,GoFitts,2022.2.4,Win32,59.88023952,,,,,,,,,,,,,,,,return,1.1848,"[4,28]","[-118.74999999999994,205.6810333988042]",40.5,475,2,"[4,4,4,4,4,4,4,4,4,4,4,4,4,4,4,4,4,4,4,4,4,4,4,4,4,4,4,4,4,4,4,0,-17,-38,-49,-54,-56,-57,-59,-59,-60,-67,-75,-86,-98,-110,-122]","[28,28,28,28,28,28,28,28,28,28,28,28,28,28,28,28,28,28,28,28,28,28,28,28,28,28,28,28,28,28,29,40,84,152,215,252,267,273,276,276,276,271,260,248,236,225,214]","[0,0,0,0,0,0,0,0,0,0,0,0,0,0,0,0,0,0,0,0,0,0,0,0,0,0,0,0,0,0,0,0,0,0,0,0,0,0,0,0,0,0,0,0,0,0,0]","[0,0,0,0,0,0,0,0,0,0,0,0,0,0,0,0,0,0,0,0,0,0,0,0,0,0,0,0,0,0,0,0,0,0,0,0,0,0,0,0,0,0,0,0,0,0,0]","[0,0,0,0,0,0,0,0,0,0,0,0,0,0,0,0,0,0,0,0,0,0,0,0,0,0,0,0,0,0,0,0,0,0,0,0,0,0,0,0,0,0,0,0,0,0,0]","[0.0010999999940395355,0.03130000001192457,0.036000000000001364,0.049800000011927636,0.06630000001192116,0.09850000000000136,0.1147000000178906,0.1194000000059674,0.13300000000000978,0.1655999999940434,0.17209999999404602,0.1830999999940417,0.1998000000119191,0.21650000000001057,0.233200000017888,0.2497000000178815,0.26640000000595876,0.283099999994036,0.29970000001787866,0.31640000000597013,0.3329999999999984,0.3498000000119248,0.36650000000000205,0.3830000000000098,0.3999000000059709,0.4163000000119297,0.4330999999940417,0.44970000001788435,0.46609999999404295,0.48259999999403647,0.49940000000596285,0.5160000000000053,0.5327000000178828,0.54940000000596,0.5660999999940373,0.5827000000178799,0.5995999999940409,0.6162000000178836,0.632800000011926,0.649800000011922,0.6680999999940411,0.6827000000178884,0.6994000000059657,0.7162000000178779,0.7328000000119204,0.7494000000059629,0.7660000000000053]",,0,0,0,0,1,,,,
,,A111111111,2024-06-20_17h28.05.785,GoFitts,2022.2.4,Win32,59.88023952,,,,,,,,,,,,,,,,,,"[-118.74999999999994,205.6810333988042]","[158.9185190102289,-176.49689605088108]",40.5,475,2,"[-122,-132,-137,-138,-138,-139,-140,-140,-140,-140,-140,-140,-140,-140,-140,-140,-140,-139,-137,-133,-125,-114,-103,-90,-72,-47,-17,20,56,87,115,137,151,159,161,162,162,162,162,161,160,159,158,157,157,156,155,154,152,152,152,152,152,152,152,152,152,152,152,152,152,152,152,152]","[214,208,205,205,205,205,206,207,207,207,207,207,207,207,207,207,207,207,207,205,202,196,189,180,164,140,109,72,35,0,-32,-58,-75,-85,-90,-91,-92,-92,-93,-96,-102,-107,-112,-118,-126,-136,-144,-151,-155,-156,-157,-157,-157,-157,-157,-157,-157,-157,-157,-157,-157,-157,-157,-160]","[0,0,0,0,0,0,0,0,0,0,1,1,1,1,1,1,0,0,0,0,0,0,0,0,0,0,0,0,0,0,0,0,0,0,0,0,0,0,0,0,0,0,0,0,0,0,0,0,0,0,0,0,0,0,1,1,1,1,1,1,1,1,0,0]","[0,0,0,0,0,0,0,0,0,0,0,0,0,0,0,0,0,0,0,0,0,0,0,0,0,0,0,0,0,0,0,0,0,0,0,0,0,0,0,0,0,0,0,0,0,0,0,0,0,0,0,0,0,0,0,0,0,0,0,0,0,0,0,0]","[0,0,0,0,0,0,0,0,0,0,0,0,0,0,0,0,0,0,0,0,0,0,0,0,0,0,0,0,0,0,0,0,0,0,0,0,0,0,0,0,0,0,0,0,0,0,0,0,0,0,0,0,0,0,0,0,0,0,0,0,0,0,0,0]","[0.0002999999821184929,0.01659999999402828,0.03329999998211974,0.05069999998806907,0.06699999999999307,0.08599999999999852,0.10099999999999909,0.11729999998210872,0.13349999999999795,0.1506999999880776,0.16729999998212008,0.18359999999402987,0.20019999998807236,0.21689999997614962,0.23359999999404124,0.2502999999821185,0.2665999999940283,0.283099999994036,0.29979999998211326,0.3164999999999907,0.33319999998806793,0.3497999999821104,0.36650000000000205,0.3831999999880793,0.3999999999999915,0.41659999999403396,0.43319999998807646,0.4498999999761537,0.46639999997614723,0.4831999999880736,0.4997999999821161,0.5165999999940283,0.5331999999880708,0.5497999999821133,0.5682999999821163,0.5847999999821099,0.6011999999880686,0.6173999999761577,0.6343999999761536,0.6499999999999915,0.6664999999999992,0.6833999999761602,0.7002999999821213,0.7166999999880801,0.7332999999821084,0.7498999999761509,0.7665999999940283,0.783099999994036,0.8002999999821157,0.8167999999821092,0.8333999999761517,0.8502999999821128,0.8667999999821205,0.8833999999761488,0.9001999999880752,0.9167999999821177,0.9334999999999951,0.950499999999991,0.9670999999940335,0.9855000000000018,1.0005000000000024,1.0174999999999983,1.033799999982108,1.050199999988081]",,1,0,1,0,1,,,,
,,A111111111,2024-06-20_17h28.05.785,GoFitts,2022.2.4,Win32,59.88023952,,,,,,,,,,,,,,,,,,"[158.9185190102289,-176.49689605088108]","[-192.14153616405,139.5989974194624]",40.5,475,2,"[152,151,150,150,150,150,150,150,150,150,150,150,150,150,150,150,150,150,150,144,134,116,82,36,-20,-82,-135,-179,-208,-223,-229,-231,-231,-231,-229,-225,-221,-219,-216,-211,-206,-203,-199,-197]","[-160,-164,-169,-174,-178,-180,-181,-181,-181,-181,-181,-181,-181,-181,-181,-181,-181,-181,-180,-172,-163,-148,-128,-105,-77,-49,-24,2,20,36,47,56,65,74,82,89,96,101,105,112,115,117,120,123]","[0,0,0,0,0,0,0,0,0,0,0,1,1,1,1,1,1,1,1,0,0,0,0,0,0,0,0,0,0,0,0,0,0,0,0,0,0,0,0,0,0,0,0,0]","[0,0,0,0,0,0,0,0,0,0,0,0,0,0,0,0,0,0,0,0,0,0,0,0,0,0,0,0,0,0,0,0,0,0,0,0,0,0,0,0,0,0,0,0]","[0,0,0,0,0,0,0,0,0,0,0,0,0,0,0,0,0,0,0,0,0,0,0,0,0,0,0,0,0,0,0,0,0,0,0,0,0,0,0,0,0,0,0,0]","[0.00020000001788389454,0.01640000000595876,0.03480000001192707,0.0499000000059624,0.06650000000000489,0.08340000000596604,0.09990000000595955,0.1168000000119207,0.13370000001788185,0.150600000023843,0.1672000000178855,0.18430000001193036,0.20070000001788912,0.2173000000119174,0.2341000000238438,0.2505000000000024,0.2672000000178798,0.28410000002384095,0.3012000000178858,0.3169000000059583,0.33360000002384993,0.35010000002384345,0.3668000000119207,0.38349999999999795,0.4001000000238406,0.41690000000596683,0.4335000000000093,0.450100000023852,0.466900000005964,0.4835000000000065,0.5002000000178839,0.5169000000059611,0.5335000000000036,0.5504000000059648,0.5670000000000073,0.5837000000178847,0.6004000000059619,0.6170000000000044,0.6340000000000003,0.650600000023843,0.6671000000238507,0.6854000000059699,0.7005000000000052,0.7172000000178826]",,2,0,2,0,1,,,,
,,A111111111,2024-06-20_17h28.05.785,GoFitts,2022.2.4,Win32,59.88023952,,,,,,,,,,,,,,,,,,"[-192.14153616405,139.5989974194624]","[216.96704619011774,-96.59995273050254]",40.5,475,2,"[-197,-195,-193,-192,-192,-192,-192,-192,-192,-192,-192,-192,-192,-192,-192,-192,-191,-186,-174,-156,-129,-86,-15,62,131,176,208,226,234,236,236,236,236,236,236,236,236,236,235,233,228]","[123,127,131,134,134,134,134,134,134,134,134,134,134,134,134,134,134,131,120,103,82,55,20,-12,-38,-54,-67,-74,-77,-77,-77,-77,-77,-77,-77,-77,-77,-77,-79,-82,-88]","[0,0,0,0,0,0,1,1,1,1,1,1,1,1,0,0,0,0,0,0,0,0,0,0,0,0,0,0,0,0,0,0,0,0,0,0,0,0,0,0,0]","[0,0,0,0,0,0,0,0,0,0,0,0,0,0,0,0,0,0,0,0,0,0,0,0,0,0,0,0,0,0,0,0,0,0,0,0,0,0,0,0,0]","[0,0,0,0,0,0,0,0,0,0,0,0,0,0,0,0,0,0,0,0,0,0,0,0,0,0,0,0,0,0,0,0,0,0,0,0,0,0,0,0,0]","[0.00020000001788389454,0.016600000023842654,0.03300000000000125,0.0499000000059624,0.06660000002383981,0.08330000001191706,0.09990000000595955,0.11660000002385118,0.13320000001787946,0.15050000000000807,0.1672000000178855,0.18380000001192798,0.20070000001788912,0.21740000000596638,0.2334000000059575,0.24990000000596524,0.26660000002384265,0.2833000000119199,0.29999999999999716,0.3166000000238398,0.33340000000596604,0.34990000000595955,0.36670000001788594,0.38330000001192843,0.3999000000059567,0.4167000000178831,0.43340000000596035,0.45010000002383777,0.46699999999999875,0.4836000000238414,0.5003000000119187,0.517100000023845,0.533900000005957,0.55030000001193,0.5670000000000073,0.5837000000178847,0.6007000000178806,0.6176000000238417,0.6334000000059632,0.6518000000119173,0.6671000000238507]",,3,0,3,0,1,,,,
,,A111111111,2024-06-20_17h28.05.785,GoFitts,2022.2.4,Win32,59.88023952,,,,,,,,,,,,,,,,,,"[216.96704619011774,-96.59995273050254]","[-232.31005517427886,49.379026569217835]",40.5,475,2,"[228,225,223,222,222,222,222,222,222,222,222,222,222,222,221,218,212,197,170,122,56,1,-34,-55,-67,-74,-78,-82,-89,-100,-113,-130,-145,-158,-171,-180,-186,-190,-195,-199,-201,-204,-205,-206,-208,-209,-211,-211,-211,-211,-211,-211,-211,-211,-211,-211,-210,-205,-199,-193,-185,-177,-170,-168,-168,-168,-168,-168,-169,-178,-189,-203,-215]","[-88,-92,-96,-99,-100,-101,-101,-101,-101,-101,-101,-101,-101,-101,-100,-97,-92,-80,-63,-38,-13,2,8,13,15,18,19,20,20,20,20,20,20,21,25,27,31,34,37,41,42,43,44,44,45,46,46,46,46,46,46,46,46,46,46,46,46,45,44,43,40,37,36,35,35,35,35,35,35,37,40,44,48]","[0,0,0,0,1,1,1,1,1,1,1,0,0,0,0,0,0,0,0,0,0,0,0,0,0,0,0,0,0,0,0,0,0,0,0,0,0,0,0,0,0,0,0,0,0,0,1,1,1,1,1,1,1,0,0,0,0,0,0,0,0,0,0,0,0,0,0,0,0,0,0,0,0]","[0,0,0,0,0,0,0,0,0,0,0,0,0,0,0,0,0,0,0,0,0,0,0,0,0,0,0,0,0,0,0,0,0,0,0,0,0,0,0,0,0,0,0,0,0,0,0,0,0,0,0,0,0,0,0,0,0,0,0,0,0,0,0,0,0,0,0,0,0,0,0,0,0]","[0,0,0,0,0,0,0,0,0,0,0,0,0,0,0,0,0,0,0,0,0,0,0,0,0,0,0,0,0,0,0,0,0,0,0,0,0,0,0,0,0,0,0,0,0,0,0,0,0,0,0,0,0,0,0,0,0,0,0,0,0,0,0,0,0,0,0,0,0,0,0,0,0]","[0.00009999999404897153,0.01640000000595876,0.03309999999403601,0.0499000000059624,0.06669999998808862,0.08340000000596604,0.09969999998807566,0.11669999998808578,0.13349999999999795,0.15050000000000807,0.16659999999404818,0.1833000000119256,0.2000999999940376,0.21649999999999636,0.23469999998808078,0.25,0.2665999999940425,0.283199999988085,0.29999999999999716,0.3166999999880886,0.33330000001191706,0.3500999999940433,0.3666999999880858,0.38330000001192843,0.4001999999880752,0.4165999999940482,0.4335999999940441,0.4503000000119215,0.46699999999999875,0.48359999999404124,0.500099999994049,0.5169000000059611,0.5336999999880874,0.5501999999880809,0.5669000000059583,0.5835999999940356,0.6004000000059619,0.6170999999940392,0.6336999999880817,0.6503000000119243,0.6671999999880853,0.683800000011928,0.700699999988089,0.7171999999880825,0.7340000000000089,0.7504000000059676,0.7674000000059635,0.7849999999999966,0.8013000000119206,0.8178000000119283,0.8345999999940403,0.8511999999880828,0.8680000000000092,0.8841999999880841,0.9005999999940428,0.9174000000059692,0.9353000000119209,0.9508000000119239,0.9671999999880825,0.9840999999940436,1.0006999999880861,1.0171999999880796,1.0341999999880755,1.0510999999940367,1.0675999999940444,1.0843000000119218,1.1009000000059643,1.1175999999940416,1.134199999988084,1.1508000000119267,1.1675999999940387,1.1840999999940465,1.2010999999940424]",,4,0,4,0,1,,,,
,,A111111111,2024-06-20_17h28.05.785,GoFitts,2022.2.4,Win32,59.88023952,,,,,,,,,,,,,,,,,,"[-232.31005517427886,49.379026569217835]","[237.5,0]",40.5,475,2,"[-215,-221,-223,-223,-223,-223,-223,-223,-223,-223,-223,-223,-223,-223,-223,-221,-213,-194,-159,-91,10,118,201,261,293,305,306,307,307,307,307,307,307,301,293,282,272,266,264,262,260,258,258,258,258,258,258,258,258,258,258,257]","[48,50,51,52,52,52,52,52,52,52,52,52,52,52,52,51,49,43,36,31,23,16,13,10,7,4,3,3,2,2,2,2,0,-1,-2,-4,-4,-4,-4,-3,-2,-1,-1,-1,-1,-1,-1,-1,-1,-1,-1,-1]","[0,0,0,0,0,1,1,1,1,1,1,1,1,1,0,0,0,0,0,0,0,0,0,0,0,0,0,0,0,0,0,0,0,0,0,0,0,0,0,0,0,0,0,1,1,1,1,1,1,1,0,0]","[0,0,0,0,0,0,0,0,0,0,0,0,0,0,0,0,0,0,0,0,0,0,0,0,0,0,0,0,0,0,0,0,0,0,0,0,0,0,0,0,0,0,0,0,0,0,0,0,0,0,0,0]","[0,0,0,0,0,0,0,0,0,0,0,0,0,0,0,0,0,0,0,0,0,0,0,0,0,0,0,0,0,0,0,0,0,0,0,0,0,0,0,0,0,0,0,0,0,0,0,0,0,0,0,0]","[0.0003000000119328661,0.01780000001193116,0.033200000017885145,0.0499000000059624,0.06630000001192116,0.0832000000178823,0.09950000000000614,0.11630000001193253,0.13280000001192604,0.14960000002385243,0.16610000002384595,0.18300000000000693,0.1998000000119191,0.2166000000238455,0.23350000000000648,0.25,0.2668000000119264,0.28320000001788515,0.30000000000001137,0.3169000000059583,0.3333000000119313,0.3500000000000085,0.36670000001788594,0.38330000001192843,0.4001000000238406,0.41690000000596683,0.4335000000000093,0.4517000000178797,0.4683000000119222,0.48420000001789276,0.5011000000238397,0.5176000000238474,0.5339000000059713,0.55030000001193,0.5669000000059583,0.5836000000238499,0.6005000000000109,0.6169000000059697,0.6354000000059585,0.650600000023843,0.6672000000178855,0.6840000000000117,0.7016000000238449,0.7181000000238527,0.7344000000059623,0.750800000011921,0.767100000023845,0.7839000000059713,0.8006000000238487,0.8175000000000097,0.8340000000000032,0.8508000000119296]",,5,0,5,0,1,,,,
,,A111111111,2024-06-20_17h28.05.785,GoFitts,2022.2.4,Win32,59.88023952,,,,,,,,,,,,,,,,,,"[237.5,0]","[-232.31005517427886,-49.37902656921778]",40.5,475,2,"[257,254,250,247,244,243,241,241,241,241,241,241,241,241,241,241,241,241,233,221,199,161,115,66,15,-31,-70,-97,-115,-124,-129,-134,-141,-152,-164,-178,-192,-207,-221]","[-1,-1,-1,-1,-2,-2,-2,-2,-2,-2,-2,-2,-2,-2,-2,-2,-2,-2,-2,-3,-6,-10,-15,-21,-28,-32,-35,-35,-36,-37,-37,-38,-39,-41,-42,-45,-46,-46,-47]","[0,0,0,0,0,0,0,0,0,1,1,1,1,1,1,1,1,0,0,0,0,0,0,0,0,0,0,0,0,0,0,0,0,0,0,0,0,0,0]","[0,0,0,0,0,0,0,0,0,0,0,0,0,0,0,0,0,0,0,0,0,0,0,0,0,0,0,0,0,0,0,0,0,0,0,0,0,0,0]","[0,0,0,0,0,0,0,0,0,0,0,0,0,0,0,0,0,0,0,0,0,0,0,0,0,0,0,0,0,0,0,0,0,0,0,0,0,0,0]","[0.00020000001788389454,0.01640000000597297,0.03300000000000125,0.05010000002384629,0.06650000000000489,0.08440000000597081,0.10010000002384345,0.11650000000000205,0.1329000000059608,0.14980000001192195,0.16660000002384834,0.18300000000000693,0.20040000000597047,0.21720000001788264,0.2339000000059599,0.2507000000178863,0.2673000000119288,0.28350000000000364,0.30000000000001137,0.31680000001192354,0.3332000000178823,0.3500000000000085,0.36670000001788594,0.38330000001192843,0.4000000000000057,0.41690000000596683,0.4333000000119256,0.45000000000000284,0.46699999999999875,0.4835000000000065,0.5002000000178839,0.5168000000119264,0.5336000000238528,0.5501000000238463,0.5668000000119235,0.5835000000000008,0.6001000000238434,0.6169000000059697,0.6336000000238471]",,6,0,6,0,1,,,,
,,A111111111,2024-06-20_17h28.05.785,GoFitts,2022.2.4,Win32,59.88023952,,,,,,,,,,,,,,,,,,"[-232.31005517427886,-49.37902656921778]","[216.9670461901177,96.59995273050254]",40.5,475,2,"[-221,-229,-232,-232,-232,-232,-232,-232,-232,-232,-232,-232,-232,-232,-231,-224,-197,-150,-81,-8,49,89,115,132,143,154,166,178,187,195,201]","[-47,-48,-48,-48,-48,-48,-48,-48,-48,-48,-48,-48,-48,-48,-48,-47,-42,-32,-15,8,33,54,68,76,82,87,89,90,91,91,91]","[0,0,0,0,0,1,1,1,1,1,1,1,1,1,0,0,0,0,0,0,0,0,0,0,0,0,0,0,0,0,0]","[0,0,0,0,0,0,0,0,0,0,0,0,0,0,0,0,0,0,0,0,0,0,0,0,0,0,0,0,0,0,0]","[0,0,0,0,0,0,0,0,0,0,0,0,0,0,0,0,0,0,0,0,0,0,0,0,0,0,0,0,0,0,0]","[0.0003000000119186552,0.01659999999404249,0.03459999999402896,0.05069999998806907,0.06730000001191172,0.08449999999999136,0.10009999999402908,0.11659999999403681,0.13330000001191422,0.14999999999999147,0.16669999998806873,0.18340000000596035,0.20000000000000284,0.2166999999880801,0.2334000000059575,0.25,0.2665999999940425,0.2833000000119199,0.3000999999940319,0.3166999999880744,0.3334000000059518,0.3499999999999943,0.3668000000119207,0.3833000000119142,0.40009999999404045,0.41680000001191786,0.43359999999402987,0.45019999998807236,0.4669000000059498,0.48359999999404124,0.5000999999940348]",,7,0,7,0,1,,,,
,,A111111111,2024-06-20_17h28.05.785,GoFitts,2022.2.4,Win32,59.88023952,,,,,,,,,,,,,,,,,,"[216.9670461901177,96.59995273050254]","[-192.14153616405005,-139.59899741946234]",40.5,475,2,"[201,202,202,202,202,202,203,203,204,205,205,205,205,205,205,205,205,205,200,189,173,148,119,86,50,9,-29,-62,-88,-106,-120,-130,-141,-153,-164,-172,-179,-186,-190,-194,-196]","[91,91,91,91,91,91,91,91,91,92,92,92,92,92,92,92,92,92,92,86,77,61,40,15,-10,-35,-54,-68,-77,-83,-87,-89,-92,-96,-100,-103,-107,-111,-114,-117,-121]","[0,0,0,0,0,0,0,0,0,0,1,1,1,1,1,1,1,1,0,0,0,0,0,0,0,0,0,0,0,0,0,0,0,0,0,0,0,0,0,0,0]","[0,0,0,0,0,0,0,0,0,0,0,0,0,0,0,0,0,0,0,0,0,0,0,0,0,0,0,0,0,0,0,0,0,0,0,0,0,0,0,0,0]","[0,0,0,0,0,0,0,0,0,0,0,0,0,0,0,0,0,0,0,0,0,0,0,0,0,0,0,0,0,0,0,0,0,0,0,0,0,0,0,0,0]","[0.0001999999880837322,0.016999999999995907,0.034099999994040786,0.05079999998211804,0.06749999999999545,0.08389999997615405,0.10109999999403385,0.11749999999999261,0.13379999998211645,0.151099999994031,0.16829999998211065,0.184299999982116,0.2009999999999934,0.2175999999940359,0.2341999999880784,0.2502999999821185,0.2669999999999959,0.28350000000000364,0.3003999999761504,0.31689999997615814,0.3335000000000008,0.3502999999821128,0.3668999999761553,0.3836999999880817,0.40029999998210997,0.4170000000000016,0.4337999999821136,0.4503999999761561,0.46699999999999875,0.48379999998211076,0.5003999999761533,0.5170999999940307,0.5339999999999918,0.5503999999761504,0.567099999994042,0.5837999999821193,0.6007999999821152,0.617199999988074,0.6338999999761512,0.6505999999940428,0.6672999999821201]",,8,0,8,0,1,,,,
,,A111111111,2024-06-20_17h28.05.785,GoFitts,2022.2.4,Win32,59.88023952,,,,,,,,,,,,,,,,,,"[-192.14153616405005,-139.59899741946234]","[158.91851901022883,176.49689605088113]",40.5,475,2,"[-196,-198,-199,-199,-200,-200,-200,-200,-200,-200,-200,-200,-200,-200,-197,-190,-177,-156,-124,-77,-22,26,59,79,91,100,108,117,123,128,133,138,141,144,147]","[-121,-124,-127,-129,-130,-131,-131,-132,-132,-132,-132,-132,-132,-132,-130,-125,-114,-93,-67,-30,9,44,71,89,101,111,119,126,132,138,143,149,155,159,164]","[0,0,0,0,0,1,1,1,1,1,1,1,1,1,0,0,0,0,0,0,0,0,0,0,0,0,0,0,0,0,0,0,0,0,0]","[0,0,0,0,0,0,0,0,0,0,0,0,0,0,0,0,0,0,0,0,0,0,0,0,0,0,0,0,0,0,0,0,0,0,0]","[0,0,0,0,0,0,0,0,0,0,0,0,0,0,0,0,0,0,0,0,0,0,0,0,0,0,0,0,0,0,0,0,0,0,0]","[0.0003000000119186552,0.016600000023842654,0.033300000011919906,0.04999999999999716,0.06660000002383981,0.08340000000596604,0.09990000000595955,0.11650000000000205,0.13330000001192843,0.15020000001788958,0.1672000000178855,0.18390000000596274,0.20070000001788912,0.2173000000119174,0.23350000000000648,0.25010000002384913,0.2667000000178774,0.2834000000059689,0.30020000001788105,0.3169000000059583,0.33340000000596604,0.3502000000178782,0.36670000001788594,0.38349999999999795,0.4004000000059591,0.41690000000596683,0.4334999999999951,0.45040000000595626,0.4671000000238479,0.48370000001787616,0.5005000000000024,0.5174999999999983,0.5336000000238386,0.5506000000238487,0.5670000000000073]",,9,0,9,0,1,,,,
,,A111111111,2024-06-20_17h28.05.785,GoFitts,2022.2.4,Win32,59.88023952,,,,,,,,,,,,,,,,,,"[158.91851901022883,176.49689605088113]","[-118.7500000000001,-205.68103339880412]",40.5,475,2,"[147,152,158,165,171,173,173,174,174,174,174,174,174,174,174,174,174,174,174,172,171,167,162,151,134,111,79,52,27,12,3,-2,-6,-13,-22,-33,-44,-54,-64,-75,-82,-87,-90,-95,-99,-103,-107,-108]","[164,171,177,183,188,191,191,191,191,191,191,191,191,191,191,191,191,191,191,190,187,181,173,155,123,81,32,-8,-43,-66,-85,-99,-111,-121,-131,-140,-149,-155,-161,-166,-169,-172,-173,-176,-179,-184,-188,-191]","[0,0,0,0,0,0,0,1,1,1,1,1,1,1,1,1,0,0,0,0,0,0,0,0,0,0,0,0,0,0,0,0,0,0,0,0,0,0,0,0,0,0,0,0,0,0,0,0]","[0,0,0,0,0,0,0,0,0,0,0,0,0,0,0,0,0,0,0,0,0,0,0,0,0,0,0,0,0,0,0,0,0,0,0,0,0,0,0,0,0,0,0,0,0,0,0,0]","[0,0,0,0,0,0,0,0,0,0,0,0,0,0,0,0,0,0,0,0,0,0,0,0,0,0,0,0,0,0,0,0,0,0,0,0,0,0,0,0,0,0,0,0,0,0,0,0]","[0.0001999999880837322,0.017500000000012506,0.03329999998211974,0.04959999999404374,0.066299999982121,0.08319999998808214,0.0995999999940409,0.11690000000596967,0.13350000000001216,0.15009999999404045,0.1667999999821177,0.18359999999404408,0.20069999998808896,0.21740000000596638,0.23429999998212736,0.2507999999821209,0.26690000000596115,0.28350000000000364,0.3001999999880809,0.3169000000059725,0.3335000000000008,0.350299999982127,0.3669000000059697,0.3834000000059632,0.4002999999821242,0.4170000000000016,0.43369999998807884,0.45040000000597047,0.46700000000001296,0.48359999999404124,0.5002999999821185,0.5170999999940449,0.5337999999821221,0.5504999999999995,0.5672999999821258,0.5837999999821193,0.6004000000059619,0.6171999999880882,0.6340000000000003,0.6506999999880918,0.6671999999880853,0.6837999999821278,0.7007999999821237,0.7171999999880825,0.7340999999940436,0.7507999999821209,0.7672999999821286,0.7852999999821293]",,10,0,10,0,1,,,,
,,A111111111,2024-06-20_17h28.05.785,GoFitts,2022.2.4,Win32,59.88023952,,,,,,,,,,,,,,,,,,"[-118.7500000000001,-205.68103339880412]","[73.39153616405002,225.87592262009898]",40.5,475,2,"[-108,-111,-111,-112,-112,-112,-112,-112,-112,-112,-112,-112,-113,-111,-103,-86,-61,-31,-3,23,43,57,67,78,89,98,103,106,108,110,110,109,105,99,93,87,85,83,81]","[-191,-195,-197,-200,-201,-202,-202,-202,-202,-202,-202,-202,-202,-196,-184,-161,-130,-91,-52,-11,27,59,81,99,116,129,140,148,156,165,172,179,185,192,197,202,206,208,211]","[0,0,0,0,1,1,1,1,1,1,1,1,0,0,0,0,0,0,0,0,0,0,0,0,0,0,0,0,0,0,0,0,0,0,0,0,0,0,0]","[0,0,0,0,0,0,0,0,0,0,0,0,0,0,0,0,0,0,0,0,0,0,0,0,0,0,0,0,0,0,0,0,0,0,0,0,0,0,0]","[0,0,0,0,0,0,0,0,0,0,0,0,0,0,0,0,0,0,0,0,0,0,0,0,0,0,0,0,0,0,0,0,0,0,0,0,0,0,0]","[0.0009000000059700142,0.014800000011931047,0.03160000002384322,0.048500000000004206,0.06530000001193059,0.08270000001789413,0.0984000000059666,0.11510000002384402,0.1317000000178865,0.14840000000596376,0.1658000000119273,0.18170000001788367,0.19870000001789379,0.2150000000000034,0.23170000001789504,0.2484000000059723,0.2651000000238497,0.2817000000178922,0.29840000000596945,0.31510000002384686,0.3319000000059731,0.34850000000000136,0.3656000000238464,0.38190000000597024,0.39840000000596376,0.4154000000059739,0.4319000000059674,0.4485000000000099,0.4655000000000058,0.4818000000119298,0.49850000000000705,0.5154000000059682,0.5321000000238456,0.5486000000238533,0.5654000000059654,0.5820000000000078,0.598900000005969,0.6168000000119349,0.6334000000059632]",,11,0,11,0,1,,,,
,,A111111111,2024-06-20_17h28.05.785,GoFitts,2022.2.4,Win32,59.88023952,,,,,,,,,,,,,,,,,,"[73.39153616405002,225.87592262009898]","[-24.82551002606788,-236.1989501499649]",40.5,475,2,"[81,81,81,81,81,81,81,81,81,81,81,81,81,80,79,77,76,74,69,60,50,36,23,14,7,6,6,6,6,5,3,-1,-7,-12,-19]","[211,212,214,214,214,214,214,214,214,214,214,214,214,214,209,204,193,172,138,91,39,-15,-66,-107,-137,-154,-165,-171,-176,-181,-188,-195,-204,-213,-223]","[0,0,0,0,1,1,1,1,1,1,1,1,0,0,0,0,0,0,0,0,0,0,0,0,0,0,0,0,0,0,0,0,0,0,0]","[0,0,0,0,0,0,0,0,0,0,0,0,0,0,0,0,0,0,0,0,0,0,0,0,0,0,0,0,0,0,0,0,0,0,0]","[0,0,0,0,0,0,0,0,0,0,0,0,0,0,0,0,0,0,0,0,0,0,0,0,0,0,0,0,0,0,0,0,0,0,0]","[0.0008000000119210426,0.01640000000597297,0.03270000001788276,0.049000000000006594,0.06630000001192116,0.08260000002384515,0.09910000002385289,0.11570000001788117,0.13230000001192366,0.1492000000178848,0.16570000001789253,0.1824000000059698,0.1985000000000099,0.21510000002385254,0.2318000000119298,0.24850000000000705,0.2651000000238497,0.28180000001192695,0.29840000000596945,0.31510000002384686,0.33170000001788935,0.34850000000000136,0.365200000017893,0.38190000000597024,0.39850000000001273,0.41520000001789015,0.43220000001788605,0.44880000001192855,0.46530000001192207,0.48210000002384845,0.49850000000000705,0.5154000000059682,0.5319000000059617,0.5487000000178881,0.5654000000059654]",,12,0,12,0,1,,,,
,,A111111111,2024-06-20_17h28.05.785,GoFitts,2022.2.4,Win32,59.88023952,,,,,,,,,,,,,,,,,,"[-24.82551002606788,-236.1989501499649]","[-24.825510026067665,236.19895014996493]",40.5,475,2,"[-19,-26,-32,-36,-40,-40,-40,-40,-40,-40,-40,-40,-40,-40,-40,-40,-40,-39,-37,-36,-34,-33,-32,-32,-33,-38,-48,-57,-62,-64,-65,-65,-65,-62,-58,-54,-52,-49,-46,-43,-40]","[-223,-231,-238,-242,-245,-245,-245,-245,-245,-245,-245,-245,-245,-245,-245,-245,-244,-241,-234,-227,-219,-208,-195,-180,-159,-131,-91,-50,-13,24,57,92,120,147,169,185,198,209,216,224,229]","[0,0,0,0,0,0,0,0,0,1,1,1,1,1,1,1,0,0,0,0,0,0,0,0,0,0,0,0,0,0,0,0,0,0,0,0,0,0,0,0,0]","[0,0,0,0,0,0,0,0,0,0,0,0,0,0,0,0,0,0,0,0,0,0,0,0,0,0,0,0,0,0,0,0,0,0,0,0,0,0,0,0,0]","[0,0,0,0,0,0,0,0,0,0,0,0,0,0,0,0,0,0,0,0,0,0,0,0,0,0,0,0,0,0,0,0,0,0,0,0,0,0,0,0,0]","[0.0001999999880837322,0.01640000000595876,0.03300000000000125,0.0499000000059624,0.066299999982121,0.08309999999404738,0.09969999998808987,0.11629999998211815,0.13300000000000978,0.15000000000000568,0.16669999998808294,0.18329999998212543,0.19990000000596808,0.2166999999880801,0.23409999999404363,0.25059999999403715,0.2670999999940449,0.28350000000000364,0.2999000000059624,0.3166999999880886,0.3335000000000008,0.3500999999940433,0.3666999999880858,0.3834000000059632,0.40009999999404045,0.4167999999821177,0.43340000000596035,0.45000000000000284,0.46679999998212907,0.4836999999880902,0.5001999999880837,0.5167999999821262,0.5335000000000036,0.5500999999940461,0.5669000000059583,0.5835999999940498,0.6004000000059619,0.6169000000059697,0.6336999999880817,0.6502999999821242,0.6670999999940506]",,13,0,13,0,1,,,,
,,A111111111,2024-06-20_17h28.05.785,GoFitts,2022.2.4,Win32,59.88023952,,,,,,,,,,,,,,,,,,"[-24.825510026067665,236.19895014996493]","[73.39153616404997,-225.875922620099]",40.5,475,2,"[-40,-37,-35,-33,-32,-30,-28,-27,-27,-27,-27,-27,-27,-27,-27,-27,-26,-26,-23,-20,-17,-13,-8,-2,4,8,14,22,30,35,37,37,37,37,39,43,49,57]","[229,234,238,240,242,243,244,245,245,245,245,245,245,245,245,245,245,241,226,204,172,128,71,4,-68,-128,-165,-187,-204,-212,-217,-219,-220,-221,-224,-228,-232,-234]","[0,0,0,0,0,0,0,0,1,1,1,1,1,1,1,1,1,0,0,0,0,0,0,0,0,0,0,0,0,0,0,0,0,0,0,0,0,0]","[0,0,0,0,0,0,0,0,0,0,0,0,0,0,0,0,0,0,0,0,0,0,0,0,0,0,0,0,0,0,0,0,0,0,0,0,0,0]","[0,0,0,0,0,0,0,0,0,0,0,0,0,0,0,0,0,0,0,0,0,0,0,0,0,0,0,0,0,0,0,0,0,0,0,0,0,0]","[0.00010000002384913387,0.01640000000595876,0.033300000011919906,0.049800000011927636,0.06660000002383981,0.0832000000178823,0.10010000002384345,0.11670000001788594,0.1334000000059632,0.1499000000059567,0.1667000000178831,0.18360000002384425,0.20070000001788912,0.2173000000119174,0.23420000001787855,0.2506000000238515,0.2667000000178774,0.28360000002383856,0.2999000000059624,0.3167000000178888,0.33340000000596604,0.3500000000000085,0.3668000000119207,0.38350000000001216,0.3999000000059709,0.41680000001193207,0.4340000000000117,0.45000000000000284,0.46700000000001296,0.4836000000238414,0.5003000000119329,0.5170000000000101,0.5349000000059618,0.5516000000238535,0.5671000000238422,0.5836000000238499,0.6004000000059619,0.6170000000000044]",,14,0,14,0,1,,,,
,,A111111111,2024-06-20_17h28.05.785,GoFitts,2022.2.4,Win32,59.88023952,,,,,,,,,,,,,,,,,,,,,,2,,,,,,,,,,,,,2,0,0,1
,,A111111111,2024-06-20_17h28.05.785,GoFitts,2022.2.4,Win32,59.88023952,,,,,,,,,,,,,,,,return,1.2351,"[26,-18]","[182.70909152852016,81.34732861516002]",48,400,3,"[26,26,26,26,26,26,26,26,26,26,26,26,26,26,26,26,26,26,26,26,26,26,26,26,26,26,26,26,26,26,26,48,71,86,88,88,88,88,88,88,88,88,91,95,100,107,117,127,134,140,145,150,156,162]","[-18,-18,-18,-18,-18,-18,-18,-18,-18,-18,-18,-18,-18,-18,-18,-18,-18,-18,-18,-18,-18,-18,-18,-18,-18,-18,-18,-18,-18,-18,-18,29,70,96,100,100,101,101,101,101,101,99,89,83,77,74,73,74,75,78,80,83,88,92]","[0,0,0,0,0,0,0,0,0,0,0,0,0,0,0,0,0,0,0,0,0,0,0,0,0,0,0,0,0,0,0,0,0,0,0,0,0,0,0,0,0,0,0,0,0,0,0,0,0,0,0,0,0,0]","[0,0,0,0,0,0,0,0,0,0,0,0,0,0,0,0,0,0,0,0,0,0,0,0,0,0,0,0,0,0,0,0,0,0,0,0,0,0,0,0,0,0,0,0,0,0,0,0,0,0,0,0,0,0]","[0,0,0,0,0,0,0,0,0,0,0,0,0,0,0,0,0,0,0,0,0,0,0,0,0,0,0,0,0,0,0,0,0,0,0,0,0,0,0,0,0,0,0,0,0,0,0,0,0,0,0,0,0,0]","[0.0005999999940371481,0.028699999988077707,0.043799999982113036,0.06069999998807418,0.07729999998211667,0.09679999998211031,0.11189999997614564,0.1273999999761486,0.13309999999403033,0.14979999998210758,0.1664999999999992,0.18339999997614598,0.19999999999998863,0.21649999999999636,0.23309999999403885,0.24969999998806713,0.2664999999999935,0.28319999998807077,0.3108999999761579,0.3164999999999907,0.33339999997615166,0.3500999999940291,0.36679999998210633,0.3833999999761488,0.40009999999402623,0.4166999999880687,0.433399999976146,0.45019999998807236,0.4666999999880659,0.48339999997615735,0.5004999999999882,0.5276999999880729,0.5441999999880665,0.5608999999761579,0.5778999999761538,0.5945999999940312,0.6112999999821085,0.6276999999880672,0.6330999999940303,0.6497999999821076,0.6664999999999992,0.6831999999880765,0.711299999982117,0.7279999999999944,0.744499999999988,0.7612999999821142,0.7777999999821077,0.7945999999940341,0.8113999999761461,0.8280999999940377,0.844699999988066,0.8613999999761575,0.877899999976151,0.894999999999996]",,0,0,0,0,1,,,,
,,A111111111,2024-06-20_17h28.05.785,GoFitts,2022.2.4,Win32,59.88023952,,,,,,,,,,,,,,,,,,"[182.70909152852016,81.34732861516002]","[-161.8033988749895,-117.5570504584946]",48,400,3,"[162,167,173,177,182,186,190,192,192,192,192,192,192,192,192,192,192,187,182,171,155,129,90,42,-15,-64,-93,-105,-107,-108,-110,-114,-121,-129,-136,-140]","[92,96,98,98,95,92,88,86,86,86,86,86,86,86,86,86,86,85,82,77,68,49,23,-4,-30,-49,-63,-70,-72,-73,-77,-82,-90,-97,-103,-108]","[0,0,0,0,0,0,0,1,1,1,1,1,1,1,1,1,0,0,0,0,0,0,0,0,0,0,0,0,0,0,0,0,0,0,0,0]","[0,0,0,0,0,0,0,0,0,0,0,0,0,0,0,0,0,0,0,0,0,0,0,0,0,0,0,0,0,0,0,0,0,0,0,0]","[0,0,0,0,0,0,0,0,0,0,0,0,0,0,0,0,0,0,0,0,0,0,0,0,0,0,0,0,0,0,0,0,0,0,0,0]","[0.0003000000119328661,0.016099999994040104,0.03280000001193173,0.04969999998809271,0.06630000001192116,0.08190000000597308,0.0998000000119248,0.11640000000596729,0.13309999999404454,0.14980000001192195,0.16640000000596444,0.17130000001192514,0.18819999998808612,0.20490000000596353,0.22159999999404079,0.23819999998808328,0.254699999988091,0.2830999999940502,0.29980000001192764,0.3165000000000049,0.3330999999940474,0.34990000000597377,0.36650000000000205,0.38309999999404454,0.4000000000000057,0.41669999998808294,0.43319999998809067,0.4499000000059681,0.4674000000059664,0.4834000000059717,0.5,0.5168000000119264,0.5333000000119341,0.5501999999880809,0.5668000000119235,0.5833000000119313]",,1,0,1,0,1,,,,
,,A111111111,2024-06-20_17h28.05.785,GoFitts,2022.2.4,Win32,59.88023952,,,,,,,,,,,,,,,,,,"[-161.8033988749895,-117.5570504584946]","[133.82612127177165,148.62896509547886]",48,400,3,"[-140,-143,-146,-152,-159,-166,-171,-174,-174,-174,-174,-174,-174,-174,-174,-174,-174,-173,-139,-94,-45,-2,27,45,56,61,65,71,76,80,86,91,97,101,104,108,111,115,119]","[-108,-113,-117,-119,-121,-123,-124,-125,-125,-125,-125,-125,-125,-125,-125,-125,-125,-125,-105,-80,-48,-13,16,38,56,67,75,84,92,98,105,111,118,122,124,126,128,130,134]","[0,0,0,0,0,0,0,0,0,0,1,1,1,1,1,1,1,1,0,0,0,0,0,0,0,0,0,0,0,0,0,0,0,0,0,0,0,0,0]","[0,0,0,0,0,0,0,0,0,0,0,0,0,0,0,0,0,0,0,0,0,0,0,0,0,0,0,0,0,0,0,0,0,0,0,0,0,0,0]","[0,0,0,0,0,0,0,0,0,0,0,0,0,0,0,0,0,0,0,0,0,0,0,0,0,0,0,0,0,0,0,0,0,0,0,0,0,0,0]","[0.0003000000119186552,0.01659999999404249,0.033300000011919906,0.0499000000059624,0.06640000000595592,0.08330000001191706,0.10180000001192013,0.11659999999403681,0.12159999999403226,0.1375999999940376,0.15430000001191502,0.17130000001191092,0.1880000000000024,0.20459999999403067,0.2213000000119223,0.23790000000595057,0.25459999999404204,0.27109999999403556,0.3004000000059506,0.3169000000059583,0.3334000000059518,0.35030000001191297,0.3669999999999902,0.3835999999940327,0.40030000001192434,0.4169000000059526,0.433700000017879,0.4500999999940376,0.46699999999999875,0.48370000001787616,0.5004000000059534,0.5169999999999959,0.5335999999940384,0.5504999999999995,0.5673000000119117,0.5840000000000032,0.6004999999999967,0.6172000000178741,0.6338000000119166]",,2,0,2,0,1,,,,
,,A111111111,2024-06-20_17h28.05.785,GoFitts,2022.2.4,Win32,59.88023952,,,,,,,,,,,,,,,,,,"[133.82612127177165,148.62896509547886]","[-100.00000000000009,-173.20508075688767]",48,400,3,"[119,124,127,127,127,127,127,127,127,127,127,127,127,118,104,81,50,15,-17,-40,-54,-61,-64,-66,-68,-71,-75,-81]","[134,138,140,140,140,140,140,140,140,140,140,140,139,121,98,62,17,-31,-77,-110,-129,-140,-147,-150,-154,-157,-161,-165]","[0,1,1,1,1,1,1,1,1,1,1,0,0,0,0,0,0,0,0,0,0,0,0,0,0,0,0,0]","[0,0,0,0,0,0,0,0,0,0,0,0,0,0,0,0,0,0,0,0,0,0,0,0,0,0,0,0]","[0,0,0,0,0,0,0,0,0,0,0,0,0,0,0,0,0,0,0,0,0,0,0,0,0,0,0,0]","[0.00010000002384913387,0.01650000000000773,0.033300000011919906,0.049600000023843904,0.05420000001788594,0.07010000002384231,0.08690000000596854,0.10349999999999682,0.12020000001788844,0.13680000001191672,0.1539000000059616,0.1702000000178856,0.1868000000119281,0.2164000000059616,0.23330000001192275,0.24990000000596524,0.26650000000000773,0.28340000000595467,0.29999999999999716,0.3165000000000049,0.33340000000596604,0.35010000002384345,0.36660000002383697,0.38349999999999795,0.4002000000178896,0.41690000000596683,0.4333000000119256,0.4503000000119215]",,3,0,3,0,1,,,,
,,A111111111,2024-06-20_17h28.05.785,GoFitts,2022.2.4,Win32,59.88023952,,,,,,,,,,,,,,,,,,"[-100.00000000000009,-173.20508075688767]","[61.80339887498949,190.2113032590307]",48,400,3,"[-81,-89,-95,-101,-104,-104,-104,-104,-104,-104,-104,-104,-104,-104,-104,-104,-96,-78,-52,-27,-3,15,27,34,39,42,44,44,45,45,46,46,48,50,52]","[-165,-169,-173,-178,-180,-181,-181,-181,-181,-181,-181,-181,-181,-181,-181,-181,-165,-141,-110,-70,-26,11,46,73,94,112,126,137,143,147,152,157,162,168,173]","[0,0,0,0,0,0,0,0,0,1,1,1,1,1,1,1,0,0,0,0,0,0,0,0,0,0,0,0,0,0,0,0,0,0,0]","[0,0,0,0,0,0,0,0,0,0,0,0,0,0,0,0,0,0,0,0,0,0,0,0,0,0,0,0,0,0,0,0,0,0,0]","[0,0,0,0,0,0,0,0,0,0,0,0,0,0,0,0,0,0,0,0,0,0,0,0,0,0,0,0,0,0,0,0,0,0,0]","[0.0003000000119328661,0.01640000000597297,0.03300000000000125,0.049800000011927636,0.06650000000000489,0.08440000000597081,0.10080000001192957,0.10709999999404829,0.12020000001788844,0.1509000000059615,0.15749999999999886,0.18380000001192798,0.19020000001788162,0.20340000000597058,0.22009999999404783,0.23730000001192764,0.2668000000119264,0.2834000000059689,0.30000000000001137,0.3167000000178888,0.33340000000596604,0.3500000000000085,0.3669000000059697,0.3834000000059632,0.40009999999404045,0.41680000001193207,0.4335999999940441,0.45020000001788674,0.466900000005964,0.4837000000178904,0.5003000000119329,0.5170000000000101,0.5338000000119223,0.550200000017881,0.567099999994042]",,4,0,4,0,1,,,,
,,A111111111,2024-06-20_17h28.05.785,GoFitts,2022.2.4,Win32,59.88023952,,,,,,,,,,,,,,,,,,"[61.80339887498949,190.2113032590307]","[-20.905692653530846,-198.90437907365467]",48,400,3,"[52,53,56,57,58,58,59,59,59,59,59,59,59,59,59,58,52,42,38,25,4,-18,-35,-45,-47,-46,-42,-37]","[173,177,181,183,185,185,186,186,186,186,186,186,186,186,186,178,163,139,127,95,46,-12,-73,-119,-152,-169,-180,-187]","[0,0,0,0,0,1,1,1,1,1,1,1,1,1,0,0,0,0,0,0,0,0,0,0,0,0,0,0]","[0,0,0,0,0,0,0,0,0,0,0,0,0,0,0,0,0,0,0,0,0,0,0,0,0,0,0,0]","[0,0,0,0,0,0,0,0,0,0,0,0,0,0,0,0,0,0,0,0,0,0,0,0,0,0,0,0]","[0.00019999998806952135,0.01649999999999352,0.03319999998807077,0.049899999976148024,0.06669999998807441,0.0835000000000008,0.10039999997614757,0.1168999999761553,0.13329999998211406,0.14979999998210758,0.16659999999403396,0.18299999999999272,0.19669999998806986,0.20239999997615143,0.23359999999404124,0.25359999999403726,0.26879999998210735,0.28369999998807316,0.28909999999403624,0.3027999999821134,0.3199999999999932,0.33619999998806804,0.3526999999880758,0.369399999976153,0.3859999999999957,0.40269999998807293,0.4194999999999993,0.43599999999999284]",,5,0,5,0,1,,,,
,,A111111111,2024-06-20_17h28.05.785,GoFitts,2022.2.4,Win32,59.88023952,,,,,,,,,,,,,,,,,,"[-20.905692653530846,-198.90437907365467]","[-20.905692653530668,198.90437907365467]",48,400,3,"[-37,-34,-32,-31,-30,-30,-30,-30,-29,-29,-29,-29,-29,-29,-29,-29,-29,-29,-29,-29,-28,-26,-26,-28,-28,-27,-27,-27,-27,-25,-23,-21,-19,-17,-16,-15,-14,-14]","[-187,-192,-196,-197,-199,-200,-203,-206,-206,-206,-206,-206,-206,-206,-206,-206,-206,-206,-203,-192,-170,-137,-96,-55,-18,14,45,70,89,106,121,132,141,150,158,166,174,178]","[0,0,0,0,0,0,0,0,0,0,0,0,0,1,1,1,1,1,1,0,0,0,0,0,0,0,0,0,0,0,0,0,0,0,0,0,0,0]","[0,0,0,0,0,0,0,0,0,0,0,0,0,0,0,0,0,0,0,0,0,0,0,0,0,0,0,0,0,0,0,0,0,0,0,0,0,0]","[0,0,0,0,0,0,0,0,0,0,0,0,0,0,0,0,0,0,0,0,0,0,0,0,0,0,0,0,0,0,0,0,0,0,0,0,0,0]","[0.0002999999821184929,0.01649999999999352,0.03319999998807077,0.04999999999999716,0.06659999999403965,0.0841999999880727,0.09999999999999432,0.11659999999403681,0.13329999998211406,0.1499000000059567,0.16659999999403396,0.18359999999402987,0.20019999998807236,0.21690000000594978,0.23359999999402703,0.2502999999821185,0.26690000000594694,0.28369999998807316,0.30029999998211565,0.31659999999403965,0.3334000000059518,0.3499999999999943,0.3665999999940368,0.383400000005949,0.3999000000059567,0.41659999999403396,0.4334999999999951,0.44999999999998863,0.4665999999940311,0.4831999999880736,0.49990000000595103,0.5164999999999935,0.5334000000059547,0.5499000000059482,0.5666999999880744,0.5832999999821169,0.5999999999999943,0.6165999999940368]",,6,0,6,0,1,,,,
,,A111111111,2024-06-20_17h28.05.785,GoFitts,2022.2.4,Win32,59.88023952,,,,,,,,,,,,,,,,,,"[-20.905692653530668,198.90437907365467]","[61.80339887498945,-190.21130325903073]",48,400,3,"[-14,-13,-13,-13,-13,-13,-13,-13,-13,-13,-13,-13,-13,-13,-13,-13,-11,-6,-1,3,6,8,8,9,12,14,16,19,21,23,24,27,29,32,34,36,39,43,46,51]","[178,183,187,190,194,197,198,198,198,198,198,198,198,198,198,198,189,169,141,105,64,22,-20,-57,-80,-95,-105,-113,-121,-129,-135,-144,-152,-159,-162,-164,-167,-169,-171,-175]","[0,0,0,0,0,0,1,1,1,1,1,1,1,1,0,0,0,0,0,0,0,0,0,0,0,0,0,0,0,0,0,0,0,0,0,0,0,0,0,0]","[0,0,0,0,0,0,0,0,0,0,0,0,0,0,0,0,0,0,0,0,0,0,0,0,0,0,0,0,0,0,0,0,0,0,0,0,0,0,0,0]","[0,0,0,0,0,0,0,0,0,0,0,0,0,0,0,0,0,0,0,0,0,0,0,0,0,0,0,0,0,0,0,0,0,0,0,0,0,0,0,0]","[0.0003000000119328661,0.016600000023842654,0.033100000023850384,0.05090000000596717,0.0671000000238422,0.08330000001193127,0.09950000000000614,0.11640000000596729,0.1331000000238447,0.14980000001192195,0.1667000000178831,0.18340000000596035,0.1996000000238496,0.2164000000059616,0.23310000002385323,0.24990000000596524,0.26640000000597297,0.2831000000238504,0.29980000001192764,0.3167000000178888,0.3330000000000126,0.3498000000119248,0.3666000000238512,0.38320000001789367,0.3997000000178872,0.4164999999999992,0.43310000002384186,0.44970000001788435,0.4665000000000106,0.4831000000238532,0.4998000000119305,0.516400000005973,0.5332000000178851,0.5498000000119276,0.5665000000000049,0.5833000000119313,0.5998000000119248,0.616500000000002,0.6346000000238519,0.649800000011922]",,7,0,7,0,1,,,,
,,A111111111,2024-06-20_17h28.05.785,GoFitts,2022.2.4,Win32,59.88023952,,,,,,,,,,,,,,,,,,"[61.80339887498945,-190.21130325903073]","[-99.99999999999996,173.20508075688775]",48,400,3,"[51,55,57,60,62,63,63,63,63,63,63,63,63,63,62,59,49,33,14,-9,-30,-49,-69,-88,-102,-115,-122,-122,-122,-122,-122,-122,-121,-120,-117,-114]","[-175,-181,-188,-194,-201,-205,-207,-207,-207,-207,-207,-207,-207,-207,-202,-197,-185,-168,-145,-116,-83,-51,-16,16,42,65,84,100,114,126,134,142,147,151,156,160]","[0,0,0,0,0,0,0,1,1,1,1,1,1,1,0,0,0,0,0,0,0,0,0,0,0,0,0,0,0,0,0,0,0,0,0,0]","[0,0,0,0,0,0,0,0,0,0,0,0,0,0,0,0,0,0,0,0,0,0,0,0,0,0,0,0,0,0,0,0,0,0,0,0]","[0,0,0,0,0,0,0,0,0,0,0,0,0,0,0,0,0,0,0,0,0,0,0,0,0,0,0,0,0,0,0,0,0,0,0,0]","[0.0003000000119186552,0.01640000000595876,0.033100000023836174,0.049800000011927636,0.06660000002383981,0.08310000002384754,0.09990000000595955,0.11640000000596729,0.1331000000238447,0.1497000000178872,0.16640000000596444,0.18340000000596035,0.20010000002383777,0.21680000001191502,0.23310000002383902,0.2497000000178815,0.2664999999999935,0.2831000000238362,0.29980000001192764,0.3166000000238398,0.33310000002384754,0.34990000000595955,0.36660000002383697,0.3831000000238447,0.39980000001192195,0.4164999999999992,0.4332000000178766,0.44970000001788435,0.4666000000238455,0.483100000023839,0.49980000001191627,0.5164999999999935,0.5331000000238362,0.5498000000119276,0.5665000000000049,0.5831000000238475]",,8,0,8,0,1,,,,
,,A111111111,2024-06-20_17h28.05.785,GoFitts,2022.2.4,Win32,59.88023952,,,,,,,,,,,,,,,,,,"[-99.99999999999996,173.20508075688775]","[133.82612127177168,-148.6289650954788]",48,400,3,"[-114,-110,-108,-104,-100,-100,-100,-100,-100,-100,-99,-99,-98,-95,-91,-83,-72,-54,-32,-6,21,43,57,68,74,78,82,84,85,88,93,99,106,114,120]","[160,164,167,171,174,176,176,176,176,176,176,176,173,163,146,116,76,15,-52,-107,-144,-168,-180,-189,-194,-197,-199,-200,-200,-200,-197,-192,-184,-174,-164]","[0,0,0,0,0,1,1,1,1,1,1,1,1,0,0,0,0,0,0,0,0,0,0,0,0,0,0,0,0,0,0,0,0,0,0]","[0,0,0,0,0,0,0,0,0,0,0,0,0,0,0,0,0,0,0,0,0,0,0,0,0,0,0,0,0,0,0,0,0,0,0]","[0,0,0,0,0,0,0,0,0,0,0,0,0,0,0,0,0,0,0,0,0,0,0,0,0,0,0,0,0,0,0,0,0,0,0]","[0.0003000000119186552,0.01650000000000773,0.03319999998808498,0.049800000011927636,0.06650000000000489,0.08319999998808214,0.09969999998808987,0.11619999998808339,0.13309999999404454,0.14980000001192195,0.16690000000596683,0.18359999999404408,0.1998000000119191,0.2164000000059616,0.23309999999403885,0.24980000001193048,0.26650000000000773,0.283199999988085,0.29980000001192764,0.31640000000597013,0.33319999998808214,0.3498000000119248,0.36650000000000205,0.38309999999404454,0.39980000001192195,0.4164999999999992,0.43319999998807646,0.4500999999940376,0.46659999999404533,0.4831999999880878,0.4998000000119305,0.5164000000059588,0.5334000000059689,0.5498000000119276,0.5665000000000049]",,9,0,9,0,1,,,,
,,A111111111,2024-06-20_17h28.05.785,GoFitts,2022.2.4,Win32,59.88023952,,,,,,,,,,,,,,,,,,"[133.82612127177168,-148.6289650954788]","[-161.80339887498945,117.55705045849464]",48,400,3,"[120,124,129,132,136,136,137,137,137,137,137,137,137,137,137,132,121,98,69,36,4,-26,-45,-55,-61,-66,-71,-75,-78,-81,-85,-89,-98,-107,-116,-124,-132,-140]","[-164,-157,-150,-147,-146,-145,-145,-144,-144,-144,-144,-144,-144,-144,-144,-139,-132,-118,-99,-70,-37,-4,23,44,63,77,89,97,101,104,106,107,108,108,107,107,107,108]","[0,0,0,0,0,0,0,1,1,1,1,1,1,1,1,0,0,0,0,0,0,0,0,0,0,0,0,0,0,0,0,0,0,0,0,0,0,0]","[0,0,0,0,0,0,0,0,0,0,0,0,0,0,0,0,0,0,0,0,0,0,0,0,0,0,0,0,0,0,0,0,0,0,0,0,0,0]","[0,0,0,0,0,0,0,0,0,0,0,0,0,0,0,0,0,0,0,0,0,0,0,0,0,0,0,0,0,0,0,0,0,0,0,0,0,0]","[0.0002000000178696837,0.016700000017877414,0.033100000023836174,0.051900000005957736,0.06649999999999068,0.08370000001787048,0.10130000001191775,0.11830000001191365,0.13420000001787002,0.15049999999999386,0.16720000001787128,0.1842000000178814,0.20049999999999102,0.2173000000119174,0.23420000001787855,0.25030000001191866,0.2668000000119122,0.2833000000119199,0.3001000000238321,0.3169000000059583,0.3335000000000008,0.35010000002382924,0.3668000000119207,0.383400000005949,0.4001000000238406,0.41680000001191786,0.4334999999999951,0.4502000000178725,0.4669000000059498,0.4836000000238414,0.5001000000238349,0.518600000023838,0.5334999999999894,0.5504000000059506,0.567200000017877,0.5837000000178705,0.600300000011913,0.6171000000238394]",,10,0,10,0,1,,,,
,,A111111111,2024-06-20_17h28.05.785,GoFitts,2022.2.4,Win32,59.88023952,,,,,,,,,,,,,,,,,,"[-161.80339887498945,117.55705045849464]","[182.7090915285202,-81.34732861516002]",48,400,3,"[-140,-146,-147,-147,-147,-147,-147,-147,-147,-147,-147,-147,-147,-143,-133,-113,-85,-52,-18,24,71,119,155,176,188,193,195,197,199,200,203,207,209,209,209,209,206,199]","[108,108,109,109,109,109,109,109,109,109,109,109,109,104,90,70,42,8,-26,-57,-82,-101,-115,-122,-125,-127,-127,-127,-124,-121,-119,-117,-114,-110,-105,-99,-91,-81]","[0,0,0,0,1,1,1,1,1,1,1,1,0,0,0,0,0,0,0,0,0,0,0,0,0,0,0,0,0,0,0,0,0,0,0,0,0,0]","[0,0,0,0,0,0,0,0,0,0,0,0,0,0,0,0,0,0,0,0,0,0,0,0,0,0,0,0,0,0,0,0,0,0,0,0,0,0]","[0,0,0,0,0,0,0,0,0,0,0,0,0,0,0,0,0,0,0,0,0,0,0,0,0,0,0,0,0,0,0,0,0,0,0,0,0,0]","[0.0001999999880837322,0.018099999994035443,0.03319999998808498,0.0499000000059624,0.06759999999404442,0.08419999998808692,0.09990000000595955,0.11640000000596729,0.13329999998211406,0.15029999998212418,0.16750000000000398,0.1839999999999975,0.2000999999940376,0.21679999998211485,0.23329999998212259,0.25,0.26669999998807725,0.28350000000000364,0.29999999999999716,0.3166999999880744,0.33340000000596604,0.3500999999940433,0.3666999999880858,0.3835999999940469,0.4001999999880752,0.4167999999821177,0.4335999999940441,0.45059999999404,0.466900000005964,0.48359999999404124,0.5001999999880837,0.5169000000059611,0.5335999999940384,0.5504999999999995,0.567099999994042,0.5836999999880845,0.6004000000059619,0.6170000000000044]",,11,0,11,0,1,,,,
