key_resp_4.keys,key_resp_4.rt,身分證字號,date,expName,psychopyVersion,OS,frameRate,mouse_2.x,mouse_2.y,mouse_2.leftButton,mouse_2.midButton,mouse_2.rightButton,mouse_2.time,cont.keys,cont.rt,retry_testing.thisRepN,retry_testing.thisTrialN,retry_testing.thisN,retry_testing.thisIndex,retry_testing.ran,key_resp.keys,key_resp.rt,key_resp_3.keys,key_resp_3.rt,from,to,w,a,sequence_loop.thisN,mouse.x,mouse.y,mouse.leftButton,mouse.midButton,mouse.rightButton,mouse.time,key_resp_2.keys,trial_loop.thisRepN,trial_loop.thisTrialN,trial_loop.thisN,trial_loop.thisIndex,trial_loop.ran,sequence_loop.thisRepN,sequence_loop.thisTrialN,sequence_loop.thisIndex,sequence_loop.ran
return,3.2298,A123456789,2022-11-28_04h48.03.556,GoFitts,2022.2.4,Win32,76.09191904,,,,,,,,,,,,,,,,,,,,,,,,,,,,,,,,,,,,,,
,,A123456789,2022-11-28_04h48.03.556,GoFitts,2022.2.4,Win32,76.09191904,"[171,171,171,171,171,170,170,170,170,170,171,172,172,172,172,172,172,173,173,173,173,173,173,173,173,173,173,173,173,173,173,173,173,173,173,173,173,176,186,201,212,222,231,241,252,262,271,278,286,292,298,302,304,307,308,310,312,315,318,322,323,325,326,327,328,331,331,332,334,334,335,336,337,338,338,339,339,340,340,340,341,341,342,343,343,343,344,344,344,344,344,343,338,324,303,275,239,198,163,121,96,70,53,43,37,33,29,26,24,21,19,16,14,12,11,11,10,9,7,5,4,3,2,2,2,2,2,2,2,2,2,2,2,2,2,2,2,2,2,1,-1,-3,-6,-12,-20,-28,-36,-47,-59,-78,-99,-126,-158,-187,-210,-233,-251,-265,-274,-281,-286,-290,-293,-297,-301,-305,-310,-316,-321,-325,-330,-333,-338,-341,-343,-346,-348,-350,-350,-350,-350,-350,-350,-350,-347,-340,-326,-311,-282,-239,-206,-181,-146,-123,-105,-95,-88,-82,-78,-74,-70,-67,-65,-63,-62,-61,-58,-55,-50,-47,-42,-38,-32,-27,-22,-17,-8,-3]","[2,2,2,2,2,4,2,2,2,2,1,2,2,2,2,1,0,-2,-3,-5,-6,-6,-6,-6,-6,-6,-6,-6,-6,-6,-6,-6,-6,-6,-6,-6,-6,-7,-7,-7,-7,-6,-4,-1,3,5,8,10,12,14,15,16,17,17,17,17,17,17,17,17,16,16,15,15,13,13,12,12,11,11,10,9,9,8,8,7,7,7,7,6,5,5,4,4,4,4,4,4,4,4,4,4,5,14,26,46,71,98,126,155,175,194,209,221,230,238,245,253,259,266,272,279,283,288,292,295,299,305,311,319,324,332,338,342,345,347,349,349,349,349,349,349,349,349,349,341,333,312,293,256,214,171,127,92,65,45,33,26,21,20,20,20,22,22,22,22,21,21,19,18,17,16,14,13,12,11,9,8,8,7,6,6,6,5,5,5,5,5,5,5,5,5,5,3,-2,-10,-22,-36,-62,-95,-124,-149,-181,-204,-224,-238,-249,-257,-263,-272,-276,-281,-284,-287,-289,-291,-295,-298,-303,-306,-309,-312,-315,-319,-323,-326,-331,-335]","[0,0,0,0,0,0,0,0,0,0,0,0,0,0,0,0,0,0,0,0,0,0,0,0,0,0,0,0,0,0,0,0,0,0,0,0,0,0,0,0,0,0,0,0,0,0,0,0,0,0,0,0,0,0,0,0,0,0,0,0,0,0,0,0,0,0,0,0,0,0,0,0,0,0,0,0,0,0,0,0,0,0,0,0,0,0,0,0,0,0,0,0,0,0,0,0,0,0,0,0,0,0,0,0,0,0,0,0,0,0,0,0,0,0,0,0,0,0,0,0,0,0,0,0,0,0,0,0,0,0,0,0,0,0,0,0,0,0,0,0,0,0,0,0,0,0,0,0,0,0,0,0,0,0,0,0,0,0,0,0,0,0,0,0,0,0,0,0,0,0,0,0,0,0,0,0,0,0,0,0,0,0,0,0,0,0,0,0,0,0,0,0,0,0,0,0,0,0,0,0,0,0,0,0,0,0,0,0,0,0,0,0,0,0,0,0,0,0]","[0,0,0,0,0,0,0,0,0,0,0,0,0,0,0,0,0,0,0,0,0,0,0,0,0,0,0,0,0,0,0,0,0,0,0,0,0,0,0,0,0,0,0,0,0,0,0,0,0,0,0,0,0,0,0,0,0,0,0,0,0,0,0,0,0,0,0,0,0,0,0,0,0,0,0,0,0,0,0,0,0,0,0,0,0,0,0,0,0,0,0,0,0,0,0,0,0,0,0,0,0,0,0,0,0,0,0,0,0,0,0,0,0,0,0,0,0,0,0,0,0,0,0,0,0,0,0,0,0,0,0,0,0,0,0,0,0,0,0,0,0,0,0,0,0,0,0,0,0,0,0,0,0,0,0,0,0,0,0,0,0,0,0,0,0,0,0,0,0,0,0,0,0,0,0,0,0,0,0,0,0,0,0,0,0,0,0,0,0,0,0,0,0,0,0,0,0,0,0,0,0,0,0,0,0,0,0,0,0,0,0,0,0,0,0,0,0,0]","[0,0,0,0,0,0,0,0,0,0,0,0,0,0,0,0,0,0,0,0,0,0,0,0,0,0,0,0,0,0,0,0,0,0,0,0,0,0,0,0,0,0,0,0,0,0,0,0,0,0,0,0,0,0,0,0,0,0,0,0,0,0,0,0,0,0,0,0,0,0,0,0,0,0,0,0,0,0,0,0,0,0,0,0,0,0,0,0,0,0,0,0,0,0,0,0,0,0,0,0,0,0,0,0,0,0,0,0,0,0,0,0,0,0,0,0,0,0,0,0,0,0,0,0,0,0,0,0,0,0,0,0,0,0,0,0,0,0,0,0,0,0,0,0,0,0,0,0,0,0,0,0,0,0,0,0,0,0,0,0,0,0,0,0,0,0,0,0,0,0,0,0,0,0,0,0,0,0,0,0,0,0,0,0,0,0,0,0,0,0,0,0,0,0,0,0,0,0,0,0,0,0,0,0,0,0,0,0,0,0,0,0,0,0,0,0,0,0]","[0.0019000000059605782,0.007900000005960806,0.01940000000596065,0.03330000001192168,0.046499999999999986,0.059600000008941834,0.07320000000298066,0.08640000000596082,0.09999999999999964,0.11299999999999955,0.12690000000596058,0.14000000000000057,0.15320000000298073,0.16650000000000098,0.17950000000000088,0.1929000000059613,0.20640000000596004,0.21980000001192046,0.2332000000029808,0.24640000000596096,0.2598000000119214,0.27320000000297995,0.2864000000059601,0.2999000000059606,0.3129000000059605,0.3266000000089413,0.33980000001192145,0.35280000001192136,0.36670000000298053,0.37970000000298043,0.3929000000059606,0.4067000000029797,0.4195000000000011,0.4329000000059615,0.44650000000000034,0.45950000000000024,0.47300000000000075,0.48670000000297975,0.49960000000894134,0.5132000000029802,0.5263000000119202,0.5399000000059591,0.5529000000059607,0.5664000000059612,0.5799000000059618,0.593200000002982,0.6066000000089407,0.6198000000119226,0.6342000000029788,0.6478000000119213,0.6614000000059601,0.6749999999999989,0.6873000000119216,0.699300000011922,0.7129000000059609,0.7278000000119196,0.7408000000119213,0.75290000000596,0.767600000008942,0.7809000000059623,0.7945000000000011,0.8086000000089424,0.8206000000089393,0.8344000000059619,0.8484999999999996,0.8619000000059618,0.8728000000119227,0.8888000000119209,0.9017000000029807,0.9152000000029812,0.9277000000029805,0.9414999999999996,0.9544000000059594,0.9685000000000006,0.9806000000089394,0.9955000000000016,1.007500000000002,1.0213000000119212,1.034200000002981,1.0475000000000012,1.0595000000000017,1.0744000000059604,1.0875000000000004,1.1016000000089416,1.114100000008941,1.1262000000029797,1.141,1.154900000005961,1.1683000000119197,1.1815000000000015,1.1944000000059614,1.208600000008941,1.2193000000119216,1.2337000000029814,1.2473000000119203,1.2611000000089394,1.2742000000029794,1.2876000000089416,1.2991000000089397,1.3140000000000018,1.3274999999999988,1.3408000000119227,1.354000000000001,1.3674000000059596,1.3807000000029799,1.3927000000029803,1.4060000000000006,1.4206000000089407,1.4342000000029795,1.4474999999999998,1.4607000000029817,1.4741000000089404,1.4874000000059606,1.5009000000059611,1.5142000000029814,1.5273000000119215,1.5409000000059603,1.5543000000119225,1.567700000002981,1.5808000000119211,1.5928000000119216,1.6058000000119197,1.6217000000029795,1.634400000005959,1.6479000000059596,1.6611000000089415,1.6744000000059618,1.6859000000059599,1.7011000000089407,1.7127000000029806,1.7278000000119196,1.7393000000119212,1.7526000000089414,1.7678000000119223,1.7794000000059622,1.794500000000001,1.8059999999999992,1.821300000011922,1.8325000000000014,1.8473000000119217,1.8609999999999989,1.8744999999999994,1.8878000000119197,1.9009000000059597,1.914300000011922,1.9276000000089422,1.9410000000000007,1.9544000000059594,1.9677000000029796,1.9811000000089418,1.994400000005962,2.0077000000029823,2.0209000000059607,2.0344999999999995,2.0477000000029815,2.06090000000596,2.0744999999999987,2.0877000000029806,2.1009000000059626,2.1144000000059595,2.12790000000596,2.1409000000059617,2.154400000005962,2.167700000002979,2.180999999999999,2.192500000000001,2.207900000005962,2.22090000000596,2.235600000008942,2.245900000005962,2.262300000011921,2.272499999999999,2.289300000011922,2.3025,2.315500000000002,2.3288000000119222,2.3391000000089424,2.3559000000059616,2.3689000000059597,2.37920000000298,2.3957000000029804,2.4091000000089426,2.419200000002979,2.4357000000029796,2.449100000008942,2.4625000000000004,2.4757000000029823,2.4859000000059606,2.499400000005961,2.5156000000089396,2.52890000000596,2.5391000000089416,2.5558000000119225,2.5689000000059625,2.582100000008941,2.5957000000029797,2.6079999999999988,2.62190000000596,2.6327000000029823,2.648900000005961,2.662200000002981,2.6755000000000013,2.6888000000119217,2.702100000008942,2.7156000000089424,2.726000000000001,2.7424000000059596,2.7526000000089414,2.769,2.782200000002982,2.7956000000089407,2.808900000005961,2.82270000000298,2.835900000005962,2.8491000000089404,2.859300000011922,2.8754000000059623,2.889000000000001]",return,2.1216,0,0,0,0,1,,,,,,,,,,,,,,,,,,,,,,,,,
,,A123456789,2022-11-28_04h48.03.556,GoFitts,2022.2.4,Win32,76.09191904,,,,,,,,,,,,,,return,1.8128,,,,,,,,,,,,,,,,,,,,,,,
,,A123456789,2022-11-28_04h48.03.556,GoFitts,2022.2.4,Win32,76.09191904,,,,,,,,,,,,,,,,return,0.8084,"[130,-312]","[-305.67112522931427,-64.97240338054971]",25.5,625,0,"[130,130,130,130,130,130,130,130,130,130,129,128,128,128,127,127,126,125,124,123,122,121,120,118,114,104,91,69,40,12,-38,-77,-113,-151,-180,-204,-222,-240,-252,-264,-272,-278,-281,-283,-285,-285,-287,-288,-290,-291,-292,-292,-292,-292,-293,-293,-294,-296,-297,-299]","[-312,-312,-312,-312,-312,-312,-312,-312,-312,-312,-312,-312,-312,-312,-311,-311,-311,-311,-309,-308,-307,-305,-304,-303,-300,-294,-285,-270,-250,-231,-194,-168,-142,-116,-97,-82,-72,-63,-56,-50,-47,-45,-44,-43,-43,-42,-41,-41,-40,-40,-40,-40,-40,-42,-44,-47,-50,-52,-54,-55]","[0,0,0,0,0,0,0,0,0,0,0,0,0,0,0,0,0,0,0,0,0,0,0,0,0,0,0,0,0,0,0,0,0,0,0,0,0,0,0,0,0,0,0,0,0,0,0,0,0,0,0,0,0,0,0,0,0,0,0,0]","[0,0,0,0,0,0,0,0,0,0,0,0,0,0,0,0,0,0,0,0,0,0,0,0,0,0,0,0,0,0,0,0,0,0,0,0,0,0,0,0,0,0,0,0,0,0,0,0,0,0,0,0,0,0,0,0,0,0,0,0]","[0,0,0,0,0,0,0,0,0,0,0,0,0,0,0,0,0,0,0,0,0,0,0,0,0,0,0,0,0,0,0,0,0,0,0,0,0,0,0,0,0,0,0,0,0,0,0,0,0,0,0,0,0,0,0,0,0,0,0,0]","[0.0013999999910581096,0.015999999999998238,0.02559999999403928,0.041699999988079384,0.052299999997018176,0.06919999998807924,0.07900000000000063,0.09509999999404073,0.10879999999701795,0.11879999999701951,0.13239999999105834,0.1485999999940404,0.15879999999701866,0.17229999999701917,0.18569999998807774,0.19909999999403993,0.2153999999910603,0.22859999999403868,0.24169999998807867,0.25209999999404076,0.26539999999105746,0.28179999999701977,0.29229999999702017,0.30539999999106016,0.32159999999403865,0.33509999999403917,0.34819999998807916,0.3615999999940378,0.3750999999940383,0.3855000000000004,0.4015999999940405,0.4147999999970189,0.42809999999403914,0.44169999998807796,0.4549999999999983,0.46819999998808015,0.48139999999105854,0.49479999999702073,0.5082999999970177,0.5214999999999996,0.5348999999910582,0.5482999999970204,0.5614999999999988,0.5748999999910573,0.588000000000001,0.6013999999910595,0.6150999999940403,0.6283999999910606,0.6416999999880773,0.6551999999880778,0.6684999999999981,0.6814999999999998,0.6950999999940386,0.7083999999910588,0.7216999999880791,0.7349999999999994,0.7484999999999999,0.7615999999940399,0.7748999999910602,0.785499999999999]",,0,0,0,0,1,,,,
,,A123456789,2022-11-28_04h48.03.556,GoFitts,2022.2.4,Win32,76.09191904,,,,,,,,,,,,,,,,,,"[-305.67112522931427,-64.97240338054971]","[285.4829555133128,127.10520096118755]",25.5,625,0,"[-299,-300,-300,-301,-302,-302,-302,-302,-302,-302,-302,-302,-302,-302,-300,-287,-267,-237,-193,-130,-67,-13,64,117,152,177,195,202,206,209,211,213,215,217,220,222,224,226,228,231,235,239,246,253,260,265,269,273,275]","[-55,-56,-58,-58,-58,-58,-58,-58,-58,-58,-58,-58,-58,-58,-57,-51,-41,-29,-14,5,25,38,50,59,64,68,71,75,78,79,82,85,87,90,95,97,100,103,105,108,112,115,119,122,125,127,128,130,130]","[0,0,0,0,0,0,0,0,0,0,0,0,0,0,0,0,0,0,0,0,0,0,0,0,0,0,0,0,0,0,0,0,0,0,0,0,0,0,0,0,0,0,0,0,0,0,0,0,0]","[0,0,0,0,0,0,0,0,0,0,0,0,0,0,0,0,0,0,0,0,0,0,0,0,0,0,0,0,0,0,0,0,0,0,0,0,0,0,0,0,0,0,0,0,0,0,0,0,0]","[0,0,0,0,0,0,0,0,0,0,0,0,0,0,0,0,0,0,0,0,0,0,0,0,0,0,0,0,0,0,0,0,0,0,0,0,0,0,0,0,0,0,0,0,0,0,0,0,0]","[0.00029999999701857405,0.015999999999998238,0.026499999999998636,0.042700000002977134,0.05289999999105888,0.06939999999105595,0.07949999999999946,0.09289999999105802,0.1059999999999981,0.11970000000297887,0.13299999999999912,0.14659999999403794,0.16270000000297813,0.17329999999701684,0.18649999999999878,0.20270000000297728,0.21579999999701727,0.22959999999403635,0.24229999999701946,0.2558999999910583,0.26899999999999835,0.2797999999970173,0.2960999999940377,0.3089999999999975,0.32239999999105606,0.33579999999701826,0.34949999999999903,0.36239999999105876,0.3757000000029791,0.38909999999403766,0.4022999999970196,0.41579999999701656,0.42929999999701707,0.442499999999999,0.4559999999999995,0.46629999999701965,0.48259999999403647,0.4958999999910567,0.509200000002977,0.5228999999910577,0.5357999999970176,0.5492000000029797,0.5625,0.5758999999910586,0.5892000000029789,0.6025999999940375,0.6128999999910576,0.6289999999999978,0.642299999997018]",,1,0,1,0,1,,,,
,,A123456789,2022-11-28_04h48.03.556,GoFitts,2022.2.4,Win32,76.09191904,,,,,,,,,,,,,,,,,,"[285.4829555133128,127.10520096118755]","[-252.81781074217108,-183.68289134139783]",25.5,625,0,"[275,275,275,275,275,275,275,275,275,275,272,264,257,243,227,205,177,139,98,53,3,-39,-78,-108,-130,-144,-163,-175,-184,-195,-203,-213,-222,-229,-236,-242]","[130,130,130,130,130,130,130,130,130,130,129,125,120,113,101,87,70,48,22,-6,-34,-61,-85,-104,-118,-125,-137,-144,-150,-157,-163,-167,-171,-175,-177,-179]","[0,0,0,0,0,0,0,0,0,0,0,0,0,0,0,0,0,0,0,0,0,0,0,0,0,0,0,0,0,0,0,0,0,0,0,0]","[0,0,0,0,0,0,0,0,0,0,0,0,0,0,0,0,0,0,0,0,0,0,0,0,0,0,0,0,0,0,0,0,0,0,0,0]","[0,0,0,0,0,0,0,0,0,0,0,0,0,0,0,0,0,0,0,0,0,0,0,0,0,0,0,0,0,0,0,0,0,0,0,0]","[0.00029999999701857405,0.013299999997020251,0.023899999991058962,0.0370999999940409,0.05059999999403786,0.06400000000000006,0.08009999999404016,0.09059999999404056,0.10620000000298191,0.120000000000001,0.13070000000298165,0.1467999999970182,0.1602000000029804,0.1733999999910587,0.18670000000297904,0.1999999999999993,0.21320000000298123,0.2265999999940398,0.23989999999106004,0.2532999999970187,0.26659999999403894,0.2798999999910592,0.2933999999910597,0.30670000000298003,0.3200000000000003,0.3302999999970204,0.3464999999999989,0.35999999999999943,0.373399999991058,0.3867999999970202,0.400399999991059,0.4134999999999991,0.42650000000000077,0.43989999999105933,0.45320000000297966,0.46659999999403823]",,2,0,2,0,1,,,,
,,A123456789,2022-11-28_04h48.03.556,GoFitts,2022.2.4,Win32,76.09191904,,,,,,,,,,,,,,,,,,"[-252.81781074217108,-183.68289134139783]","[209.1033144871432,232.2327579616857]",25.5,625,0,"[-242,-246,-248,-249,-250,-250,-251,-252,-254,-255,-255,-255,-255,-255,-255,-254,-249,-239,-230,-209,-172,-134,-98,-64,-17,5,29,49,57,63,68,72,76,81,86,92,98,104,111,117,126,135,145,154,165,173,179,184,188,190,192,194,196,198,199,200]","[-179,-182,-183,-183,-185,-185,-186,-186,-187,-188,-188,-188,-188,-188,-188,-187,-179,-167,-155,-131,-89,-42,6,44,87,107,128,144,152,159,166,171,176,179,182,185,188,190,192,194,197,200,202,205,207,210,213,215,218,218,220,221,221,222,224,225]","[0,0,0,0,0,0,0,0,0,0,0,0,0,0,0,0,0,0,0,0,0,0,0,0,0,0,0,0,0,0,0,0,0,0,0,0,0,0,0,0,0,0,0,0,0,0,0,0,0,0,0,0,0,0,0,0]","[0,0,0,0,0,0,0,0,0,0,0,0,0,0,0,0,0,0,0,0,0,0,0,0,0,0,0,0,0,0,0,0,0,0,0,0,0,0,0,0,0,0,0,0,0,0,0,0,0,0,0,0,0,0,0,0]","[0,0,0,0,0,0,0,0,0,0,0,0,0,0,0,0,0,0,0,0,0,0,0,0,0,0,0,0,0,0,0,0,0,0,0,0,0,0,0,0,0,0,0,0,0,0,0,0,0,0,0,0,0,0,0,0]","[0.00020000000298026066,0.013000000000001677,0.026299999997021928,0.03670000000298046,0.05020000000298097,0.06329999999702096,0.07709999999404005,0.09250000000000114,0.10659999999404235,0.11989999999105905,0.13309999999404099,0.14349999999999952,0.1565999999940395,0.17009999999404002,0.18359999999404053,0.19970000000298072,0.21300000000000097,0.22629999999702122,0.23689999999105993,0.2505999999940407,0.2660000000000018,0.2795999999940406,0.2930999999940411,0.30349999999999966,0.31950000000000145,0.3298999999910599,0.3432999999970221,0.35959999999404246,0.37289999999105916,0.3867999999970202,0.4008999999910614,0.4130999999940421,0.4263999999910588,0.43950000000000244,0.45309999999404127,0.46629999999701965,0.4795999999940399,0.4930000000000021,0.5063999999910607,0.5195000000000007,0.5328999999910593,0.5462999999970215,0.5597000000029801,0.5732000000029807,0.5865999999940392,0.5995000000000026,0.6129999999999995,0.6263999999910617,0.6395000000000017,0.6502000000029824,0.6662999999970225,0.6795000000000009,0.6902000000029815,0.7062000000029798,0.7197999999970222,0.7335999999940412]",,3,0,3,0,1,,,,
,,A123456789,2022-11-28_04h48.03.556,GoFitts,2022.2.4,Win32,76.09191904,,,,,,,,,,,,,,,,,,"[209.1033144871432,232.2327579616857]","[-156.25000000000014,-270.632938682637]",25.5,625,0,"[200,202,203,204,206,207,208,210,210,210,210,210,210,210,209,204,196,187,172,152,128,103,66,35,10,-21,-38,-56,-68,-79,-87,-94,-98,-102,-107,-111,-113,-118,-121,-124,-126,-129,-131,-133,-136,-137,-141,-144,-146,-148]","[225,225,227,227,229,230,231,231,231,231,231,231,231,231,231,225,216,205,187,159,127,86,37,-6,-40,-80,-105,-127,-145,-162,-174,-185,-195,-202,-209,-216,-221,-229,-234,-238,-243,-247,-250,-253,-256,-258,-260,-262,-263,-264]","[0,0,0,0,0,0,0,0,0,0,0,0,0,0,0,0,0,0,0,0,0,0,0,0,0,0,0,0,0,0,0,0,0,0,0,0,0,0,0,0,0,0,0,0,0,0,0,0,0,0]","[0,0,0,0,0,0,0,0,0,0,0,0,0,0,0,0,0,0,0,0,0,0,0,0,0,0,0,0,0,0,0,0,0,0,0,0,0,0,0,0,0,0,0,0,0,0,0,0,0,0]","[0,0,0,0,0,0,0,0,0,0,0,0,0,0,0,0,0,0,0,0,0,0,0,0,0,0,0,0,0,0,0,0,0,0,0,0,0,0,0,0,0,0,0,0,0,0,0,0,0,0]","[0.00029999999701857405,0.01270000000297955,0.0259999999999998,0.03929999999702005,0.049900000005958844,0.06609999999404081,0.0792999999970192,0.09250000000000114,0.1059999999999981,0.11899999999999977,0.13240000000595842,0.14570000000297867,0.15620000000297907,0.16970000000297958,0.18309999999403814,0.19920000000297833,0.21270000000297884,0.22550000000000026,0.23920000000298103,0.2525000000000013,0.2655999999940377,0.27909999999403823,0.29259999999403874,0.3057000000029788,0.31640000000595947,0.3324999999999996,0.3457999999970198,0.3590999999940401,0.3724000000059604,0.3859000000059609,0.3990999999940392,0.41249999999999787,0.4257000000029798,0.4392000000029803,0.4525999999940389,0.46570000000297895,0.47620000000297935,0.4924999999999997,0.5059000000059584,0.5162000000029785,0.5324000000059605,0.5459999999999994,0.5590999999940394,0.5725999999940399,0.5859000000059602,0.5962000000029803,0.6129000000059612,0.6259000000059594,0.6389999999999993,0.6525999999940382]",,4,0,4,0,1,,,,
,,A123456789,2022-11-28_04h48.03.556,GoFitts,2022.2.4,Win32,76.09191904,,,,,,,,,,,,,,,,,,"[-156.25000000000014,-270.632938682637]","[96.56781074217108,297.2051613422355]",25.5,625,0,"[-148,-149,-150,-151,-152,-152,-152,-152,-152,-152,-152,-152,-151,-142,-126,-101,-78,-62,-32,-8,11,27,37,43,50,55,58,61,66,72,77,81,85]","[-264,-266,-266,-267,-267,-268,-268,-268,-268,-268,-268,-268,-264,-246,-213,-156,-87,-34,56,119,167,208,238,254,272,282,289,294,297,300,301,302,302]","[0,0,0,0,0,0,0,0,0,0,0,0,0,0,0,0,0,0,0,0,0,0,0,0,0,0,0,0,0,0,0,0,0]","[0,0,0,0,0,0,0,0,0,0,0,0,0,0,0,0,0,0,0,0,0,0,0,0,0,0,0,0,0,0,0,0,0]","[0,0,0,0,0,0,0,0,0,0,0,0,0,0,0,0,0,0,0,0,0,0,0,0,0,0,0,0,0,0,0,0,0]","[0.00020000000298026066,0.016500000000000625,0.026400000005960322,0.03690000000596072,0.050299999997019285,0.06350000000000122,0.07700000000000173,0.09250000000000114,0.10370000000298063,0.11700000000000088,0.1305000000000014,0.14679999999702176,0.15690000000596172,0.17320000000298208,0.18650000000000233,0.19979999999701903,0.2131000000089429,0.2236000000089433,0.23970000000297986,0.2530000000000001,0.2665000000000006,0.2797999999970209,0.2931000000089412,0.3036000000089416,0.31990000000596197,0.3334000000059625,0.34610000000894203,0.35670000000298074,0.3704000000059615,0.38660000000894,0.40129999999702193,0.4131000000089422,0.4262999999970205]",,5,0,5,0,1,,,,
,,A123456789,2022-11-28_04h48.03.556,GoFitts,2022.2.4,Win32,76.09191904,,,,,,,,,,,,,,,,,,"[96.56781074217108,297.2051613422355]","[-32.66514477114195,-310.7880923025854]",25.5,625,0,"[85,88,91,94,95,95,95,95,95,95,95,95,95,95,95,95,90,79,66,47,27,7,-8,-24,-36,-42,-48,-50,-51,-51,-51,-51,-51,-51,-51,-51,-51,-50,-49,-47,-45,-44,-41,-39,-34,-30,-25,-23,-20,-18,-18,-18,-20,-20,-21,-23,-24,-25,-28,-31,-34,-38,-43,-48,-50,-49,-42,-37,-35,-34,-34,-34,-34,-34,-34,-34,-34,-34,-30,-25,-23,-23,-23,-21,-21,-18,-18,-18,-18,-18,-18,-18,-18,-19,-20,-20,-21]","[302,303,303,303,303,303,303,303,303,303,303,303,303,303,303,301,293,269,236,181,113,39,-23,-107,-161,-207,-238,-262,-280,-292,-302,-311,-318,-324,-332,-337,-341,-347,-351,-354,-356,-357,-357,-357,-356,-350,-342,-333,-324,-316,-309,-305,-303,-302,-301,-299,-296,-291,-283,-259,-228,-186,-126,-53,21,82,119,137,145,146,146,146,146,146,146,146,146,143,123,84,18,-40,-95,-146,-176,-224,-254,-275,-286,-296,-299,-301,-301,-304,-306,-308,-310]","[0,0,0,0,0,0,0,0,0,0,0,0,0,0,0,0,0,0,0,0,0,0,0,0,0,0,0,0,0,0,0,0,0,0,0,0,0,0,0,0,0,0,0,0,0,0,0,0,0,0,0,0,0,0,0,0,0,0,0,0,0,0,0,0,0,0,0,0,0,0,0,0,0,0,0,0,0,0,0,0,0,0,0,0,0,0,0,0,0,0,0,0,0,0,0,0,0]","[0,0,0,0,0,0,0,0,0,0,0,0,0,0,0,0,0,0,0,0,0,0,0,0,0,0,0,0,0,0,0,0,0,0,0,0,0,0,0,0,0,0,0,0,0,0,0,0,0,0,0,0,0,0,0,0,0,0,0,0,0,0,0,0,0,0,0,0,0,0,0,0,0,0,0,0,0,0,0,0,0,0,0,0,0,0,0,0,0,0,0,0,0,0,0,0,0]","[0,0,0,0,0,0,0,0,0,0,0,0,0,0,0,0,0,0,0,0,0,0,0,0,0,0,0,0,0,0,0,0,0,0,0,0,0,0,0,0,0,0,0,0,0,0,0,0,0,0,0,0,0,0,0,0,0,0,0,0,0,0,0,0,0,0,0,0,0,0,0,0,0,0,0,0,0,0,0,0,0,0,0,0,0,0,0,0,0,0,0,0,0,0,0,0,0]","[0.00029999999701857405,0.013299999997020251,0.026700000002978896,0.0398999999910572,0.05320000000297753,0.06359999999403954,0.07699999999999818,0.090599999994037,0.10670000000298074,0.11999999999999744,0.13049999999999784,0.14699999999999847,0.15709999999403834,0.17050000000000054,0.1838999999910591,0.197499999999998,0.21039999999105774,0.22670000000297819,0.2402000000029787,0.2532999999970187,0.2665000000000006,0.2797999999970173,0.2902000000029794,0.30670000000298003,0.3200999999940386,0.33339999999105885,0.34659999999403723,0.3598999999910575,0.3732999999970197,0.38659999999403993,0.39989999999105663,0.41329999999701883,0.4264999999999972,0.4400999999940396,0.453299999997018,0.46659999999403823,0.4772000000029806,0.493399999991059,0.5067000000029793,0.5197999999970193,0.533200000002978,0.5467999999970203,0.560200000002979,0.5734999999999992,0.5868999999910578,0.6000999999940397,0.6132999999970181,0.6267000000029803,0.6397000000029784,0.653099999994037,0.6667000000029795,0.6799999999999997,0.6932000000029781,0.7038999999910587,0.7168999999910568,0.7334999999999994,0.7468999999910579,0.759999999999998,0.7704999999999984,0.7865999999940385,0.7998999999910588,0.8122000000029779,0.8262000000029808,0.8400999999940382,0.8532999999970201,0.8664999999999985,0.8797999999970187,0.8932999999970193,0.9067000000029779,0.9199999999999982,0.9332999999970184,0.9467000000029806,0.9567999999970169,0.9702000000029791,0.9839999999999982,0.9972000000029801,1.0105000000000004,1.023899999991059,1.0372000000029793,1.0504999999999995,1.0665999999940396,1.0800999999940402,1.0934999999999988,1.1063999999910585,1.1174999999999997,1.133499999999998,1.1464999999999996,1.1600999999940385,1.1702000000029784,1.1867999999970174,1.1998999999910573,1.2133999999910579,1.223700000002978,1.2397000000029799,1.253399999991057,1.2638999999910574,1.2772999999970196]",,6,0,6,0,1,,,,
,,A123456789,2022-11-28_04h48.03.556,GoFitts,2022.2.4,Win32,76.09191904,,,,,,,,,,,,,,,,,,"[-32.66514477114195,-310.7880923025854]","[-32.66514477114167,310.7880923025854]",25.5,625,0,"[-21,-22,-22,-24,-24,-24,-26,-28,-30,-31,-33,-33,-34,-34,-34,-34,-34,-34,-33,-31,-31,-31,-31,-31,-32,-33,-36,-37,-40,-40,-41,-41,-41,-43,-44,-44,-44,-44,-44,-42,-41,-37,-35]","[-310,-313,-315,-316,-316,-316,-316,-316,-314,-312,-312,-310,-310,-307,-302,-289,-267,-231,-172,-87,-1,81,152,194,222,245,254,263,267,268,268,268,268,269,269,271,272,273,277,283,287,294,299]","[0,0,0,0,0,0,0,0,0,0,0,0,0,0,0,0,0,0,0,0,0,0,0,0,0,0,0,0,0,0,0,0,0,0,0,0,0,0,0,0,0,0,0]","[0,0,0,0,0,0,0,0,0,0,0,0,0,0,0,0,0,0,0,0,0,0,0,0,0,0,0,0,0,0,0,0,0,0,0,0,0,0,0,0,0,0,0]","[0,0,0,0,0,0,0,0,0,0,0,0,0,0,0,0,0,0,0,0,0,0,0,0,0,0,0,0,0,0,0,0,0,0,0,0,0,0,0,0,0,0,0]","[0.00020000000298026066,0.0167999999970192,0.029599999994037063,0.04270000000298069,0.05289999999105888,0.06899999999999906,0.07970000000297972,0.09570000000297796,0.10939999999105865,0.11959999999403692,0.13279999999701886,0.14629999999701937,0.16000000000000014,0.1732999999970204,0.18639999999105683,0.20239999999105862,0.21499999999999986,0.22879999999701894,0.24229999999701946,0.2558999999910583,0.2692000000029786,0.2822999999970186,0.2957999999970191,0.3092999999970196,0.32279999999702014,0.3358999999910566,0.34589999999105814,0.36229999999702045,0.3757000000029791,0.38909999999403766,0.39959999999403806,0.41559999999403985,0.4262999999970205,0.4395999999940372,0.45609999999403783,0.46929999999701977,0.48259999999404,0.4932000000029788,0.5094999999999992,0.5223999999910589,0.5329999999999977,0.5492999999970181,0.5622999999970197]",,7,0,7,0,1,,,,
,,A123456789,2022-11-28_04h48.03.556,GoFitts,2022.2.4,Win32,76.09191904,,,,,,,,,,,,,,,,,,"[-32.66514477114167,310.7880923025854]","[96.567810742171,-297.2051613422355]",25.5,625,0,"[-35,-33,-31,-30,-27,-27,-27,-27,-27,-28,-32,-36,-40,-40,-38,-32,-29,-16,-5,8,28,45,57,64,68,68,69,71,73,75,78,79,82,85,90,94,94,94,94,91]","[299,305,309,312,312,312,312,312,312,310,305,291,269,239,173,99,28,-80,-167,-237,-311,-361,-388,-401,-405,-405,-405,-405,-405,-402,-398,-393,-387,-377,-362,-351,-339,-331,-318,-306]","[0,0,0,0,0,0,0,0,0,0,0,0,0,0,0,0,0,0,0,0,0,0,0,0,0,0,0,0,0,0,0,0,0,0,0,0,0,0,0,0]","[0,0,0,0,0,0,0,0,0,0,0,0,0,0,0,0,0,0,0,0,0,0,0,0,0,0,0,0,0,0,0,0,0,0,0,0,0,0,0,0]","[0,0,0,0,0,0,0,0,0,0,0,0,0,0,0,0,0,0,0,0,0,0,0,0,0,0,0,0,0,0,0,0,0,0,0,0,0,0,0,0]","[0.0004000000059605213,0.013200000002981938,0.026499999999998636,0.03970000000298057,0.050299999997019285,0.06690000000596186,0.07710000000894013,0.09320000000298023,0.10370000000298063,0.11710000000893928,0.1306000000089398,0.1467000000029799,0.15990000000596183,0.17040000000596223,0.18660000000894073,0.19979999999701903,0.21040000000596137,0.22660000000893987,0.23979999999702173,0.2504000000059605,0.26629999999702036,0.2797999999970209,0.2932999999970214,0.30640000000596146,0.31979999999702,0.3332000000029822,0.34360000000894075,0.35710000000894127,0.37349999999999994,0.3867999999970202,0.39990000000596027,0.4132000000029805,0.4237000000029809,0.43710000000893956,0.4534000000059599,0.46660000000894186,0.47979999999702017,0.49029999999702056,0.5037999999970211,0.5171000000089414]",,8,0,8,0,1,,,,
,,A123456789,2022-11-28_04h48.03.556,GoFitts,2022.2.4,Win32,76.09191904,,,,,,,,,,,,,,,,,,"[96.567810742171,-297.2051613422355]","[-156.24999999999994,270.6329386826371]",25.5,625,0,"[91,89,88,88,88,88,88,88,88,88,88,88,88,88,85,81,71,61,48,33,10,-18,-40,-64,-80,-89,-95,-100,-101,-101,-101,-101,-102,-103,-105,-107,-111,-115,-119,-125,-130,-136,-142,-146]","[-306,-295,-290,-287,-287,-287,-287,-287,-287,-287,-287,-287,-287,-287,-281,-272,-251,-222,-186,-143,-72,12,83,162,203,230,246,258,263,269,273,277,280,283,284,284,285,285,285,283,281,278,274,272]","[0,0,0,0,0,0,0,0,0,0,0,0,0,0,0,0,0,0,0,0,0,0,0,0,0,0,0,0,0,0,0,0,0,0,0,0,0,0,0,0,0,0,0,0]","[0,0,0,0,0,0,0,0,0,0,0,0,0,0,0,0,0,0,0,0,0,0,0,0,0,0,0,0,0,0,0,0,0,0,0,0,0,0,0,0,0,0,0,0]","[0,0,0,0,0,0,0,0,0,0,0,0,0,0,0,0,0,0,0,0,0,0,0,0,0,0,0,0,0,0,0,0,0,0,0,0,0,0,0,0,0,0,0,0]","[0.00020000000298026066,0.016099999994040104,0.02929999999702204,0.04239999999105848,0.05609999999403925,0.06639999999105939,0.082200000002981,0.09309999999404184,0.1065999999940388,0.12259999999404059,0.13339999999105956,0.14949999999999974,0.160099999994042,0.17320000000298208,0.18889999999106166,0.20259999999403888,0.2160999999940394,0.22939999999105964,0.24279999999702184,0.25570000000298165,0.2690999999940402,0.28259999999404073,0.292799999997019,0.3092000000029813,0.32250000000000156,0.3357999999970218,0.34920000000298046,0.36229999999702045,0.3760000000000012,0.3890999999940412,0.40249999999999986,0.41279999999702,0.4292000000029823,0.442499999999999,0.4558999999910611,0.4663999999910615,0.4820999999940412,0.49579999999702196,0.5063999999910607,0.5223999999910589,0.5330000000000013,0.5462000000029796,0.5623999999910616,0.5758999999910586]",,9,0,9,0,1,,,,
,,A123456789,2022-11-28_04h48.03.556,GoFitts,2022.2.4,Win32,76.09191904,,,,,,,,,,,,,,,,,,"[-156.24999999999994,270.6329386826371]","[209.10331448714328,-232.23275796168562]",25.5,625,0,"[-146,-149,-151,-152,-152,-152,-152,-152,-152,-152,-152,-152,-152,-152,-148,-140,-113,-79,-45,9,49,83,109,127,138,146,149,150,150,151,151,152,152,154,157,159,162,164,168,174,179,187,192,198]","[272,270,270,269,269,269,269,269,269,269,269,269,269,261,248,232,183,127,69,-14,-79,-130,-174,-203,-218,-230,-234,-235,-235,-235,-235,-235,-236,-236,-237,-238,-238,-238,-238,-238,-238,-238,-238,-238]","[0,0,0,0,0,0,0,0,0,0,0,0,0,0,0,0,0,0,0,0,0,0,0,0,0,0,0,0,0,0,0,0,0,0,0,0,0,0,0,0,0,0,0,0]","[0,0,0,0,0,0,0,0,0,0,0,0,0,0,0,0,0,0,0,0,0,0,0,0,0,0,0,0,0,0,0,0,0,0,0,0,0,0,0,0,0,0,0,0]","[0,0,0,0,0,0,0,0,0,0,0,0,0,0,0,0,0,0,0,0,0,0,0,0,0,0,0,0,0,0,0,0,0,0,0,0,0,0,0,0,0,0,0,0]","[0.00020000000298026066,0.013299999997020251,0.023399999991060128,0.03679999999701877,0.050700000002979806,0.06400000000000006,0.07949999999999946,0.09059999999404056,0.10650000000000048,0.11739999999105777,0.13359999999403982,0.1467000000029799,0.1572999999970186,0.17289999999105987,0.18649999999999878,0.19709999999404104,0.21320000000298123,0.22650000000000148,0.23689999999105993,0.2532000000029804,0.26629999999702036,0.2798999999910592,0.2932000000029795,0.3062999999970195,0.31700000000000017,0.33329999999702054,0.34629999999701866,0.35979999999701917,0.3732999999970197,0.38629999999702136,0.3997999999970183,0.410499999999999,0.4238999999910611,0.43970000000297915,0.45320000000297966,0.4664999999999999,0.47979999999702017,0.4903999999910589,0.5035999999940408,0.5192999999970205,0.5305,0.5463999999910598,0.5597999999970185,0.5732000000029807]",,10,0,10,0,1,,,,
,,A123456789,2022-11-28_04h48.03.556,GoFitts,2022.2.4,Win32,76.09191904,,,,,,,,,,,,,,,,,,"[209.10331448714328,-232.23275796168562]","[-252.81781074217105,183.6828913413979]",25.5,625,0,"[198,201,203,204,204,204,204,204,204,204,204,204,201,195,181,154,120,66,11,-29,-64,-90,-108,-128,-143,-155,-163,-169,-178,-183,-193,-201,-205,-214,-219,-225,-232,-238,-242]","[-238,-238,-237,-236,-236,-236,-236,-236,-236,-236,-236,-233,-226,-218,-198,-162,-117,-55,5,45,76,97,109,122,130,134,137,138,140,142,144,146,148,153,157,161,168,174,179]","[0,0,0,0,0,0,0,0,0,0,0,0,0,0,0,0,0,0,0,0,0,0,0,0,0,0,0,0,0,0,0,0,0,0,0,0,0,0,0]","[0,0,0,0,0,0,0,0,0,0,0,0,0,0,0,0,0,0,0,0,0,0,0,0,0,0,0,0,0,0,0,0,0,0,0,0,0,0,0]","[0,0,0,0,0,0,0,0,0,0,0,0,0,0,0,0,0,0,0,0,0,0,0,0,0,0,0,0,0,0,0,0,0,0,0,0,0,0,0]","[0.0003000000119186552,0.014200000002979607,0.026400000005960322,0.036999999999999034,0.0527000000029787,0.06360000000893962,0.07710000000894013,0.09299999999999997,0.10360000000893876,0.11749999999999972,0.1303000000119212,0.14649999999999963,0.15990000000595828,0.17030000001192036,0.18370000000297892,0.19990000000595742,0.21320000000297767,0.2263000000119213,0.23999999999999844,0.25220000000297915,0.2659000000059599,0.279700000002979,0.2919000000059597,0.30610000000893933,0.3198000000119201,0.3329999999999984,0.3464000000059606,0.3569999999999993,0.37299999999999756,0.38380000001192016,0.3998000000119184,0.41360000000894104,0.4233000000119205,0.43910000000893845,0.4531000000089378,0.4634999999999998,0.47930000001191786,0.49299999999999855,0.5061000000089386]",,11,0,11,0,1,,,,
,,A123456789,2022-11-28_04h48.03.556,GoFitts,2022.2.4,Win32,76.09191904,,,,,,,,,,,,,,,,,,"[-252.81781074217105,183.6828913413979]","[285.4829555133128,-127.10520096118755]",25.5,625,0,"[-242,-247,-251,-254,-257,-258,-259,-259,-259,-259,-259,-259,-259,-257,-251,-234,-209,-168,-115,-56,16,101,165,207,243,267,281,287]","[179,184,188,191,193,194,195,195,195,195,195,195,195,188,178,160,138,110,79,45,14,-25,-53,-73,-91,-104,-113,-117]","[0,0,0,0,0,0,0,0,0,0,0,0,0,0,0,0,0,0,0,0,0,0,0,0,0,0,0,0]","[0,0,0,0,0,0,0,0,0,0,0,0,0,0,0,0,0,0,0,0,0,0,0,0,0,0,0,0]","[0,0,0,0,0,0,0,0,0,0,0,0,0,0,0,0,0,0,0,0,0,0,0,0,0,0,0,0]","[0.00010000000894194727,0.013400000005958645,0.026499999999998636,0.03690000000596072,0.053400000005961346,0.06680000001191999,0.07980000001192167,0.09340000000596049,0.10380000001191902,0.11980000001192082,0.13340000000595964,0.14649999999999963,0.15690000000596172,0.1734000000059588,0.18640000000596046,0.19990000000596098,0.21310000000893936,0.22649999999999793,0.2398000000119218,0.2503000000119222,0.2636000000089389,0.27940000000596044,0.29330000001192147,0.3056000000089405,0.3194999999999979,0.3333000000119206,0.3467000000029792,0.35980000001191925]",,12,0,12,0,1,,,,
,,A123456789,2022-11-28_04h48.03.556,GoFitts,2022.2.4,Win32,76.09191904,,,,,,,,,,,,,,,,,,"[285.4829555133128,-127.10520096118755]","[-305.67112522931427,64.97240338054979]",25.5,625,0,"[287,290,292,293,295,297,298,299,299,299,300,301,301,301,301,301,301,301,300,288,268,233,171,105,30,-47,-113,-165,-208,-239,-258,-269,-277,-281,-285,-289,-292,-294,-297,-301]","[-117,-119,-121,-123,-125,-127,-128,-129,-130,-130,-131,-132,-132,-132,-132,-132,-132,-132,-131,-125,-115,-100,-80,-59,-41,-24,-11,1,13,20,26,29,32,34,36,39,42,45,49,54]","[0,0,0,0,0,0,0,0,0,0,0,0,0,0,0,0,0,0,0,0,0,0,0,0,0,0,0,0,0,0,0,0,0,0,0,0,0,0,0,0]","[0,0,0,0,0,0,0,0,0,0,0,0,0,0,0,0,0,0,0,0,0,0,0,0,0,0,0,0,0,0,0,0,0,0,0,0,0,0,0,0]","[0,0,0,0,0,0,0,0,0,0,0,0,0,0,0,0,0,0,0,0,0,0,0,0,0,0,0,0,0,0,0,0,0,0,0,0,0,0,0,0]","[0.00020000000298026066,0.013200000002978385,0.02639999999105669,0.03979999999701889,0.05020000000297742,0.06689999999105822,0.07970000000297972,0.09320000000298023,0.10350000000000037,0.11699999999999733,0.13370000000297821,0.14659999999403794,0.15679999999701977,0.17320000000297853,0.18379999999701724,0.19989999999105734,0.2104999999999997,0.22379999999701994,0.23699999999999832,0.253399999991057,0.2667000000029809,0.2797999999970173,0.2930999999940376,0.30670000000298003,0.31970000000297816,0.33320000000297867,0.34629999999701866,0.35979999999701917,0.3730999999940394,0.3872000000029807,0.4009999999999998,0.4134999999999991,0.4264999999999972,0.43979999999701747,0.453299999997018,0.46639999999105797,0.4770999999940386,0.490299999997017,0.5035999999940373,0.5199999999999996]",,13,0,13,0,1,,,,
,,A123456789,2022-11-28_04h48.03.556,GoFitts,2022.2.4,Win32,76.09191904,,,,,,,,,,,,,,,,,,"[-305.67112522931427,64.97240338054979]","[312.5,0]",25.5,625,0,"[-301,-303,-305,-306,-307,-309,-311,-313,-313,-314,-314,-314,-314,-314,-312,-303,-280,-247,-207,-133,-59,20,93,152,196,245,270,285,294,299,302,303,304,305,306,307,308,309,310,312,313,314,315,315,316,316]","[54,58,60,65,68,72,75,79,81,81,82,82,82,82,82,80,77,75,73,70,67,66,65,62,58,56,53,51,49,48,48,47,46,46,45,44,42,41,39,36,32,29,25,21,16,9]","[0,0,0,0,0,0,0,0,0,0,0,0,0,0,0,0,0,0,0,0,0,0,0,0,0,0,0,0,0,0,0,0,0,0,0,0,0,0,0,0,0,0,0,0,0,0]","[0,0,0,0,0,0,0,0,0,0,0,0,0,0,0,0,0,0,0,0,0,0,0,0,0,0,0,0,0,0,0,0,0,0,0,0,0,0,0,0,0,0,0,0,0,0]","[0,0,0,0,0,0,0,0,0,0,0,0,0,0,0,0,0,0,0,0,0,0,0,0,0,0,0,0,0,0,0,0,0,0,0,0,0,0,0,0,0,0,0,0,0,0]","[0.00029999999701857405,0.012799999997021416,0.023299999997021814,0.039599999994038626,0.05270000000298225,0.06640000000595947,0.07949999999999946,0.09299999999999997,0.10620000000298191,0.1194000000059603,0.129999999999999,0.1460000000000008,0.1565999999940395,0.16990000000595984,0.18359999999404053,0.19650000000000034,0.21300000000000097,0.2262000000029829,0.23659999999404135,0.25290000000595825,0.26620000000298205,0.279400000005964,0.2927000000029807,0.3059999999999974,0.3167000000029816,0.3329999999999984,0.34620000000298035,0.35949999999999704,0.372700000002979,0.3860000000000028,0.39659999999403794,0.41290000000596194,0.4260999999940367,0.439799999997021,0.45300000000000296,0.46629999999701965,0.47959999999404346,0.4930000000000021,0.5032999999970187,0.5187000000029798,0.5324000000059641,0.5432999999970178,0.5565999999940416,0.5699000000059584,0.583299999997017,0.5995999999940409]",,14,0,14,0,1,,,,
,,A123456789,2022-11-28_04h48.03.556,GoFitts,2022.2.4,Win32,76.09191904,,,,,,,,,,,,,,,,,,,,,,0,,,,,,,,,,,,,0,0,0,1
,,A123456789,2022-11-28_04h48.03.556,GoFitts,2022.2.4,Win32,76.09191904,,,,,,,,,,,,,,,,return,0.4667,"[-119,-13]","[56.87610154050297,-63.16731016557849]",77.8,170,1,"[-119,-119,-119,-119,-119,-119,-119,-119,-119,-119,-119,-119,-119,-119,-119,-118,-115,-113,-110,-108,-104,-99,-91,-80,-66,-55,-36,-20,-9,6,16,22]","[-13,-13,-13,-13,-13,-13,-13,-13,-13,-13,-13,-13,-13,-13,-13,-13,-13,-13,-12,-12,-12,-12,-14,-17,-20,-23,-29,-35,-40,-49,-55,-59]","[0,0,0,0,0,0,0,0,0,0,0,0,0,0,0,0,0,0,0,0,0,0,0,0,0,0,0,0,0,0,0,0]","[0,0,0,0,0,0,0,0,0,0,0,0,0,0,0,0,0,0,0,0,0,0,0,0,0,0,0,0,0,0,0,0]","[0,0,0,0,0,0,0,0,0,0,0,0,0,0,0,0,0,0,0,0,0,0,0,0,0,0,0,0,0,0,0,0]","[0.0010999999940395355,0.015500000000002956,0.02889999999106152,0.039199999988078105,0.05569999998807873,0.06559999999404198,0.0820999999940426,0.09239999999105919,0.1058999999910597,0.11909999999404164,0.13229999999702358,0.14869999998808225,0.16169999998808038,0.1720999999940389,0.18550000000000466,0.19900000000000517,0.21539999999106385,0.22589999999106425,0.2420999999940392,0.25550000000000495,0.26859999999403783,0.27909999999403823,0.2952999999970203,0.3085000000000022,0.3217999999970189,0.3325000000000031,0.348699999988078,0.36179999999701806,0.37229999999701846,0.3887999999970191,0.4017999999970243,0.4123999999910595]",,0,0,0,0,1,,,,
,,A123456789,2022-11-28_04h48.03.556,GoFitts,2022.2.4,Win32,76.09191904,,,,,,,,,,,,,,,,,,"[56.87610154050297,-63.16731016557849]","[-68.76644452187053,49.961746444860225]",77.8,170,1,"[22,30,36,39,42,46,47,49,49,49,49,49,49,49,45,37,25,10,-9,-29,-49,-66]","[-59,-66,-70,-72,-75,-78,-79,-79,-80,-80,-80,-80,-80,-80,-75,-66,-53,-36,-22,-5,8,20]","[0,0,0,0,0,0,0,0,0,0,0,0,0,0,0,0,0,0,0,0,0,0]","[0,0,0,0,0,0,0,0,0,0,0,0,0,0,0,0,0,0,0,0,0,0]","[0,0,0,0,0,0,0,0,0,0,0,0,0,0,0,0,0,0,0,0,0,0]","[0.00029999999701857405,0.015900000005956372,0.029400000005956883,0.03970000000298057,0.05309999999403914,0.06959999999403976,0.08249999999999602,0.0960999999940384,0.10959999999403891,0.11979999999702073,0.1362000000029795,0.14649999999999608,0.16290000000596194,0.1729999999999947,0.18940000000596058,0.20320000000297966,0.21600000000000108,0.22929999999701778,0.24290000000596024,0.2560000000000002,0.2690999999940402,0.28270000000297557]",,1,0,1,0,1,,,,
,,A123456789,2022-11-28_04h48.03.556,GoFitts,2022.2.4,Win32,76.09191904,,,,,,,,,,,,,,,,,,"[-68.76644452187053,49.961746444860225]","[77.65136389962109,-34.57261466144301]",77.8,170,1,"[-66,-79,-87,-92,-97,-99,-99,-99,-99,-96,-89,-72,-55,-18,12,36,62]","[20,31,36,40,43,45,45,45,45,43,38,28,18,-4,-22,-35,-48]","[0,0,0,0,0,0,0,0,0,0,0,0,0,0,0,0,0]","[0,0,0,0,0,0,0,0,0,0,0,0,0,0,0,0,0]","[0,0,0,0,0,0,0,0,0,0,0,0,0,0,0,0,0]","[0.00019999998807662678,0.012999999999998124,0.026299999997021928,0.038799999997017665,0.05259999999403675,0.06669999998808152,0.0799999999999983,0.09029999999702198,0.10359999999403868,0.11979999999702073,0.1303999999910559,0.14649999999999608,0.15699999999999648,0.17309999999403658,0.18639999999106038,0.19679999999701892,0.21029999999701943]",,2,0,2,0,1,,,,
,,A123456789,2022-11-28_04h48.03.556,GoFitts,2022.2.4,Win32,76.09191904,,,,,,,,,,,,,,,,,,"[77.65136389962109,-34.57261466144301]","[-83.14254606237348,17.672493719509543]",77.8,170,1,"[62,80,87,92,92,92,92,92,89,83,75,66,52,33,14,-5,-24,-39,-60]","[-48,-58,-62,-64,-65,-65,-65,-65,-63,-58,-52,-46,-40,-32,-24,-21,-18,-17,-13]","[0,0,0,0,0,0,0,0,0,0,0,0,0,0,0,0,0,0,0]","[0,0,0,0,0,0,0,0,0,0,0,0,0,0,0,0,0,0,0]","[0,0,0,0,0,0,0,0,0,0,0,0,0,0,0,0,0,0,0]","[0.0001999999880837322,0.016299999997023917,0.02619999998807998,0.03969999998808049,0.05589999999106254,0.06650000000000489,0.08019999998808203,0.0932999999970221,0.10669999998808066,0.12300000000000466,0.13609999999404465,0.14929999999701948,0.16250000000000142,0.17589999999105999,0.1893999999910605,0.20259999999404243,0.21579999999702437,0.22650000000000148,0.24269999998808345]",,3,0,3,0,1,,,,
,,A123456789,2022-11-28_04h48.03.556,GoFitts,2022.2.4,Win32,76.09191904,,,,,,,,,,,,,,,,,,"[-83.14254606237348,17.672493719509543]","[85,0]",77.8,170,1,"[-60,-71,-78,-81,-85,-85,-85,-85,-85,-84,-78,-69,-60,-36,-12,11,46,64]","[-13,-11,-9,-8,-6,-6,-6,-6,-6,-6,-5,-5,-2,0,2,2,4,5]","[0,0,0,0,0,0,0,0,0,0,0,0,0,0,0,0,0,0]","[0,0,0,0,0,0,0,0,0,0,0,0,0,0,0,0,0,0]","[0,0,0,0,0,0,0,0,0,0,0,0,0,0,0,0,0,0]","[0.00019999998807662678,0.012999999999998124,0.02639999999105669,0.03669999998808038,0.05300000000000438,0.06319999998807901,0.07679999999702147,0.09000000000000341,0.10600000000000165,0.11689999999106249,0.13189999999106305,0.14589999999105885,0.15669999998807782,0.17300000000000182,0.18619999998807657,0.19669999998807697,0.2126999999880823,0.22339999999105942]",,4,0,4,0,1,,,,
,,A123456789,2022-11-28_04h48.03.556,GoFitts,2022.2.4,Win32,76.09191904,,,,,,,,,,,,,,,,,,"[85,0]","[-83.14254606237348,-17.67249371950952]",77.8,170,1,"[64,87,97,101,102,102,102,101,98,90,79,54,34,0,-23,-46]","[5,5,5,5,5,5,5,5,5,3,2,-1,-4,-6,-9,-9]","[0,0,0,0,0,0,0,0,0,0,0,0,0,0,0,0]","[0,0,0,0,0,0,0,0,0,0,0,0,0,0,0,0]","[0,0,0,0,0,0,0,0,0,0,0,0,0,0,0,0]","[0.00029999999701857405,0.015999999999998238,0.029200000002980175,0.04270000000298069,0.05629999999701596,0.06979999999701647,0.07990000000595643,0.0960999999940384,0.10940000000595518,0.12279999999701374,0.13320000000297938,0.14940000000595433,0.15970000000297802,0.1760999999940367,0.18649999999999523,0.19979999999701903]",,5,0,5,0,1,,,,
,,A123456789,2022-11-28_04h48.03.556,GoFitts,2022.2.4,Win32,76.09191904,,,,,,,,,,,,,,,,,,"[-83.14254606237348,-17.67249371950952]","[77.65136389962107,34.57261466144301]",77.8,170,1,"[-46,-66,-74,-78,-78,-78,-78,-78,-78,-78,-78,-77,-70,-58,-47,-27,4,36,58]","[-9,-11,-11,-11,-11,-11,-11,-11,-11,-11,-11,-11,-11,-9,-5,0,6,11,14]","[0,0,0,0,0,0,0,0,0,0,0,0,0,0,0,0,0,0,0]","[0,0,0,0,0,0,0,0,0,0,0,0,0,0,0,0,0,0,0]","[0,0,0,0,0,0,0,0,0,0,0,0,0,0,0,0,0,0,0]","[0.00019999998807662678,0.016199999988074865,0.029799999997017323,0.04279999999701545,0.05629999999701596,0.06969999998807452,0.08019999998807492,0.09369999998807543,0.10959999999403891,0.12019999998807407,0.13359999999403271,0.1466999999880727,0.16309999999403857,0.17759999999403675,0.18649999999999523,0.1998999999910538,0.2133999999910543,0.22939999999105254,0.2427999999970183]",,6,0,6,0,1,,,,
,,A123456789,2022-11-28_04h48.03.556,GoFitts,2022.2.4,Win32,76.09191904,,,,,,,,,,,,,,,,,,"[77.65136389962107,34.57261466144301]","[-68.76644452187054,-49.96174644486021]",77.8,170,1,"[58,77,89,93,94,94,94,94,94,94,94,94,89,83,72,54,32,17,-2,-22,-33]","[14,16,18,20,21,22,22,23,23,23,23,23,20,16,8,-3,-17,-25,-36,-48,-54]","[0,0,0,0,0,0,0,0,0,0,0,0,0,0,0,0,0,0,0,0,0]","[0,0,0,0,0,0,0,0,0,0,0,0,0,0,0,0,0,0,0,0,0]","[0,0,0,0,0,0,0,0,0,0,0,0,0,0,0,0,0,0,0,0,0]","[0.0001999999880837322,0.01309999999403999,0.026499999999998636,0.03979999999702244,0.05329999999702295,0.06679999999702346,0.07979999999702159,0.0932999999970221,0.1065999999940388,0.11689999999106249,0.13309999999404454,0.14350000000000307,0.15909999999404079,0.17009999999404357,0.18619999998808368,0.1996999999880842,0.2131999999880776,0.22329999999702466,0.23669999998808322,0.253099999994042,0.26619999998808197]",,7,0,7,0,1,,,,
,,A123456789,2022-11-28_04h48.03.556,GoFitts,2022.2.4,Win32,76.09191904,,,,,,,,,,,,,,,,,,"[-68.76644452187054,-49.96174644486021]","[56.87610154050295,63.16731016557851]",77.8,170,1,"[-33,-40,-43,-44,-44,-44,-44,-43,-42,-39,-35,-30,-24,-18,-12,-5,1,9,14,18,20,20,20,20,20,20,20,20,19,13,7,1,-10,-22,-28,-31,-34,-35,-36,-36,-36,-36,-33,-27,-16,0,12,32,45,56]","[-54,-57,-59,-60,-60,-61,-61,-60,-57,-50,-43,-35,-24,-12,-1,10,20,31,39,44,46,48,48,48,48,48,48,44,37,26,13,0,-17,-32,-42,-47,-51,-54,-56,-57,-57,-57,-54,-48,-36,-23,-12,8,23,36]","[0,0,0,0,0,0,0,0,0,0,0,0,0,0,0,0,0,0,0,0,0,0,0,0,0,0,0,0,0,0,0,0,0,0,0,0,0,0,0,0,0,0,0,0,0,0,0,0,0,0]","[0,0,0,0,0,0,0,0,0,0,0,0,0,0,0,0,0,0,0,0,0,0,0,0,0,0,0,0,0,0,0,0,0,0,0,0,0,0,0,0,0,0,0,0,0,0,0,0,0,0]","[0,0,0,0,0,0,0,0,0,0,0,0,0,0,0,0,0,0,0,0,0,0,0,0,0,0,0,0,0,0,0,0,0,0,0,0,0,0,0,0,0,0,0,0,0,0,0,0,0,0]","[0.00029999999701857405,0.013100000008940071,0.026600000008940583,0.04029999999702483,0.05349999999999966,0.06690000000596541,0.08010000000894024,0.09029999999702198,0.10370000000298063,0.11920000000298359,0.13329999999702125,0.14660000000894513,0.15990000000596183,0.1732999999970204,0.18370000000298603,0.19720000000297944,0.2106000000089452,0.22390000000596189,0.24010000000894394,0.2535000000000025,0.26390000000596103,0.2801000000089431,0.2934000000059598,0.3039000000059602,0.31729999999701874,0.33360000000894274,0.3440000000000012,0.35999999999999943,0.3734000000059652,0.38700000000000045,0.4001000000089405,0.4104000000059642,0.4239000000059647,0.44000000000000483,0.4534000000059635,0.4667000000029802,0.47979999999702017,0.4905000000000044,0.5065000000000026,0.517100000008945,0.5337000000029803,0.5437999999970202,0.5601000000089442,0.5734000000059609,0.5867999999970195,0.5999000000059596,0.6105000000000018,0.626600000008942,0.6371000000089424,0.650500000000001]",,8,0,8,0,1,,,,
,,A123456789,2022-11-28_04h48.03.556,GoFitts,2022.2.4,Win32,76.09191904,,,,,,,,,,,,,,,,,,"[56.87610154050295,63.16731016557851]","[-42.500000000000036,-73.61215932167727]",77.8,170,1,"[56,65,66,67,67,67,64,59,51,45,31,19,10,1,-5,-11]","[36,45,47,47,47,47,45,40,30,20,0,-17,-32,-47,-59,-69]","[0,0,0,0,0,0,0,0,0,0,0,0,0,0,0,0]","[0,0,0,0,0,0,0,0,0,0,0,0,0,0,0,0]","[0,0,0,0,0,0,0,0,0,0,0,0,0,0,0,0]","[0.00009999999403476068,0.015900000005956372,0.029200000002980175,0.041599999994033965,0.05309999999403914,0.06659999999403965,0.07990000000595643,0.09550000000000125,0.10929999999702034,0.11970000000297887,0.13609999999403755,0.14929999999701948,0.16259999999403618,0.1760999999940367,0.18999999999999773,0.20340000000595637]",,9,0,9,0,1,,,,
,,A123456789,2022-11-28_04h48.03.556,GoFitts,2022.2.4,Win32,76.09191904,,,,,,,,,,,,,,,,,,"[-42.500000000000036,-73.61215932167727]","[26.266444521870532,80.83980388508805]",77.8,170,1,"[-11,-14,-17,-18,-20,-21,-21,-21,-21,-21,-21,-21,-17,-13,-8,-3,7,15]","[-69,-77,-81,-85,-86,-87,-87,-87,-88,-87,-81,-75,-61,-43,-23,-7,27,46]","[0,0,0,0,0,0,0,0,0,0,0,0,0,0,0,0,0,0]","[0,0,0,0,0,0,0,0,0,0,0,0,0,0,0,0,0,0]","[0,0,0,0,0,0,0,0,0,0,0,0,0,0,0,0,0,0]","[0.0007000000029862008,0.012599999994044708,0.025599999994042832,0.03900000000000148,0.05229999999702528,0.06589999999106055,0.07629999999702619,0.08920000000298245,0.10279999999702483,0.11899999999999977,0.13239999999106544,0.14279999999702397,0.15900000000000603,0.17229999999702272,0.18550000000000466,0.19600000000000506,0.21229999999702187,0.2255000000000038]",,10,0,10,0,1,,,,
,,A123456789,2022-11-28_04h48.03.556,GoFitts,2022.2.4,Win32,76.09191904,,,,,,,,,,,,,,,,,,"[26.266444521870532,80.83980388508805]","[-8.88491937775061,-84.53436110630322]",77.8,170,1,"[15,23,27,30,30,30,30,30,30,30,29,28,25,22,21,18,16]","[46,60,67,73,75,75,75,75,75,69,60,50,35,10,-9,-35,-55]","[0,0,0,0,0,0,0,0,0,0,0,0,0,0,0,0,0]","[0,0,0,0,0,0,0,0,0,0,0,0,0,0,0,0,0]","[0,0,0,0,0,0,0,0,0,0,0,0,0,0,0,0,0]","[0.0001999999880837322,0.013399999991058564,0.023899999991058962,0.039899999991064306,0.053199999988081004,0.0636999999880814,0.07989999999106345,0.09019999998808004,0.10359999999404579,0.12009999999403931,0.1333999999910631,0.14359999999404494,0.15700000000000358,0.17369999998808083,0.18389999999106266,0.1998999999910609,0.2131999999880847]",,11,0,11,0,1,,,,
,,A123456789,2022-11-28_04h48.03.556,GoFitts,2022.2.4,Win32,76.09191904,,,,,,,,,,,,,,,,,,"[-8.88491937775061,-84.53436110630322]","[-8.884919377750533,84.53436110630324]",77.8,170,1,"[16,15,15,15,15,15,15,15,15,15,15,16,18,19,20,19,18,14,12,8]","[-55,-71,-82,-90,-94,-99,-101,-101,-101,-101,-98,-90,-75,-57,-37,-14,10,37,48,61]","[0,0,0,0,0,0,0,0,0,0,0,0,0,0,0,0,0,0,0,0]","[0,0,0,0,0,0,0,0,0,0,0,0,0,0,0,0,0,0,0,0]","[0,0,0,0,0,0,0,0,0,0,0,0,0,0,0,0,0,0,0,0]","[0.0002999999970256795,0.013299999997023804,0.02650000000000574,0.03970000000298057,0.0503999999910647,0.0667000000029816,0.07709999999404005,0.09289999999106158,0.10370000000298063,0.11679999999702062,0.1333999999910631,0.14370000000297978,0.16009999999404556,0.17339999999106226,0.18650000000000233,0.20000000000000284,0.2133999999910614,0.2295000000000016,0.23989999999106004,0.2532000000029839]",,12,0,12,0,1,,,,
,,A123456789,2022-11-28_04h48.03.556,GoFitts,2022.2.4,Win32,76.09191904,,,,,,,,,,,,,,,,,,"[-8.884919377750533,84.53436110630324]","[26.266444521870515,-80.83980388508806]",77.8,170,1,"[8,3,1,-2,-4,-7,-10,-11,-12,-14,-14,-13,-10,-4,4,16,24,34]","[61,69,73,74,74,75,75,75,75,71,67,60,48,32,12,-14,-38,-57]","[0,0,0,0,0,0,0,0,0,0,0,0,0,0,0,0,0,0]","[0,0,0,0,0,0,0,0,0,0,0,0,0,0,0,0,0,0]","[0,0,0,0,0,0,0,0,0,0,0,0,0,0,0,0,0,0]","[0.00029999999701857405,0.013400000005958645,0.02640000000595677,0.03990000000595728,0.05320000000297398,0.06359999999403954,0.080200000002975,0.09359999999403357,0.10379999999701539,0.11999999999999744,0.13349999999999795,0.14359999999403783,0.15709999999403834,0.170499999999997,0.18390000000595563,0.19979999999701903,0.21329999999701954,0.22659999999403624]",,13,0,13,0,1,,,,
,,A123456789,2022-11-28_04h48.03.556,GoFitts,2022.2.4,Win32,76.09191904,,,,,,,,,,,,,,,,,,"[26.266444521870515,-80.83980388508806]","[-42.49999999999998,73.6121593216773]",77.8,170,1,"[34,41,44,47,50,50,50,50,50,50,50,50,50,50,48,47,44,41,37,25,12,-2,-17,-28,-41]","[-57,-76,-87,-96,-103,-108,-111,-111,-112,-112,-112,-112,-112,-112,-110,-107,-101,-93,-81,-59,-37,-16,8,22,41]","[0,0,0,0,0,0,0,0,0,0,0,0,0,0,0,0,0,0,0,0,0,0,0,0,0]","[0,0,0,0,0,0,0,0,0,0,0,0,0,0,0,0,0,0,0,0,0,0,0,0,0]","[0,0,0,0,0,0,0,0,0,0,0,0,0,0,0,0,0,0,0,0,0,0,0,0,0]","[0.00020000000297670795,0.013299999997016698,0.026600000008940583,0.03960000000893871,0.05320000000297398,0.06649999999999778,0.07979999999701448,0.09320000000298023,0.1067999999970155,0.11699999999999733,0.13320000000297938,0.1467000000029799,0.15679999999701977,0.1702000000029784,0.18379999999701369,0.19999999999999574,0.21320000000297767,0.2264000000059596,0.23720000000297858,0.25290000000595825,0.26660000000893547,0.27999999999999403,0.2934000000059598,0.3034000000059578,0.31979999999701647]",,14,0,14,0,1,,,,
,,A123456789,2022-11-28_04h48.03.556,GoFitts,2022.2.4,Win32,76.09191904,,,,,,,,,,,,,,,,,,,,,,1,,,,,,,,,,,,,1,0,0,1
,,A123456789,2022-11-28_04h48.03.556,GoFitts,2022.2.4,Win32,76.09191904,,,,,,,,,,,,,,,,return,0.3914,"[49,-77]","[50.21526158592892,-154.54668389796245]",60.5,325,2,"[49,49,48,47,46,46,45,44,43,41,40,39,39,37,35,33,30,28,27,26,25,23,23,28,33,38]","[-77,-77,-77,-77,-77,-77,-77,-77,-77,-77,-77,-77,-76,-76,-74,-73,-71,-69,-69,-69,-70,-75,-85,-101,-115,-128]","[0,0,0,0,0,0,0,0,0,0,0,0,0,0,0,0,0,0,0,0,0,0,0,0,0,0]","[0,0,0,0,0,0,0,0,0,0,0,0,0,0,0,0,0,0,0,0,0,0,0,0,0,0]","[0,0,0,0,0,0,0,0,0,0,0,0,0,0,0,0,0,0,0,0,0,0,0,0,0,0]","[0.00039999999106044015,0.018399999991061122,0.026000000000003354,0.03929999999702005,0.05589999999106254,0.06579999999701869,0.0792999999970192,0.09559999999404312,0.10609999999404351,0.12229999999701846,0.13569999998807702,0.1457999999970241,0.15919999998808265,0.17249999999999943,0.18879999999702335,0.20199999999999818,0.21539999999105675,0.22579999999702238,0.242299999997023,0.25289999999105817,0.2658999999910634,0.27909999999403823,0.292500000000004,0.30869999998807884,0.3222999999970213,0.3353999999910613]",,0,0,0,0,1,,,,
,,A123456789,2022-11-28_04h48.03.556,GoFitts,2022.2.4,Win32,76.09191904,,,,,,,,,,,,,,,,,,"[50.21526158592892,-154.54668389796245]","[-81.24999999999996,140.7291281149713]",60.5,325,2,"[38,45,49,54,58,60,63,64,66,66,66,67,67,67,65,59,50,30,6,-12,-28,-40,-47,-53,-58,-63,-69,-74,-81]","[-128,-139,-147,-157,-161,-164,-166,-166,-167,-167,-167,-167,-165,-160,-148,-127,-102,-57,-14,24,52,74,85,94,100,104,107,110,114]","[0,0,0,0,0,0,0,0,0,0,0,0,0,0,0,0,0,0,0,0,0,0,0,0,0,0,0,0,0]","[0,0,0,0,0,0,0,0,0,0,0,0,0,0,0,0,0,0,0,0,0,0,0,0,0,0,0,0,0]","[0,0,0,0,0,0,0,0,0,0,0,0,0,0,0,0,0,0,0,0,0,0,0,0,0,0,0,0,0]","[0.0002999999970256795,0.013299999997023804,0.023500000000005627,0.039500000000003865,0.05029999999702284,0.06359999999403954,0.08009999999404016,0.09029999999702198,0.10650000000000404,0.12000000000000455,0.13329999999702125,0.14400000000000546,0.16029999999702227,0.17029999999702028,0.18340000000596035,0.19929999999702375,0.21029999999701943,0.2267000000029853,0.23970000000298342,0.2530000000000001,0.2665999999940425,0.27970000000298256,0.2932000000029831,0.306400000005965,0.3197000000029817,0.3330999999940403,0.3465999999940408,0.3567999999970226,0.3730999999940394]",,1,0,1,0,1,,,,
,,A123456789,2022-11-28_04h48.03.556,GoFitts,2022.2.4,Win32,76.09191904,,,,,,,,,,,,,,,,,,"[-81.24999999999996,140.7291281149713]","[108.7337235333145,-120.76103414007653]",60.5,325,2,"[-81,-85,-88,-89,-89,-90,-90,-90,-89,-86,-83,-82,-80,-76,-67,-58,-43,-28,-10,9,24,45,56,66,71,76,81,84]","[114,116,119,120,122,123,123,124,124,126,128,128,128,126,120,111,91,65,33,-5,-32,-66,-86,-95,-99,-103,-104,-106]","[0,0,0,0,0,0,0,0,0,0,0,0,0,0,0,0,0,0,0,0,0,0,0,0,0,0,0,0]","[0,0,0,0,0,0,0,0,0,0,0,0,0,0,0,0,0,0,0,0,0,0,0,0,0,0,0,0]","[0,0,0,0,0,0,0,0,0,0,0,0,0,0,0,0,0,0,0,0,0,0,0,0,0,0,0,0]","[0.00019999998807662678,0.014199999988079526,0.026499999999998636,0.03679999999701522,0.05309999999403914,0.0636999999880743,0.07969999998807964,0.09039999999105675,0.10649999999999693,0.12009999999403931,0.13309999999403743,0.14379999999701454,0.1599999999999966,0.1732999999970204,0.18649999999999523,0.19689999999105368,0.21300000000000097,0.22629999999701766,0.23959999999403436,0.2530999999940349,0.26369999998807714,0.2797999999970173,0.2928999999910573,0.30659999999403453,0.31700000000000017,0.3329999999999984,0.3462999999970151,0.3595999999940389]",,2,0,2,0,1,,,,
,,A123456789,2022-11-28_04h48.03.556,GoFitts,2022.2.4,Win32,76.09191904,,,,,,,,,,,,,,,,,,"[108.7337235333145,-120.76103414007653]","[-131.46526158592894,95.51510349752691]",60.5,325,2,"[84,87,89,92,94,94,94,94,94,94,94,94,94,94,94,89,73,56,23,-12,-35,-68,-82,-87,-90,-90,-91,-91,-92,-94,-95,-99,-103,-105]","[-106,-106,-106,-107,-107,-107,-107,-107,-107,-107,-107,-107,-107,-107,-107,-102,-89,-76,-48,-22,0,31,51,61,68,71,73,75,76,76,78,80,83,85]","[0,0,0,0,0,0,0,0,0,0,0,0,0,0,0,0,0,0,0,0,0,0,0,0,0,0,0,0,0,0,0,0,0,0]","[0,0,0,0,0,0,0,0,0,0,0,0,0,0,0,0,0,0,0,0,0,0,0,0,0,0,0,0,0,0,0,0,0,0]","[0,0,0,0,0,0,0,0,0,0,0,0,0,0,0,0,0,0,0,0,0,0,0,0,0,0,0,0,0,0,0,0,0,0]","[0.00030000001192576065,0.013400000005965751,0.02360000000894047,0.03710000000894098,0.053600000008941606,0.06700000000000017,0.077200000002982,0.09350000000000591,0.10390000000596444,0.11720000000298114,0.133600000008947,0.1469000000059637,0.15750000000000597,0.17100000000000648,0.18440000000596513,0.19730000001192138,0.2134000000059615,0.2241000000089457,0.24010000000894394,0.25340000000596064,0.26390000000596103,0.2801000000089431,0.2934000000059669,0.3038000000119254,0.3200000000000003,0.3335000000000008,0.3470000000000013,0.3573000000119251,0.3736000000089419,0.38420000000298415,0.3973000000119242,0.4106000000089409,0.42690000000596484,0.4401000000089468]",,3,0,3,0,1,,,,
,,A123456789,2022-11-28_04h48.03.556,GoFitts,2022.2.4,Win32,76.09191904,,,,,,,,,,,,,,,,,,"[-131.46526158592894,95.51510349752691]","[148.45113686692267,-66.09470449981752]",60.5,325,2,"[-105,-106,-106,-106,-106,-106,-106,-106,-106,-106,-105,-101,-88,-73,-58,-31,-9,17,39,56,77,87,96,103,106,106,107,107,107,107,109,112,115,118,122]","[85,85,85,85,85,85,85,85,85,85,84,80,72,62,52,34,21,7,-7,-17,-29,-34,-39,-42,-43,-43,-44,-44,-44,-44,-45,-47,-49,-51,-53]","[0,0,0,0,0,0,0,0,0,0,0,0,0,0,0,0,0,0,0,0,0,0,0,0,0,0,0,0,0,0,0,0,0,0,0]","[0,0,0,0,0,0,0,0,0,0,0,0,0,0,0,0,0,0,0,0,0,0,0,0,0,0,0,0,0,0,0,0,0,0,0]","[0,0,0,0,0,0,0,0,0,0,0,0,0,0,0,0,0,0,0,0,0,0,0,0,0,0,0,0,0,0,0,0,0,0,0]","[0.00020000000298381337,0.013200000002981938,0.02670000000298245,0.037400000005959555,0.05329999999702295,0.06690000000596541,0.08010000000894024,0.09020000000298012,0.10670000000298074,0.11720000000298114,0.13070000000298165,0.14360000000894502,0.1592999999970246,0.17300000000000182,0.18370000000297892,0.19990000000596098,0.2131000000089429,0.2264000000059596,0.23979999999701818,0.2502999999970186,0.2665000000000006,0.2767999999970243,0.29040000000595967,0.3067000000029836,0.3197999999970236,0.3329999999999984,0.3437000000029826,0.3597999999970227,0.37320000000298137,0.38379999999702363,0.3999999999999986,0.41340000000596433,0.42670000000298103,0.439799999997021,0.45329999999702153]",,4,0,4,0,1,,,,
,,A123456789,2022-11-28_04h48.03.556,GoFitts,2022.2.4,Win32,76.09191904,,,,,,,,,,,,,,,,,,"[148.45113686692267,-66.09470449981752]","[-158.94898511924342,33.78564975788589]",60.5,325,2,"[122,123,123,123,124,124,124,124,124,124,124,124,124,124,116,97,74,55,19,-12,-40,-66,-85,-98,-112,-120,-124,-131,-135,-141]","[-53,-55,-56,-56,-56,-56,-56,-56,-56,-56,-56,-56,-56,-56,-54,-46,-37,-28,-12,3,17,29,38,45,51,54,56,57,57,57]","[0,0,0,0,0,0,0,0,0,0,0,0,0,0,0,0,0,0,0,0,0,0,0,0,0,0,0,0,0,0]","[0,0,0,0,0,0,0,0,0,0,0,0,0,0,0,0,0,0,0,0,0,0,0,0,0,0,0,0,0,0]","[0,0,0,0,0,0,0,0,0,0,0,0,0,0,0,0,0,0,0,0,0,0,0,0,0,0,0,0,0,0]","[0.00020000000297670795,0.013400000005958645,0.026499999999998636,0.036999999999999034,0.05099999999999483,0.06329999999701386,0.07720000000297489,0.09040000000595683,0.10379999999701539,0.1172999999970159,0.1306000000089398,0.1441000000089403,0.157400000005957,0.170499999999997,0.18370000000297892,0.19979999999701903,0.2129000000059591,0.2234000000059595,0.2367000000029762,0.2502000000029767,0.2634999999999934,0.27970000000297546,0.2929000000059574,0.3034000000059578,0.31960000000893984,0.33310000000894036,0.34340000000595694,0.3597999999970156,0.36999999999999744,0.38629999999701425]",,5,0,5,0,1,,,,
,,A123456789,2022-11-28_04h48.03.556,GoFitts,2022.2.4,Win32,76.09191904,,,,,,,,,,,,,,,,,,"[-158.94898511924342,33.78564975788589]","[162.5,0]",60.5,325,2,"[-141,-147,-154,-161,-165,-169,-171,-171,-171,-171,-171,-169,-163,-156,-142,-116,-73,-25,22,67,105,131,147]","[57,58,58,58,58,57,57,57,57,56,56,55,52,48,45,41,37,35,33,31,28,25,23]","[0,0,0,0,0,0,0,0,0,0,0,0,0,0,0,0,0,0,0,0,0,0,0]","[0,0,0,0,0,0,0,0,0,0,0,0,0,0,0,0,0,0,0,0,0,0,0]","[0,0,0,0,0,0,0,0,0,0,0,0,0,0,0,0,0,0,0,0,0,0,0]","[0.00020000000297670795,0.013100000008940071,0.026600000008940583,0.03970000000298057,0.05040000000595768,0.06679999999701636,0.07699999999999818,0.09329999999701499,0.10660000000893888,0.11990000000595558,0.13020000000297927,0.1467000000029799,0.15979999999701988,0.17040000000596223,0.18360000000893706,0.19690000000596086,0.21329999999701954,0.2264000000059596,0.23999999999999488,0.25310000000894206,0.26640000000595876,0.27970000000297546,0.2931000000089412]",,6,0,6,0,1,,,,
,,A123456789,2022-11-28_04h48.03.556,GoFitts,2022.2.4,Win32,76.09191904,,,,,,,,,,,,,,,,,,"[162.5,0]","[-158.94898511924342,-33.78564975788585]",60.5,325,2,"[147,153,155,155,155,155,155,155,155,155,155,155,153,142,121,92,59,24,-6,-42,-66,-81,-89,-93,-95,-96,-98,-100,-103,-105,-109,-113,-118,-124,-131,-136]","[23,22,21,21,21,21,21,21,21,21,21,21,21,20,18,15,14,13,11,8,5,4,2,1,-1,-2,-3,-5,-6,-8,-11,-14,-16,-19,-22,-23]","[0,0,0,0,0,0,0,0,0,0,0,0,0,0,0,0,0,0,0,0,0,0,0,0,0,0,0,0,0,0,0,0,0,0,0,0]","[0,0,0,0,0,0,0,0,0,0,0,0,0,0,0,0,0,0,0,0,0,0,0,0,0,0,0,0,0,0,0,0,0,0,0,0]","[0,0,0,0,0,0,0,0,0,0,0,0,0,0,0,0,0,0,0,0,0,0,0,0,0,0,0,0,0,0,0,0,0,0,0,0]","[0.00020000000298381337,0.013400000005965751,0.023700000002982335,0.03999999999999915,0.0534000000059649,0.06690000000596541,0.08009999999404016,0.09040000000596393,0.1065999999940388,0.12000000000000455,0.1305999999940397,0.14629999999701937,0.15750000000000597,0.1732999999970204,0.1865999999940442,0.20000000000000284,0.2134000000059615,0.22659999999404334,0.23709999999404374,0.2532999999970258,0.26670000000298444,0.28000000000000114,0.29329999999702494,0.30659999999404164,0.3200000000000003,0.33059999999404255,0.34670000000298273,0.35999999999999943,0.375,0.3869000000059657,0.4000000000000057,0.41340000000596433,0.4265000000000043,0.439799999997021,0.45209999999404005,0.46379999999702193]",,7,0,7,0,1,,,,
,,A123456789,2022-11-28_04h48.03.556,GoFitts,2022.2.4,Win32,76.09191904,,,,,,,,,,,,,,,,,,"[-158.94898511924342,-33.78564975788585]","[148.45113686692264,66.09470449981752]",60.5,325,2,"[-136,-144,-148,-152,-153,-153,-153,-153,-151,-144,-133,-112,-91,-67,-27,8,38,70,103,119,132]","[-23,-26,-27,-27,-28,-28,-28,-28,-27,-24,-18,-9,-2,6,15,24,28,33,37,39,42]","[0,0,0,0,0,0,0,0,0,0,0,0,0,0,0,0,0,0,0,0,0]","[0,0,0,0,0,0,0,0,0,0,0,0,0,0,0,0,0,0,0,0,0]","[0,0,0,0,0,0,0,0,0,0,0,0,0,0,0,0,0,0,0,0,0]","[0.00029999999701857405,0.015999999999998238,0.02949999999999875,0.042699999988080606,0.05619999998808112,0.06939999999105595,0.07979999999702159,0.09319999998808015,0.10639999999106209,0.12219999998807651,0.1331999999880793,0.1494999999999962,0.16269999998807805,0.17339999999105515,0.18950000000000244,0.2026999999880772,0.21300000000000097,0.22659999999403624,0.24269999998807634,0.25319999998807674,0.2695999999940355]",,8,0,8,0,1,,,,
,,A123456789,2022-11-28_04h48.03.556,GoFitts,2022.2.4,Win32,76.09191904,,,,,,,,,,,,,,,,,,"[148.45113686692264,66.09470449981752]","[-131.46526158592897,-95.51510349752687]",60.5,325,2,"[132,140,145,148,150,152,153,154,154,154,154,154,151,141,131,106,79,45,8,-19,-55,-94,-113]","[42,43,44,45,45,46,47,48,48,48,48,48,46,40,34,17,0,-21,-39,-52,-68,-83,-91]","[0,0,0,0,0,0,0,0,0,0,0,0,0,0,0,0,0,0,0,0,0,0,0]","[0,0,0,0,0,0,0,0,0,0,0,0,0,0,0,0,0,0,0,0,0,0,0]","[0,0,0,0,0,0,0,0,0,0,0,0,0,0,0,0,0,0,0,0,0,0,0]","[0.00020000000297670795,0.012899999991056177,0.023299999997021814,0.03859999999404096,0.05259999999403675,0.06639999999105584,0.07679999999702147,0.0925999999940359,0.10329999999702011,0.11999999999999744,0.13020000000297927,0.14350000000000307,0.15659999999403595,0.17289999999105987,0.18359999999403698,0.19970000000297716,0.21289999999105902,0.22629999999701766,0.23939999999105765,0.24989999999105805,0.26320000000298194,0.27949999999999875,0.2928999999910573]",,9,0,9,0,1,,,,
,,A123456789,2022-11-28_04h48.03.556,GoFitts,2022.2.4,Win32,76.09191904,,,,,,,,,,,,,,,,,,"[-131.46526158592897,-95.51510349752687]","[108.73372353331446,120.76103414007656]",60.5,325,2,"[-113,-126,-135,-139,-142,-143,-144,-144,-144,-144,-142,-139,-132,-120,-107,-78,-45,-12,20,49,72,81,89]","[-91,-98,-103,-105,-108,-109,-110,-110,-110,-110,-110,-105,-95,-81,-65,-37,-3,28,54,75,88,95,100]","[0,0,0,0,0,0,0,0,0,0,0,0,0,0,0,0,0,0,0,0,0,0,0]","[0,0,0,0,0,0,0,0,0,0,0,0,0,0,0,0,0,0,0,0,0,0,0]","[0,0,0,0,0,0,0,0,0,0,0,0,0,0,0,0,0,0,0,0,0,0,0]","[0.00029999999701857405,0.013399999991058564,0.02670000000298245,0.036899999991057086,0.05309999999403914,0.06679999999702346,0.0799999999999983,0.09039999999105675,0.10350000000000392,0.11720000000298114,0.13359999999403982,0.14370000000297978,0.1600000000000037,0.17320000000297853,0.1837999999970208,0.2000999999940376,0.21320000000297767,0.22659999999404334,0.23989999999106004,0.25339999999106055,0.2665999999940425,0.277000000000001,0.2932000000029831]",,10,0,10,0,1,,,,
,,A123456789,2022-11-28_04h48.03.556,GoFitts,2022.2.4,Win32,76.09191904,,,,,,,,,,,,,,,,,,"[108.73372353331446,120.76103414007656]","[-81.25000000000007,-140.72912811497125]",60.5,325,2,"[89,90,90,90,90,90,90,91,92,92,92,93,95,95,95,95,95,92,87,77,57,42,23,-3,-20,-29,-37,-44,-49,-52]","[100,101,101,101,101,101,101,101,101,102,102,104,105,105,105,105,103,92,80,58,22,-6,-38,-74,-98,-114,-121,-131,-135,-138]","[0,0,0,0,0,0,0,0,0,0,0,0,0,0,0,0,0,0,0,0,0,0,0,0,0,0,0,0,0,0]","[0,0,0,0,0,0,0,0,0,0,0,0,0,0,0,0,0,0,0,0,0,0,0,0,0,0,0,0,0,0]","[0,0,0,0,0,0,0,0,0,0,0,0,0,0,0,0,0,0,0,0,0,0,0,0,0,0,0,0,0,0]","[0.00020000000298381337,0.013200000002981938,0.02360000000894047,0.040100000008941095,0.050499999999999545,0.0669000000059583,0.08010000000894024,0.09080000001192445,0.10690000000595745,0.12020000000298126,0.1303000000119212,0.14399999999999835,0.15710000000893842,0.17340000000596234,0.18380000001192087,0.20020000000297955,0.21090000000596376,0.22660000000894343,0.23690000000596,0.25030000001191866,0.2666000000089426,0.277000000000001,0.29050000000000153,0.3064999999999998,0.3199000000059584,0.3329999999999984,0.3439000000059593,0.35990000000595757,0.37299999999999756,0.3864000000059633]",,11,0,11,0,1,,,,
,,A123456789,2022-11-28_04h48.03.556,GoFitts,2022.2.4,Win32,76.09191904,,,,,,,,,,,,,,,,,,"[-81.25000000000007,-140.72912811497125]","[50.215261585928964,154.54668389796245]",60.5,325,2,"[-52,-56,-57,-60,-62,-64,-66,-68,-68,-68,-69,-69,-68,-64,-62,-60,-58,-55,-52,-40,-28,-15,-7,7,18,24,29,33,35]","[-138,-140,-142,-143,-144,-145,-145,-146,-146,-146,-145,-141,-130,-115,-104,-98,-85,-70,-60,-20,11,39,58,84,101,113,122,127,131]","[0,0,0,0,0,0,0,0,0,0,0,0,0,0,0,0,0,0,0,0,0,0,0,0,0,0,0,0,0]","[0,0,0,0,0,0,0,0,0,0,0,0,0,0,0,0,0,0,0,0,0,0,0,0,0,0,0,0,0]","[0,0,0,0,0,0,0,0,0,0,0,0,0,0,0,0,0,0,0,0,0,0,0,0,0,0,0,0,0]","[0.00020000000297670795,0.013200000002981938,0.026700000002975344,0.039799999997015334,0.053200000002981085,0.06660000000893973,0.07979999999702159,0.09340000000595694,0.10670000000298074,0.11690000000595546,0.1331000000089375,0.1436000000089379,0.15729999999701505,0.17340000000596234,0.18670000000297904,0.19710000000893757,0.21329999999701954,0.226900000005962,0.23700000000000188,0.25340000000596064,0.2666000000089426,0.280100000008936,0.2902999999970177,0.3064999999999998,0.31960000000893984,0.3332000000029751,0.3464999999999989,0.3567999999970155,0.37320000000298137]",,12,0,12,0,1,,,,
,,A123456789,2022-11-28_04h48.03.556,GoFitts,2022.2.4,Win32,76.09191904,,,,,,,,,,,,,,,,,,"[50.215261585928964,154.54668389796245]","[-16.985875280993813,-161.6098079973444]",60.5,325,2,"[35,36,36,36,36,36,36,36,36,36,36,34,30,24,19,17,14,11,9,5,2]","[131,132,133,133,134,134,134,134,134,134,133,128,117,95,70,45,-5,-44,-73,-118,-144]","[0,0,0,0,0,0,0,0,0,0,0,0,0,0,0,0,0,0,0,0,0]","[0,0,0,0,0,0,0,0,0,0,0,0,0,0,0,0,0,0,0,0,0]","[0,0,0,0,0,0,0,0,0,0,0,0,0,0,0,0,0,0,0,0,0]","[0.00039999999106044015,0.014200000002979607,0.026299999997021928,0.03979999999702244,0.05309999999403914,0.06329999999702096,0.07970000000297972,0.0932999999970221,0.10629999999702022,0.11689999999106249,0.13009999999403732,0.14370000000297978,0.15689999999106163,0.17300000000000182,0.18620000000298376,0.1965999999940422,0.21279999999701715,0.22650000000000148,0.23679999999701806,0.25289999999105817,0.2663999999910587]",,13,0,13,0,1,,,,
,,A123456789,2022-11-28_04h48.03.556,GoFitts,2022.2.4,Win32,76.09191904,,,,,,,,,,,,,,,,,,"[-16.985875280993813,-161.6098079973444]","[-16.985875280993668,161.60980799734443]",60.5,325,2,"[2,-1,-2,-3,-4,-4,-5,-6,-6,-6,-6,-6,-6,-6,-5,-4,-3,-3,-8,-9,-11,-11,-11,-9,-8,-7,-6,-6,-7]","[-144,-163,-171,-182,-189,-193,-199,-201,-203,-203,-203,-203,-203,-200,-192,-175,-153,-121,-80,-44,5,41,70,88,105,119,127,131,136]","[0,0,0,0,0,0,0,0,0,0,0,0,0,0,0,0,0,0,0,0,0,0,0,0,0,0,0,0,0]","[0,0,0,0,0,0,0,0,0,0,0,0,0,0,0,0,0,0,0,0,0,0,0,0,0,0,0,0,0]","[0,0,0,0,0,0,0,0,0,0,0,0,0,0,0,0,0,0,0,0,0,0,0,0,0,0,0,0,0]","[0.00029999999701857405,0.013299999997016698,0.023799999997017096,0.03970000000298057,0.053200000002981085,0.06370000000298148,0.07989999999105635,0.09320000000298023,0.10679999999702261,0.11979999999702073,0.133399999991056,0.14379999999702164,0.15700000000000358,0.1732999999970204,0.1837999999970208,0.19959999999404232,0.21329999999701954,0.22659999999403624,0.23979999999701818,0.2502999999970186,0.2665999999940425,0.2798999999910592,0.2932000000029831,0.3035999999940415,0.3172000000029769,0.333299999997017,0.34670000000298273,0.3570999999940412,0.37329999999702324]",,14,0,14,0,1,,,,
,,A123456789,2022-11-28_04h48.03.556,GoFitts,2022.2.4,Win32,76.09191904,,,,,,,,,,,,,,,,,,,,,,2,,,,,,,,,,,,,2,0,0,1
,,A123456789,2022-11-28_04h48.03.556,GoFitts,2022.2.4,Win32,76.09191904,,,,,,,,,,,,,,,,return,0.3871,"[63,-94]","[-222.47967345311054,-161.64094438043008]",32.3,550,3,"[63,63,62,61,61,60,60,59,55,52,49,46,44,43,43,43,43,43,43,42,40,37,25,15,-7,-27,-50,-70,-90,-103,-121,-129,-140,-147,-157,-161,-171,-178,-184,-189,-193,-197,-201,-204,-207]","[-94,-94,-94,-94,-94,-94,-94,-94,-91,-90,-88,-87,-85,-85,-85,-85,-85,-85,-85,-85,-85,-85,-91,-97,-110,-122,-132,-143,-150,-154,-157,-158,-161,-163,-163,-164,-165,-165,-165,-165,-165,-165,-164,-164,-163]","[0,0,0,0,0,0,0,0,0,0,0,0,0,0,0,0,0,0,0,0,0,0,0,0,0,0,0,0,0,0,0,0,0,0,0,0,0,0,0,0,0,0,0,0,0]","[0,0,0,0,0,0,0,0,0,0,0,0,0,0,0,0,0,0,0,0,0,0,0,0,0,0,0,0,0,0,0,0,0,0,0,0,0,0,0,0,0,0,0,0,0]","[0,0,0,0,0,0,0,0,0,0,0,0,0,0,0,0,0,0,0,0,0,0,0,0,0,0,0,0,0,0,0,0,0,0,0,0,0,0,0,0,0,0,0,0,0]","[0.0005000000000023874,0.013200000002981938,0.026400000005963875,0.03960000000893871,0.04999999999999716,0.0676000000089445,0.07970000000297972,0.08990000000596154,0.1061000000089436,0.11640000000596018,0.13280000001191894,0.1460000000000008,0.1595000000000013,0.17270000000298324,0.18299999999999983,0.19920000000298188,0.21280000001192434,0.22310000000894092,0.23930000001192298,0.24990000000595813,0.2661000000089402,0.2764000000059639,0.2927000000029807,0.3031000000089392,0.31930000001192127,0.33270000000297983,0.34590000000596177,0.3593000000119204,0.3725000000000023,0.38280000001191894,0.3995000000000033,0.4095000000000013,0.4261000000089439,0.4366000000089443,0.4526000000089425,0.46300000000000097,0.4795000000000016,0.49290000000596024,0.5060000000000002,0.516300000011924,0.5320000000000036,0.5429999999999993,0.5564000000059579,0.5697000000029817,0.5861000000089405]",,0,0,0,0,1,,,,
,,A123456789,2022-11-28_04h48.03.556,GoFitts,2022.2.4,Win32,76.09191904,,,,,,,,,,,,,,,,,,"[-222.47967345311054,-161.64094438043008]","[184.01091674868601,204.3648270062834]",32.3,550,3,"[-207,-210,-212,-214,-215,-216,-217,-217,-217,-217,-215,-208,-199,-170,-131,-85,-30,21,61,99,124,136,146,155,159,162,165,167,168,171,175,178,179,181,183,186,187,189,189,189,189,189,188,187,186,183,183,182]","[-163,-163,-163,-163,-163,-163,-162,-162,-162,-162,-159,-153,-146,-129,-105,-73,-35,0,29,60,84,96,110,122,129,136,141,146,151,153,155,157,159,162,165,168,171,175,177,180,180,183,184,185,186,188,188,189]","[0,0,0,0,0,0,0,0,0,0,0,0,0,0,0,0,0,0,0,0,0,0,0,0,0,0,0,0,0,0,0,0,0,0,0,0,0,0,0,0,0,0,0,0,0,0,0,0]","[0,0,0,0,0,0,0,0,0,0,0,0,0,0,0,0,0,0,0,0,0,0,0,0,0,0,0,0,0,0,0,0,0,0,0,0,0,0,0,0,0,0,0,0,0,0,0,0]","[0,0,0,0,0,0,0,0,0,0,0,0,0,0,0,0,0,0,0,0,0,0,0,0,0,0,0,0,0,0,0,0,0,0,0,0,0,0,0,0,0,0,0,0,0,0,0,0]","[0.00019999998807662678,0.01309999999403999,0.023599999994033283,0.036899999991057086,0.05029999999701573,0.0636999999880743,0.07739999999105862,0.09319999998807305,0.10329999999702011,0.11959999999403692,0.13009999999403732,0.1466999999880727,0.15669999998807782,0.17319999998807845,0.18629999999701852,0.19950000000000045,0.21359999999403811,0.2273999999910572,0.23999999999999488,0.25339999999105345,0.2665000000000006,0.2769999999999939,0.2900999999940339,0.3064999999999998,0.3196999999880745,0.33309999999403317,0.346399999991057,0.35949999999999704,0.37299999999999756,0.383399999991056,0.3996999999880728,0.41009999999403846,0.4259999999999948,0.4397999999970139,0.4531999999880796,0.4631999999880776,0.4766999999880781,0.49319999998807873,0.5032999999970187,0.5197999999970193,0.5301999999880778,0.5433999999910597,0.5595999999940346,0.5730000000000004,0.5864999999999938,0.5996999999880757,0.6129999999999995,0.623399999991058]",,1,0,1,0,1,,,,
,,A123456789,2022-11-28_04h48.03.556,GoFitts,2022.2.4,Win32,76.09191904,,,,,,,,,,,,,,,,,,"[184.01091674868601,204.3648270062834]","[-137.5000000000001,-238.1569860407206]",32.3,550,3,"[182,182,182,182,180,176,170,157,146,124,107,92,72,66,62,62,62,61,59,55,50,41,25,10,-4,-20,-37,-52,-63,-74,-83,-92,-96,-102,-106,-109,-112,-114,-115,-117,-118,-119,-118,-118,-119,-121,-123,-124,-126]","[189,189,189,189,186,178,166,149,134,103,78,60,33,25,22,22,22,20,13,2,-8,-23,-44,-63,-79,-98,-117,-131,-139,-147,-155,-160,-164,-169,-175,-180,-185,-190,-193,-198,-202,-209,-213,-217,-221,-225,-228,-229,-232]","[0,0,0,0,0,0,0,0,0,0,0,0,0,0,0,0,0,0,0,0,0,0,0,0,0,0,0,0,0,0,0,0,0,0,0,0,0,0,0,0,0,0,0,0,0,0,0,0,0]","[0,0,0,0,0,0,0,0,0,0,0,0,0,0,0,0,0,0,0,0,0,0,0,0,0,0,0,0,0,0,0,0,0,0,0,0,0,0,0,0,0,0,0,0,0,0,0,0,0]","[0,0,0,0,0,0,0,0,0,0,0,0,0,0,0,0,0,0,0,0,0,0,0,0,0,0,0,0,0,0,0,0,0,0,0,0,0,0,0,0,0,0,0,0,0,0,0,0,0]","[0.0003000000119186552,0.015999999999998238,0.029300000011922123,0.03949999999999676,0.055999999999997385,0.0694999999999979,0.08270000000297983,0.09599999999999653,0.1063000000119203,0.12280000001192093,0.13600000000000279,0.1462000000029775,0.16250000000000142,0.17290000000595995,0.1863000000119186,0.2029000000059611,0.21300000000000097,0.2264000000059596,0.2423000000119231,0.2558000000119236,0.26640000000595876,0.27970000000298256,0.29580000001192275,0.3094999999999999,0.3194999999999979,0.3329999999999984,0.34940000000595717,0.3628000000119229,0.37299999999999756,0.3862000000029795,0.40190000000595916,0.41590000000596206,0.4263000000119206,0.44270000000297927,0.45600000000000307,0.4692000000029779,0.48280000001192036,0.49610000000893706,0.5064000000059607,0.5197000000029774,0.5330000000000013,0.5493000000119181,0.5629000000059605,0.576400000005961,0.5893000000119173,0.602700000002983,0.6161000000089416,0.6293000000119235,0.6426000000089402]",,2,0,2,0,1,,,,
,,A123456789,2022-11-28_04h48.03.556,GoFitts,2022.2.4,Win32,76.09191904,,,,,,,,,,,,,,,,,,"[-137.5000000000001,-238.1569860407206]","[84.97967345311055,261.5405419811672]",32.3,550,3,"[-126,-128,-129,-132,-132,-132,-132,-132,-132,-132,-132,-122,-109,-90,-67,-38,-16,25,52,65,81,90,93,93,93,93,92]","[-232,-233,-234,-236,-236,-236,-236,-236,-236,-233,-227,-203,-174,-133,-78,-15,32,108,155,181,207,224,236,240,242,244,248]","[0,0,0,0,0,0,0,0,0,0,0,0,0,0,0,0,0,0,0,0,0,0,0,0,0,0,0]","[0,0,0,0,0,0,0,0,0,0,0,0,0,0,0,0,0,0,0,0,0,0,0,0,0,0,0]","[0,0,0,0,0,0,0,0,0,0,0,0,0,0,0,0,0,0,0,0,0,0,0,0,0,0,0]","[0.00019999998807662678,0.013099999994032885,0.023499999999998522,0.0398999999910572,0.053299999997015846,0.06349999999999767,0.07989999999105635,0.09029999999701488,0.1065999999940388,0.12009999999403931,0.13029999999701403,0.14659999999403794,0.15989999999105464,0.1732999999970133,0.18669999998807896,0.1998999999910538,0.21019999998807748,0.2266999999880781,0.23959999999403436,0.25009999999403476,0.26339999999105856,0.2768999999910591,0.29299999999999926,0.3064999999999998,0.3196999999880745,0.33029999999701687,0.34599999999999653]",,3,0,3,0,1,,,,
,,A123456789,2022-11-28_04h48.03.556,GoFitts,2022.2.4,Win32,76.09191904,,,,,,,,,,,,,,,,,,"[84.97967345311055,261.5405419811672]","[-28.745327398604914,-273.49352122627516]",32.3,550,3,"[92,91,91,91,91,91,91,91,91,90,90,90,90,90,89,84,76,67,54,42,34,29,24,21,18,17,15,15,15,12,9,8,7,5,4,3,-1,-4,-8,-12,-17,-21]","[248,251,254,257,260,261,264,266,268,270,270,270,270,270,263,248,222,194,151,86,31,-28,-75,-114,-147,-164,-188,-202,-214,-223,-229,-235,-238,-242,-243,-246,-249,-251,-254,-257,-261,-265]","[0,0,0,0,0,0,0,0,0,0,0,0,0,0,0,0,0,0,0,0,0,0,0,0,0,0,0,0,0,0,0,0,0,0,0,0,0,0,0,0,0,0]","[0,0,0,0,0,0,0,0,0,0,0,0,0,0,0,0,0,0,0,0,0,0,0,0,0,0,0,0,0,0,0,0,0,0,0,0,0,0,0,0,0,0]","[0,0,0,0,0,0,0,0,0,0,0,0,0,0,0,0,0,0,0,0,0,0,0,0,0,0,0,0,0,0,0,0,0,0,0,0,0,0,0,0,0,0]","[0.00020000000298381337,0.013800000011926272,0.02430000001192667,0.04040000000595967,0.05660000000894172,0.06420000000298387,0.07740000000596581,0.09380000001192457,0.10460000000894354,0.12070000000298364,0.13440000000596086,0.1471000000089404,0.1611000000089433,0.17090000000596461,0.1875,0.20070000000298194,0.2143000000119244,0.22449999999999903,0.23750000000000426,0.2537000000029792,0.26690000000596115,0.28040000000596166,0.2938000000119203,0.30700000000000216,0.32030000001192604,0.33060000000894263,0.34670000000298273,0.36040000000595995,0.3736000000089419,0.3869000000059657,0.4004000000059662,0.41380000001192485,0.42410000000894144,0.44040000000596535,0.45090000000596575,0.4641000000089406,0.4806000000089412,0.4939999999999998,0.5071000000089398,0.5175000000000054,0.5337000000029803,0.5470000000000041]",,4,0,4,0,1,,,,
,,A123456789,2022-11-28_04h48.03.556,GoFitts,2022.2.4,Win32,76.09191904,,,,,,,,,,,,,,,,,,"[-28.745327398604914,-273.49352122627516]","[-28.745327398604665,273.49352122627516]",32.3,550,3,"[-21,-23,-25,-25,-26,-26,-27,-27,-27,-27,-27,-27,-24,-19,-13,-10,-8,-8,-10,-14,-16,-17,-17,-19,-20,-21,-23,-24,-25,-26,-27,-27,-27,-28,-29,-31]","[-265,-269,-270,-272,-273,-275,-276,-276,-276,-276,-276,-275,-265,-245,-218,-183,-136,-71,3,71,116,144,166,180,191,200,210,222,230,235,239,243,247,252,255,258]","[0,0,0,0,0,0,0,0,0,0,0,0,0,0,0,0,0,0,0,0,0,0,0,0,0,0,0,0,0,0,0,0,0,0,0,0]","[0,0,0,0,0,0,0,0,0,0,0,0,0,0,0,0,0,0,0,0,0,0,0,0,0,0,0,0,0,0,0,0,0,0,0,0]","[0,0,0,0,0,0,0,0,0,0,0,0,0,0,0,0,0,0,0,0,0,0,0,0,0,0,0,0,0,0,0,0,0,0,0,0]","[0.00020000000297670795,0.013299999997016698,0.026700000002975344,0.04009999999403391,0.05339999999105771,0.06359999999403954,0.07989999999105635,0.09029999999701488,0.10370000000298063,0.1170999999940392,0.13320000000297938,0.14379999999701454,0.1599999999999966,0.17470000000297858,0.1865999999940371,0.19999999999999574,0.21299999999999386,0.22649999999999437,0.23979999999701818,0.2532999999970187,0.2664999999999935,0.2797999999970173,0.29329999999701784,0.30659999999403453,0.31979999999701647,0.330200000002975,0.34359999999403357,0.3600999999940342,0.37329999999701613,0.38659999999403993,0.3968999999910565,0.41039999999105703,0.4237999999970157,0.4395999999940372,0.4535999999940401,0.4667000000029802]",,5,0,5,0,1,,,,
,,A123456789,2022-11-28_04h48.03.556,GoFitts,2022.2.4,Win32,76.09191904,,,,,,,,,,,,,,,,,,"[-28.745327398604665,273.49352122627516]","[84.9796734531105,-261.5405419811673]",32.3,550,3,"[-31,-31,-31,-32,-32,-32,-32,-32,-32,-32,-32,-33,-35,-37,-38,-37,-31,-28,-19,-14,-6,7,12,18,23,27,31,34,38,41,44,48,52,54,57,60,63,67,73]","[258,261,263,265,266,267,267,267,267,267,266,261,247,223,194,142,62,4,-66,-100,-143,-199,-218,-230,-236,-241,-244,-245,-246,-247,-249,-251,-254,-259,-262,-264,-264,-266,-267]","[0,0,0,0,0,0,0,0,0,0,0,0,0,0,0,0,0,0,0,0,0,0,0,0,0,0,0,0,0,0,0,0,0,0,0,0,0,0,0]","[0,0,0,0,0,0,0,0,0,0,0,0,0,0,0,0,0,0,0,0,0,0,0,0,0,0,0,0,0,0,0,0,0,0,0,0,0,0,0]","[0,0,0,0,0,0,0,0,0,0,0,0,0,0,0,0,0,0,0,0,0,0,0,0,0,0,0,0,0,0,0,0,0,0,0,0,0,0,0]","[0.00020000000298381337,0.01309999999403999,0.023499999999998522,0.04020000000298296,0.05059999999404141,0.06379999999702335,0.08009999999404016,0.09059999999404056,0.1065999999940388,0.11700000000000443,0.13300000000000267,0.14650000000000318,0.15959999999404317,0.17300000000000182,0.18359999999404408,0.19690000000596086,0.21309999999404283,0.22350000000000136,0.23990000000596012,0.2502000000029838,0.2665000000000006,0.2930999999940411,0.3064999999999998,0.319500000000005,0.33290000000596365,0.3462999999970222,0.35990000000596467,0.37300000000000466,0.3864000000059633,0.3969000000059637,0.41029999999702227,0.42600000000000193,0.44000000000000483,0.4530999999940448,0.4664000000059616,0.47979999999702017,0.4904000000059625,0.5032999999970187,0.5167999999970192]",,6,0,6,0,1,,,,
,,A123456789,2022-11-28_04h48.03.556,GoFitts,2022.2.4,Win32,76.09191904,,,,,,,,,,,,,,,,,,"[84.9796734531105,-261.5405419811673]","[-137.49999999999994,238.15698604072065]",32.3,550,3,"[73,77,81,84,86,86,86,86,86,86,86,86,82,75,57,31,5,-34,-68,-90,-105,-123,-133,-140,-146,-149,-150,-150,-151,-151,-151,-151,-151]","[-267,-268,-269,-269,-269,-270,-270,-270,-270,-270,-270,-266,-252,-234,-195,-145,-102,-32,35,77,112,149,173,189,207,216,220,223,225,227,229,229,230]","[0,0,0,0,0,0,0,0,0,0,0,0,0,0,0,0,0,0,0,0,0,0,0,0,0,0,0,0,0,0,0,0,0]","[0,0,0,0,0,0,0,0,0,0,0,0,0,0,0,0,0,0,0,0,0,0,0,0,0,0,0,0,0,0,0,0,0]","[0,0,0,0,0,0,0,0,0,0,0,0,0,0,0,0,0,0,0,0,0,0,0,0,0,0,0,0,0,0,0,0,0]","[0.00020000000297670795,0.015900000005956372,0.026599999994040502,0.03990000000595728,0.053200000002981085,0.06659999999403965,0.08290000000595654,0.09340000000595694,0.10970000000298086,0.11979999999702073,0.13599999999999568,0.14659999999403794,0.16279999999702,0.17320000000297853,0.18929999999701863,0.20320000000297966,0.21320000000297767,0.2282999999970201,0.24240000000595785,0.256099999994035,0.2665000000000006,0.28270000000297557,0.29609999999404124,0.30659999999404164,0.3230000000000004,0.33590000000595666,0.34949999999999903,0.3600999999940413,0.37329999999701613,0.38679999999701664,0.3999000000059567,0.4132999999970153,0.4267999999970158]",,7,0,7,0,1,,,,
,,A123456789,2022-11-28_04h48.03.556,GoFitts,2022.2.4,Win32,76.09191904,,,,,,,,,,,,,,,,,,"[-137.49999999999994,238.15698604072065]","[184.01091674868607,-204.36482700628335]",32.3,550,3,"[-151,-151,-149,-148,-148,-148,-148,-148,-148,-148,-147,-147,-145,-141,-136,-127,-117,-95,-66,-31,4,34,61,82,95,112,121,129,135,142,149,155,163,168,175,178,185,189,192,194,195,196,196,196,196,196]","[230,231,232,234,235,235,235,235,235,235,232,227,221,209,194,174,151,107,61,7,-37,-71,-99,-114,-122,-130,-136,-139,-141,-144,-146,-148,-152,-155,-160,-162,-167,-172,-176,-179,-181,-184,-187,-190,-193,-195]","[0,0,0,0,0,0,0,0,0,0,0,0,0,0,0,0,0,0,0,0,0,0,0,0,0,0,0,0,0,0,0,0,0,0,0,0,0,0,0,0,0,0,0,0,0,0]","[0,0,0,0,0,0,0,0,0,0,0,0,0,0,0,0,0,0,0,0,0,0,0,0,0,0,0,0,0,0,0,0,0,0,0,0,0,0,0,0,0,0,0,0,0,0]","[0,0,0,0,0,0,0,0,0,0,0,0,0,0,0,0,0,0,0,0,0,0,0,0,0,0,0,0,0,0,0,0,0,0,0,0,0,0,0,0,0,0,0,0,0,0]","[0.0000999999940418661,0.016099999994040104,0.026299999997021928,0.039599999994038626,0.053299999997015846,0.06640000000596302,0.08020000000298211,0.0934999999999988,0.10909999999403652,0.11999999999999744,0.13559999999404226,0.14940000000596143,0.15959999999403607,0.17620000000297864,0.18900000000000006,0.20229999999701676,0.21279999999701715,0.2289999999999992,0.2422999999970159,0.25590000000595836,0.2689000000059565,0.2822000000029803,0.29579999999701556,0.30890000000596274,0.31959999999403976,0.3359999999999985,0.34899999999999665,0.36249999999999716,0.37279999999702085,0.38629999999702136,0.39959999999403806,0.4129999999999967,0.4290999999940368,0.43970000000297915,0.45579999999701926,0.46609999999403584,0.48240000000595984,0.49590000000596035,0.5090999999940422,0.522400000005959,0.5359000000059595,0.5489000000059576,0.5624000000059581,0.5729000000059585,0.5890999999940405,0.5999000000059596]",,8,0,8,0,1,,,,
,,A123456789,2022-11-28_04h48.03.556,GoFitts,2022.2.4,Win32,76.09191904,,,,,,,,,,,,,,,,,,"[184.01091674868607,-204.36482700628335]","[-222.4796734531105,161.64094438043014]",32.3,550,3,"[196,196,195,194,193,191,189,187,185,182,179,175,170,161,151,134,111,77,43,-13,-82,-137,-175,-201,-216]","[-195,-198,-199,-200,-201,-202,-202,-202,-202,-201,-200,-198,-194,-186,-174,-159,-137,-105,-75,-24,35,81,113,135,147]","[0,0,0,0,0,0,0,0,0,0,0,0,0,0,0,0,0,0,0,0,0,0,0,0,0]","[0,0,0,0,0,0,0,0,0,0,0,0,0,0,0,0,0,0,0,0,0,0,0,0,0]","[0,0,0,0,0,0,0,0,0,0,0,0,0,0,0,0,0,0,0,0,0,0,0,0,0]","[0.00010000000894194727,0.015900000005963477,0.028200000002982506,0.03980000001192252,0.052800000011920645,0.06630000001192116,0.07980000001192167,0.09290000000596166,0.10900000000000176,0.1194000000059603,0.13280000001192604,0.1490000000000009,0.15940000000596655,0.17600000000000193,0.1889000000059653,0.202200000002982,0.2157000000029825,0.22910000000894115,0.23920000000298103,0.25290000000596535,0.2689000000059636,0.2824000000059641,0.29560000000894604,0.30890000000596274,0.319500000000005]",,9,0,9,0,1,,,,
,,A123456789,2022-11-28_04h48.03.556,GoFitts,2022.2.4,Win32,76.09191904,,,,,,,,,,,,,,,,,,"[-222.4796734531105,161.64094438043014]","[251.22500085171527,-111.85257684584504]",32.3,550,3,"[-216,-227,-230,-231,-231,-231,-231,-231,-231,-231,-231,-231,-231,-231,-231,-231,-231,-231,-225,-212,-198,-160,-111,-53,15,104,163,205,222,234,237,237,237,237,237,237,237,237,237,237,237,237,237,238,240,241,242,242]","[147,156,159,161,161,161,161,161,161,161,161,161,161,161,161,161,161,160,153,138,123,85,47,9,-25,-54,-66,-70,-70,-72,-72,-72,-72,-72,-72,-72,-72,-72,-72,-72,-72,-72,-72,-76,-83,-87,-97,-102]","[0,0,0,0,0,0,0,0,0,0,0,0,0,0,0,0,0,0,0,0,0,0,0,0,0,0,0,0,0,0,0,0,0,0,0,0,0,0,0,0,0,0,0,0,0,0,0,0]","[0,0,0,0,0,0,0,0,0,0,0,0,0,0,0,0,0,0,0,0,0,0,0,0,0,0,0,0,0,0,0,0,0,0,0,0,0,0,0,0,0,0,0,0,0,0,0,0]","[0,0,0,0,0,0,0,0,0,0,0,0,0,0,0,0,0,0,0,0,0,0,0,0,0,0,0,0,0,0,0,0,0,0,0,0,0,0,0,0,0,0,0,0,0,0,0,0]","[0.00020000000298381337,0.015999999999998238,0.02929999999702204,0.03990000000596439,0.05310000000893922,0.06660000000893973,0.08029999999702397,0.09360000000894075,0.10670000000298074,0.12010000000893939,0.1336000000089399,0.1469000000059637,0.1602000000029804,0.1735000000000042,0.18670000000297904,0.20020000000297955,0.21379999999702193,0.22670000000297819,0.240000000000002,0.2561000000089422,0.2665000000000006,0.28279999999701744,0.2961000000089413,0.30820000000298364,0.3197000000029817,0.33610000000894047,0.34920000000298046,0.36279999999702284,0.37329999999702324,0.38910000000894485,0.40260000000894536,0.41310000000893865,0.42920000000297875,0.4399999999999977,0.4562000000029798,0.46650000000000347,0.4827000000029784,0.49310000000894405,0.5065000000000026,0.5197999999970193,0.5359000000059595,0.5466000000089437,0.5599000000059604,0.5731000000089423,0.5897000000029848,0.6001000000089434,0.6164000000059602,0.6292999999970235]",,10,0,10,0,1,,,,
,,A123456789,2022-11-28_04h48.03.556,GoFitts,2022.2.4,Win32,76.09191904,,,,,,,,,,,,,,,,,,"[251.22500085171527,-111.85257684584504]","[-268.9905902017966,57.17571497488381]",32.3,550,3,"[242,242,242,242,242,242,242,242,242,242,242,242,239,229,214,190,146,94,29,-37,-102,-150,-186,-214,-230,-241,-249,-254]","[-102,-107,-109,-110,-110,-110,-110,-110,-110,-110,-110,-110,-107,-102,-96,-86,-71,-53,-28,-2,21,36,45,52,55,58,59,60]","[0,0,0,0,0,0,0,0,0,0,0,0,0,0,0,0,0,0,0,0,0,0,0,0,0,0,0,0]","[0,0,0,0,0,0,0,0,0,0,0,0,0,0,0,0,0,0,0,0,0,0,0,0,0,0,0,0]","[0,0,0,0,0,0,0,0,0,0,0,0,0,0,0,0,0,0,0,0,0,0,0,0,0,0,0,0]","[0.00020000000298381337,0.013100000008940071,0.02360000000894047,0.03999999999999915,0.050100000008939105,0.06349999999999767,0.07950000000000301,0.09020000000298012,0.10660000000893888,0.11720000000298114,0.13029999999702113,0.14379999999702164,0.15690000000596172,0.1732999999970204,0.18650000000000233,0.19970000000298427,0.21320000000297767,0.22650000000000148,0.23990000000596012,0.25310000000894206,0.26620000000298205,0.2796000000089407,0.29299999999999926,0.30629999999702306,0.3197000000029817,0.3332000000029822,0.3464999999999989,0.35950000000000415]",,11,0,11,0,1,,,,
,,A123456789,2022-11-28_04h48.03.556,GoFitts,2022.2.4,Win32,76.09191904,,,,,,,,,,,,,,,,,,"[-268.9905902017966,57.17571497488381]","[275,0]",32.3,550,3,"[-254,-259,-263,-267,-273,-279,-283,-288,-288,-288,-288,-288,-288,-288,-288,-288,-284,-270,-248,-206,-162,-91,-4,113,202,281,330,354,362,362,362,362,360,359,357,356,354,350,345,337,324,312,295,284]","[60,60,61,61,61,61,61,62,62,62,62,62,62,62,62,62,61,59,57,54,51,46,40,33,25,15,9,3,0,-1,-2,-2,-4,-4,-5,-6,-7,-8,-9,-9,-9,-9,-9,-7]","[0,0,0,0,0,0,0,0,0,0,0,0,0,0,0,0,0,0,0,0,0,0,0,0,0,0,0,0,0,0,0,0,0,0,0,0,0,0,0,0,0,0,0,0]","[0,0,0,0,0,0,0,0,0,0,0,0,0,0,0,0,0,0,0,0,0,0,0,0,0,0,0,0,0,0,0,0,0,0,0,0,0,0,0,0,0,0,0,0]","[0,0,0,0,0,0,0,0,0,0,0,0,0,0,0,0,0,0,0,0,0,0,0,0,0,0,0,0,0,0,0,0,0,0,0,0,0,0,0,0,0,0,0,0]","[0.0000999999940418661,0.013400000005958645,0.02670000000298245,0.03720000000298285,0.050499999999999545,0.0667000000029816,0.077200000002982,0.0932999999970221,0.10690000000595745,0.1170999999940392,0.13359999999403982,0.1467000000029799,0.1572000000029803,0.1707000000029808,0.1837999999970208,0.19959999999404232,0.210599999994038,0.22700000000000387,0.23979999999701818,0.2537999999970211,0.2640000000000029,0.277000000000001,0.2905999999940434,0.30659999999404164,0.32009999999404215,0.3335000000000008,0.34670000000298273,0.35999999999999943,0.3734000000059581,0.3869000000059586,0.40009999999404045,0.41359999999404096,0.4237999999970228,0.4369999999999976,0.4534000000059635,0.46370000000298006,0.4804000000059574,0.4934000000059626,0.503900000005963,0.5170999999940378,0.5334000000059618,0.5435999999940364,0.560200000002979,0.5702999999970189]",,12,0,12,0,1,,,,
,,A123456789,2022-11-28_04h48.03.556,GoFitts,2022.2.4,Win32,76.09191904,,,,,,,,,,,,,,,,,,"[275,0]","[-268.9905902017966,-57.175714974883746]",32.3,550,3,"[284,269,260,254,251,251,251,250,246,240,226,214,192,164,134,80,33,-1,-55,-94,-126,-151,-173,-188,-199,-207,-214,-222,-230,-236,-241,-246,-255]","[-7,-5,-3,-2,-2,-1,-1,-1,-1,-1,-1,-2,-4,-6,-9,-14,-20,-23,-28,-32,-35,-37,-40,-42,-44,-45,-47,-48,-50,-51,-52,-54,-56]","[0,0,0,0,0,0,0,0,0,0,0,0,0,0,0,0,0,0,0,0,0,0,0,0,0,0,0,0,0,0,0,0,0]","[0,0,0,0,0,0,0,0,0,0,0,0,0,0,0,0,0,0,0,0,0,0,0,0,0,0,0,0,0,0,0,0,0]","[0,0,0,0,0,0,0,0,0,0,0,0,0,0,0,0,0,0,0,0,0,0,0,0,0,0,0,0,0,0,0,0,0]","[0.00020000000297670795,0.016200000002974946,0.02949999999999875,0.04299999999999926,0.056400000005957907,0.06990000000595842,0.08299999999999841,0.09340000000595694,0.10970000000298086,0.12009999999403931,0.13609999999403755,0.1467000000029799,0.15990000000595472,0.17320000000297853,0.1867999999970209,0.2029000000059611,0.21629999999701965,0.22670000000297819,0.242999999999995,0.2562999999970188,0.26950000000000074,0.28279999999701744,0.29629999999701795,0.30959999999403465,0.3230000000000004,0.33620000000297523,0.34670000000297563,0.36299999999999955,0.37629999999701624,0.38959999999404005,0.4029000000059568,0.4132000000029805,0.4295999999940392]",,13,0,13,0,1,,,,
,,A123456789,2022-11-28_04h48.03.556,GoFitts,2022.2.4,Win32,76.09191904,,,,,,,,,,,,,,,,,,"[-268.9905902017966,-57.175714974883746]","[251.22500085171524,111.85257684584504]",32.3,550,3,"[-255,-262,-268,-274,-278,-284,-286,-287,-288,-288,-288,-288,-288,-288,-288,-285,-273,-251,-217,-158,-88,-8,77,148,194,243,266,275,280,283,284,284,286,287,288,289,290,290,288,284,280,274,270,267,264]","[-56,-57,-59,-61,-63,-64,-65,-65,-66,-66,-66,-66,-66,-66,-66,-65,-61,-51,-38,-18,4,28,51,67,74,82,86,88,90,91,91,93,94,96,98,102,103,106,109,112,114,116,118,119,120]","[0,0,0,0,0,0,0,0,0,0,0,0,0,0,0,0,0,0,0,0,0,0,0,0,0,0,0,0,0,0,0,0,0,0,0,0,0,0,0,0,0,0,0,0,0]","[0,0,0,0,0,0,0,0,0,0,0,0,0,0,0,0,0,0,0,0,0,0,0,0,0,0,0,0,0,0,0,0,0,0,0,0,0,0,0,0,0,0,0,0,0]","[0,0,0,0,0,0,0,0,0,0,0,0,0,0,0,0,0,0,0,0,0,0,0,0,0,0,0,0,0,0,0,0,0,0,0,0,0,0,0,0,0,0,0,0,0]","[0.00009999999403476068,0.013999999999995794,0.02640000000595677,0.03970000000298057,0.04990000000595529,0.06679999999701636,0.07990000000595643,0.08990000000596154,0.10340000000595495,0.11640000000596018,0.1299000000059607,0.14570000000297512,0.1567000000029779,0.17009999999403647,0.1832999999970184,0.19690000000596086,0.21279999999701715,0.22629999999701766,0.2397000000029763,0.2530000000000001,0.26620000000297495,0.2795999999940406,0.29299999999999926,0.3064000000059579,0.3167000000029816,0.3329999999999984,0.3462999999970151,0.3565999999940388,0.36999999999999744,0.3864000000059562,0.39659999999403794,0.41009999999403846,0.4232999999970204,0.43670000000297904,0.45020000000297955,0.4664000000059616,0.47659999999403624,0.4902000000029787,0.5062000000029769,0.5195000000000007,0.5300999999940359,0.5464000000059599,0.5594999999999999,0.5730999999940352,0.586400000005959]",,14,0,14,0,1,,,,
,,A123456789,2022-11-28_04h48.03.556,GoFitts,2022.2.4,Win32,76.09191904,,,,,,,,,,,,,,,,,,,,,,3,,,,,,,,,,,,,3,0,0,1
,,A123456789,2022-11-28_04h48.03.556,GoFitts,2022.2.4,Win32,76.09191904,,,,,,,,,,,,,,,,return,0.4007,"[-154,-67]","[15.450849718747362,-47.55282581475768]",80,100,4,"[-154,-155,-155,-155,-156,-156,-156,-156,-153,-148,-140,-130,-119,-105,-94,-83,-74,-65,-58,-54,-49,-44,-41,-38,-34,-32,-28,-23]","[-67,-67,-67,-67,-67,-67,-67,-67,-66,-63,-61,-56,-53,-49,-46,-45,-45,-45,-44,-44,-44,-44,-44,-44,-45,-47,-48,-50]","[0,0,0,0,0,0,0,0,0,0,0,0,0,0,0,0,0,0,0,0,0,0,0,0,0,0,0,0]","[0,0,0,0,0,0,0,0,0,0,0,0,0,0,0,0,0,0,0,0,0,0,0,0,0,0,0,0]","[0,0,0,0,0,0,0,0,0,0,0,0,0,0,0,0,0,0,0,0,0,0,0,0,0,0,0,0]","[0.00029999999701857405,0.01309999999403999,0.022899999991054187,0.03629999999701994,0.052899999991055324,0.06299999999999528,0.0764999999999958,0.09279999999701971,0.10619999998807828,0.11929999999701835,0.13299999999999557,0.14589999999105885,0.15909999999404079,0.1725999999940342,0.1860999999940347,0.1991999999880747,0.2103999999910542,0.22589999999105714,0.23919999998807384,0.2516999999880767,0.2655999999940377,0.2791999999880801,0.2924999999999969,0.30279999999702056,0.3192999999970212,0.332499999999996,0.343299999997015,0.35929999999702034]",,0,0,0,0,1,,,,
,,A123456789,2022-11-28_04h48.03.556,GoFitts,2022.2.4,Win32,76.09191904,,,,,,,,,,,,,,,,,,"[15.450849718747362,-47.55282581475768]","[-24.99999999999999,43.30127018922194]",80,100,4,"[-23,-18,-13,-9,-6,-3,-2,-1,-1,-1,-1,-2,-7,-15,-28,-43,-57,-65,-68,-68,-67,-64,-60]","[-50,-51,-53,-54,-54,-55,-55,-55,-55,-55,-55,-55,-53,-50,-44,-35,-25,-17,-7,4,15,24,34]","[0,0,0,0,0,0,0,0,0,0,0,0,0,0,0,0,0,0,0,0,0,0,0]","[0,0,0,0,0,0,0,0,0,0,0,0,0,0,0,0,0,0,0,0,0,0,0]","[0,0,0,0,0,0,0,0,0,0,0,0,0,0,0,0,0,0,0,0,0,0,0]","[0.00029999999701857405,0.01309999999403999,0.026499999999998636,0.03659999999403851,0.05000000000000426,0.06329999999702096,0.07679999999702147,0.09029999999702198,0.10419999998808294,0.11719999998808106,0.13069999998808157,0.1436999999880797,0.15689999999106163,0.17009999999404357,0.18339999999106027,0.19969999998807708,0.21309999999404283,0.22639999999105953,0.23969999998808333,0.253099999994042,0.2663999999910587,0.27649999999999864,0.290099999994041]",,1,0,1,0,1,,,,
,,A123456789,2022-11-28_04h48.03.556,GoFitts,2022.2.4,Win32,76.09191904,,,,,,,,,,,,,,,,,,"[-24.99999999999999,43.30127018922194]","[33.45653031794292,-37.1572412738697]",80,100,4,"[-60,-55,-51,-49,-48,-47,-45,-41,-34,-23,-14,-5,7]","[34,44,48,51,51,51,50,45,36,20,5,-10,-23]","[0,0,0,0,0,0,0,0,0,0,0,0,0]","[0,0,0,0,0,0,0,0,0,0,0,0,0]","[0,0,0,0,0,0,0,0,0,0,0,0,0]","[0.00020000000298381337,0.01620000000298205,0.02620000000298006,0.03970000000298057,0.05329999999702295,0.06650000000000489,0.08289999999106357,0.09309999999404539,0.10639999999106209,0.12300000000000466,0.13609999999404465,0.14939999999106135,0.16270000000298523]",,2,0,2,0,1,,,,
,,A123456789,2022-11-28_04h48.03.556,GoFitts,2022.2.4,Win32,76.09191904,,,,,,,,,,,,,,,,,,"[33.45653031794292,-37.1572412738697]","[-40.450849718747364,29.38926261462366]",80,100,4,"[7,20,31,35,41,43,43,43,43,43,39,34,26,12,-11,-32]","[-23,-35,-43,-45,-48,-48,-48,-48,-48,-48,-44,-39,-36,-26,-13,-1]","[0,0,0,0,0,0,0,0,0,0,0,0,0,0,0,0]","[0,0,0,0,0,0,0,0,0,0,0,0,0,0,0,0]","[0,0,0,0,0,0,0,0,0,0,0,0,0,0,0,0]","[0.00020000000298381337,0.014500000000005286,0.027299999997019597,0.040900000005962056,0.05390000000596018,0.06700000000000017,0.08009999999404016,0.09029999999702198,0.10640000000596217,0.11690000000596257,0.13350000000000506,0.14659999999404505,0.15690000000596172,0.17020000000298552,0.1865999999940442,0.20020000000297955]",,3,0,3,0,1,,,,
,,A123456789,2022-11-28_04h48.03.556,GoFitts,2022.2.4,Win32,76.09191904,,,,,,,,,,,,,,,,,,"[-40.450849718747364,29.38926261462366]","[45.67727288213005,-20.336832153790006]",80,100,4,"[-32,-44,-52,-56,-57,-57,-57,-57,-53,-41,-26,-12,15]","[-1,7,12,16,16,16,16,16,15,8,-1,-10,-27]","[0,0,0,0,0,0,0,0,0,0,0,0,0]","[0,0,0,0,0,0,0,0,0,0,0,0,0]","[0,0,0,0,0,0,0,0,0,0,0,0,0]","[0.0000999999940418661,0.012999999999998124,0.026299999997021928,0.039599999994038626,0.05289999999106243,0.06539999999105817,0.07669999998807953,0.09299999999999642,0.1030999999940363,0.11979999999702073,0.13279999999701886,0.1431999999880773,0.15939999999105936]",,4,0,4,0,1,,,,
,,A123456789,2022-11-28_04h48.03.556,GoFitts,2022.2.4,Win32,76.09191904,,,,,,,,,,,,,,,,,,"[45.67727288213005,-20.336832153790006]","[-48.907380036690284,10.395584540887965]",80,100,4,"[15,34,53,64,68,69,69,68,62,47,36,16,-1,-16]","[-27,-38,-47,-52,-54,-54,-54,-54,-52,-46,-39,-29,-19,-11]","[0,0,0,0,0,0,0,0,0,0,0,0,0,0]","[0,0,0,0,0,0,0,0,0,0,0,0,0,0]","[0,0,0,0,0,0,0,0,0,0,0,0,0,0]","[0.00020000000298381337,0.012999999999998124,0.026600000008940583,0.040100000008941095,0.053200000002981085,0.06649999999999778,0.07680000001192155,0.09010000000893825,0.10370000000298063,0.11999999999999744,0.1301000000089445,0.14650000000000318,0.15980000001191996,0.17320000000297853]",,5,0,5,0,1,,,,
,,A123456789,2022-11-28_04h48.03.556,GoFitts,2022.2.4,Win32,76.09191904,,,,,,,,,,,,,,,,,,"[-48.907380036690284,10.395584540887965]","[50,0]",80,100,4,"[-16,-26,-31,-35,-36,-37,-37,-37,-37,-33,-26,-20,-4,10,22]","[-11,-8,-5,-5,-4,-4,-4,-4,-4,-4,-5,-5,-5,-4,-3]","[0,0,0,0,0,0,0,0,0,0,0,0,0,0,0]","[0,0,0,0,0,0,0,0,0,0,0,0,0,0,0]","[0,0,0,0,0,0,0,0,0,0,0,0,0,0,0]","[0.00029999999701857405,0.013299999997016698,0.023499999999998522,0.03970000000298057,0.05299999999999727,0.06679999999701636,0.07690000000595631,0.09250000000000114,0.1065999999940388,0.11690000000596257,0.13309999999403743,0.14659999999403794,0.15979999999701988,0.1732999999970204,0.18340000000596035]",,6,0,6,0,1,,,,
,,A123456789,2022-11-28_04h48.03.556,GoFitts,2022.2.4,Win32,76.09191904,,,,,,,,,,,,,,,,,,"[50,0]","[-48.907380036690284,-10.395584540887953]",80,100,4,"[22,41,48,49,49,49,46,40,26,10,-8,-24]","[-3,-2,-2,-2,-2,-2,-2,-2,-2,-2,-4,-6]","[0,0,0,0,0,0,0,0,0,0,0,0]","[0,0,0,0,0,0,0,0,0,0,0,0]","[0,0,0,0,0,0,0,0,0,0,0,0]","[0.00020000000298381337,0.016100000008940185,0.029600000008940697,0.042800000011922634,0.05300000000000438,0.06640000000596302,0.07990000000596353,0.09310000000894547,0.10950000000000415,0.1229000000059628,0.13630000001192144,0.14960000000894524]",,7,0,7,0,1,,,,
,,A123456789,2022-11-28_04h48.03.556,GoFitts,2022.2.4,Win32,76.09191904,,,,,,,,,,,,,,,,,,"[-48.907380036690284,-10.395584540887953]","[45.67727288213004,20.336832153790006]",80,100,4,"[-24,-37,-42,-44,-44,-45,-45,-42,-36,-29,-21,-8,4,20]","[-6,-7,-8,-9,-9,-9,-9,-8,-3,2,7,13,19,25]","[0,0,0,0,0,0,0,0,0,0,0,0,0,0]","[0,0,0,0,0,0,0,0,0,0,0,0,0,0]","[0,0,0,0,0,0,0,0,0,0,0,0,0,0]","[0.00019999998807662678,0.01309999999403999,0.026499999999998636,0.03669999998808038,0.053199999988081004,0.06349999999999767,0.07969999998807964,0.09009999999403817,0.10709999999404118,0.1198999999910626,0.13009999999403732,0.14339999999106112,0.15689999999106163,0.17300000000000182]",,8,0,8,0,1,,,,
,,A123456789,2022-11-28_04h48.03.556,GoFitts,2022.2.4,Win32,76.09191904,,,,,,,,,,,,,,,,,,"[45.67727288213004,20.336832153790006]","[-40.45084971874737,-29.38926261462365]",80,100,4,"[20,29,35,39,39,39,39,39,39,34,26,20,3,-14,-28]","[25,28,32,33,34,34,34,34,33,28,24,19,10,2,-4]","[0,0,0,0,0,0,0,0,0,0,0,0,0,0,0]","[0,0,0,0,0,0,0,0,0,0,0,0,0,0,0]","[0,0,0,0,0,0,0,0,0,0,0,0,0,0,0]","[0.00020000000298381337,0.013200000002981938,0.025500000000000966,0.039400000005962,0.05020000000298097,0.06590000000596064,0.07670000000297961,0.09320000000298023,0.10350000000000392,0.12010000000893939,0.13330000001192133,0.14330000001191934,0.1600000000000037,0.17300000000000182,0.1833000000119256]",,9,0,9,0,1,,,,
,,A123456789,2022-11-28_04h48.03.556,GoFitts,2022.2.4,Win32,76.09191904,,,,,,,,,,,,,,,,,,"[-40.45084971874737,-29.38926261462365]","[33.456530317942914,37.157241273869715]",80,100,4,"[-28,-50,-60,-63,-63,-63,-63,-59,-53,-42,-30,-17,-8,-4,-2,-2,-2,-2,-3,-4,-7,-8,-8,-8,-8,-8,-7,-3,1,10]","[-4,-15,-18,-19,-19,-19,-19,-15,-11,-4,2,7,9,9,9,9,7,4,0,-6,-11,-12,-14,-14,-14,-13,-8,-1,5,15]","[0,0,0,0,0,0,0,0,0,0,0,0,0,0,0,0,0,0,0,0,0,0,0,0,0,0,0,0,0,0]","[0,0,0,0,0,0,0,0,0,0,0,0,0,0,0,0,0,0,0,0,0,0,0,0,0,0,0,0,0,0]","[0,0,0,0,0,0,0,0,0,0,0,0,0,0,0,0,0,0,0,0,0,0,0,0,0,0,0,0,0,0]","[0.00020000000297670795,0.01640000000595876,0.029400000005956883,0.040100000008941095,0.056400000005957907,0.06700000000000017,0.08010000000894024,0.0956000000089432,0.10660000000893888,0.1231000000089395,0.13630000001192144,0.14970000000298,0.1629999999999967,0.1763000000119206,0.1898000000119211,0.2031000000089378,0.21670000000298018,0.22980000001192025,0.24010000000893683,0.25340000000596064,0.26970000000297745,0.28000000000000114,0.2933000000119179,0.3101000000089371,0.3200000000000003,0.33570000000297995,0.349600000008941,0.36299999999999955,0.37349999999999994,0.389700000002982]",,10,0,10,0,1,,,,
,,A123456789,2022-11-28_04h48.03.556,GoFitts,2022.2.4,Win32,76.09191904,,,,,,,,,,,,,,,,,,"[33.456530317942914,37.157241273869715]","[-25.00000000000002,-43.301270189221924]",80,100,4,"[10,16,21,26,29,29,30,30,30,30,29,27,22,16,5,-6]","[15,25,32,37,40,41,41,41,41,39,35,26,15,3,-14,-30]","[0,0,0,0,0,0,0,0,0,0,0,0,0,0,0,0]","[0,0,0,0,0,0,0,0,0,0,0,0,0,0,0,0]","[0,0,0,0,0,0,0,0,0,0,0,0,0,0,0,0]","[0.00010000000894194727,0.013600000008942459,0.02640000000595677,0.03960000000893871,0.052900000005955405,0.06630000001192116,0.07660000000893774,0.09320000000298023,0.10320000000297824,0.11980000001192082,0.1299000000059607,0.14660000000893803,0.15960000000893615,0.17310000000893666,0.18640000000596046,0.1996000000089424]",,11,0,11,0,1,,,,
