身分證字號,date,expName,psychopyVersion,OS,frameRate,from,to,w,a,id,sequence_loop.thisN,enter_time,leave_time,mouse.x,mouse.y,mouse.leftButton,mouse.midButton,mouse.rightButton,mouse.time,trial_loop.thisRepN,trial_loop.thisTrialN,trial_loop.thisN,trial_loop.thisIndex,trial_loop.ran,sequence_loop.thisRepN,sequence_loop.thisTrialN,sequence_loop.thisIndex,sequence_loop.ran
A222222222,2024-09-11_14h57.20.038,GoFitts,2023.2.3,MacIntel,29.94011976,,,,,,,,,,,,,,,,,,,,,,,
A222222222,2024-09-11_14h57.20.038,GoFitts,2023.2.3,MacIntel,29.94011976,,,,,,,,,,,,,,,,,,,,,,,
A222222222,2024-09-11_14h57.20.038,GoFitts,2023.2.3,MacIntel,29.94011976,"[74.46875,84.26171875]","[-34.52948699526713,328.526123690311]",51,660.6714748,4.75,0,2.1303,1.63,"[74.46875,74.46875,74.46875,74.46875,74.46875,74.46875,74.46875,74.46875,74.46875,74.46875,74.46875,74.46875,74.46875,74.46875,74.46875,74.46875,75.21484375,78.7890625,79.16796875,72.6484375,50.33984375,27.90234375,16.64453125,10.0078125,3.98828125,-2.13671875,-4.24609375,-4.24609375,-4.24609375,-4.24609375,-4.24609375,-4.24609375,-4.24609375,-15.296875,-23.421875,-32.921875,-36.75390625,-37.8359375,-37.8359375,-37.8359375,-37.8359375,-38.21875,-39.12890625,-39.51171875,-39.51171875,-39.51171875,-39.51171875,-39.51171875,-39.51171875,-39.51171875,-40.18359375,-41.23828125,-41.23828125,-41.52734375,-41.52734375,-39.5234375,-37.140625,-34.90234375,-33.48046875,-32.41015625,-29.94140625,-27.03515625,-27.03515625,-27.3046875,-31.80078125,-34.1953125,-34.72265625,-34.72265625,-34.72265625,-34.72265625,-34.72265625,-34.72265625,-34.72265625,-34.1640625,-33.87890625,-33.87890625,-33.87890625,-33.87890625,-33.87890625,-33.87890625,-33.87890625]","[84.26171875,84.26171875,84.26171875,84.26171875,84.26171875,84.26171875,84.26171875,84.26171875,84.26171875,84.26171875,84.26171875,84.26171875,84.26171875,84.26171875,84.26171875,84.26171875,83.01953125,77.296875,76.60546875,80.8203125,104.37109375,170.65234375,228.88671875,254.734375,262.37890625,264.77734375,264.77734375,264.77734375,264.77734375,264.77734375,264.77734375,264.77734375,264.77734375,278.95703125,290.0234375,303.0546875,307.5546875,308.63671875,308.63671875,308.63671875,308.63671875,309.92578125,312.796875,313.5625,313.8515625,313.8515625,313.8515625,313.8515625,312.5546875,300.04296875,287.99609375,284.4765625,283.78515625,283.78515625,287.125,295.15234375,301.2734375,306.4453125,309.98046875,310.36328125,308,302.84375,301.03515625,301.03515625,305.140625,311.25,314.78515625,315.484375,315.80078125,315.80078125,315.80078125,315.80078125,315.80078125,315.2421875,314.93359375,314.93359375,314.93359375,314.93359375,314.93359375,314.93359375,314.93359375]","[0,0,0,0,0,0,0,0,0,0,0,0,0,0,0,0,0,0,0,0,0,0,0,0,0,0,0,0,0,0,0,0,0,0,0,0,0,0,0,0,0,0,0,0,0,0,0,0,0,0,0,0,0,0,0,0,0,0,0,0,0,0,0,0,0,0,0,0,0,0,0,0,0,0,0,0,0,0,0,0,0]","[0,0,0,0,0,0,0,0,0,0,0,0,0,0,0,0,0,0,0,0,0,0,0,0,0,0,0,0,0,0,0,0,0,0,0,0,0,0,0,0,0,0,0,0,0,0,0,0,0,0,0,0,0,0,0,0,0,0,0,0,0,0,0,0,0,0,0,0,0,0,0,0,0,0,0,0,0,0,0,0,0]","[0,0,0,0,0,0,0,0,0,0,0,0,0,0,0,0,0,0,0,0,0,0,0,0,0,0,0,0,0,0,0,0,0,0,0,0,0,0,0,0,0,0,0,0,0,0,0,0,0,0,0,0,0,0,0,0,0,0,0,0,0,0,0,0,0,0,0,0,0,0,0,0,0,0,0,0,0,0,0,0,0]","[0.0002999999821220456,0.029399999976160274,0.06279999998212205,0.09650000000000247,0.12969999998808035,0.16279999998211991,0.1963999999761583,0.22929999998212125,0.2617999999821201,0.2960000000000029,0.329399999976161,0.3626999999880809,0.39539999997615993,0.42939999997615885,0.46309999999404283,0.49609999999404053,0.5298999999761591,0.5635999999940395,0.5966999999880791,0.6300000000000026,0.6623999999761594,0.6956999999880793,0.7300999999940423,0.762299999982119,0.7965000000000018,0.8300000000000018,0.8635999999940402,0.8960999999940427,0.9293999999761589,0.9627999999821206,0.9961999999880824,1.0295999999940406,1.062799999982122,1.0970000000000013,1.1300000000000026,1.1632999999821187,1.1975999999940399,1.2298999999761584,1.2628999999761596,1.2960999999940412,1.3290000000000006,1.3630999999940414,1.3965999999940415,1.4298999999761612,1.4631999999880811,1.4960999999940405,1.5295000000000023,1.5628999999761604,1.5956999999880814,1.6300999999940409,1.6631999999880804,1.6965000000000003,1.7300000000000004,1.7632999999821202,1.79659999999404,1.8298999999761598,1.8632999999821216,1.8971999999880822,1.9295000000000009,1.9626999999880823,1.9960999999940405,2.0295999999940406,2.0630999999940407,2.0963999999761604,2.1303999999761594,2.1631999999880804,2.1966999999880805,2.2292999999821212,2.2626999999880795,2.2963999999761597,2.3297999999821215,2.362699999988081,2.396399999976161,2.43019999998808,2.463199999988081,2.496000000000002,2.5293999999761603,2.56269999998808,2.596099999994042,2.629599999994042,2.6633999999761606]",0,0,0,0,1,,,,
A222222222,2024-09-11_14h57.20.038,GoFitts,2023.2.3,MacIntel,29.94011976,"[-34.52948699526713,328.526123690311]","[102.07935671324655,-314.1679556417993]",51,660.6714748,4.75,0,1.1322,0.199,"[-33.87890625,-33.87890625,-33.87890625,-33.87890625,-33.87890625,-33.87890625,-33.87890625,-33.87890625,-34.40234375,-34.40234375,-34.40234375,-35.34375,-36.83203125,-37.6484375,-38.46484375,-38.46484375,-38.46484375,-38.46484375,-10.1171875,52.74609375,116.38671875,119.6953125,119.6953125,119.6953125,119.6953125,119.6953125,119.6953125,118.734375,112.984375,100.78125,92.25390625,85.38671875,82.3203125,80.9765625,80.9765625,80.9765625,80.9765625,80.9765625,80.9765625,82.55078125,88.65234375,91.51171875,92.26953125,92.5546875,92.5546875,92.5546875,92.5546875,92.5546875,92.5546875,92.5546875,92.5546875]","[314.93359375,314.93359375,314.93359375,314.93359375,314.93359375,314.1875,298.13671875,266.65234375,257.10546875,254.91796875,254.5390625,256.9296875,266.20703125,277.95703125,292.48828125,303.01171875,304.16015625,288.5078125,182.89453125,6.1953125,-152.56640625,-159.1875,-159.1875,-159.1875,-159.1875,-159.1875,-159.43359375,-176.93359375,-196.65234375,-229.78125,-254.9765625,-269.375,-275.484375,-288.828125,-305.171875,-313.44921875,-315.63671875,-316.015625,-316.015625,-316.015625,-315.48828125,-315.48828125,-315.48828125,-315.48828125,-315.48828125,-315.48828125,-315.48828125,-315.48828125,-315.48828125,-315.48828125,-315.48828125]","[0,0,0,0,0,0,0,0,0,0,0,0,0,0,0,0,0,0,0,0,0,0,0,0,0,0,0,0,0,0,0,0,0,0,0,0,0,0,0,0,0,0,0,0,0,0,0,0,0,0,0]","[0,0,0,0,0,0,0,0,0,0,0,0,0,0,0,0,0,0,0,0,0,0,0,0,0,0,0,0,0,0,0,0,0,0,0,0,0,0,0,0,0,0,0,0,0,0,0,0,0,0,0]","[0,0,0,0,0,0,0,0,0,0,0,0,0,0,0,0,0,0,0,0,0,0,0,0,0,0,0,0,0,0,0,0,0,0,0,0,0,0,0,0,0,0,0,0,0,0,0,0,0,0,0]","[0,0.03159999999403951,0.0648000000119211,0.09820000001788287,0.13630000001192144,0.16530000001192136,0.19900000000000162,0.23320000001788443,0.26520000001788446,0.29850000000000065,0.3319000000059624,0.3650999999940403,0.3985000000000021,0.4319000000059603,0.46520000001788375,0.49849999999999994,0.531300000011921,0.5654000000059618,0.5980999999940408,0.631700000017883,0.665200000017883,0.6985999999940411,0.7313000000119239,0.7649000000059623,0.7979000000059635,0.8314000000059636,0.8650999999940403,0.8985000000000021,0.931800000011922,0.9653000000119221,0.9988000000119222,1.0314000000059629,1.0652000000178816,1.0988000000119236,1.1323000000119237,1.1653000000119214,1.1983000000119226,1.2320000000000029,1.2649000000059623,1.2985999999940425,1.3313000000119217,1.3648000000119218,1.3985999999940404,1.4319000000059603,1.4649000000059615,1.4983000000119233,1.5314000000059629,1.5645999999940408,1.5980000000000025,1.6315000000000026,1.6649000000059608]",1,0,1,0,1,,,,
A222222222,2024-09-11_14h57.20.038,GoFitts,2023.2.3,MacIntel,29.94011976,"[102.07935671324655,-314.1679556417993]","[-165.1678687117577,286.0791403866304]",51,660.6714748,4.75,0,1.1999,0.5326,"[92.5546875,92.5546875,92.5546875,92.5546875,92.5546875,92.5546875,92.5546875,92.5546875,92.5546875,92.5546875,92.5546875,92.5546875,92.5546875,92.5546875,92.5546875,92.5546875,78.34765625,47.0625,-24.72265625,-100.99609375,-136.84765625,-153.1171875,-160.20703125,-162.5546875,-162.87109375,-162.87109375,-162.87109375,-162.87109375,-162.87109375,-165.765625,-171.625,-174.98046875,-174.98046875,-174.98046875,-174.45703125,-172.234375,-169.71484375,-168.2890625,-168.2890625,-168.2890625,-168.2890625,-167.91015625,-167.53125,-167.53125,-167.53125,-167.53125,-167.53125,-167.53125,-167.53125,-167.53125,-167.53125,-167.53125,-167.53125]","[-315.48828125,-315.48828125,-315.48828125,-315.48828125,-315.48828125,-315.48828125,-315.48828125,-315.48828125,-315.48828125,-315.48828125,-315.48828125,-315.48828125,-315.48828125,-315.48828125,-315.48828125,-315.48828125,-282.97265625,-203.76953125,-10.4140625,194.8125,299.765625,344.73828125,361.40234375,363.89453125,363.89453125,363.89453125,363.89453125,363.89453125,363.89453125,363.37109375,357.38671875,349.078125,336.140625,324.38671875,318.3125,313.19921875,306.15234375,302.24609375,301.55859375,301.55859375,301.55859375,300.9296875,299.86328125,299.86328125,299.86328125,299.86328125,299.86328125,299.86328125,299.86328125,299.86328125,299.86328125,299.86328125,299.86328125]","[0,0,0,0,0,0,0,0,0,0,0,0,0,0,0,0,0,0,0,0,0,0,0,0,0,0,0,0,0,0,0,0,0,0,0,0,0,0,0,0,0,0,0,0,0,0,0,0,0,0,0,0,0]","[0,0,0,0,0,0,0,0,0,0,0,0,0,0,0,0,0,0,0,0,0,0,0,0,0,0,0,0,0,0,0,0,0,0,0,0,0,0,0,0,0,0,0,0,0,0,0,0,0,0,0,0,0]","[0,0,0,0,0,0,0,0,0,0,0,0,0,0,0,0,0,0,0,0,0,0,0,0,0,0,0,0,0,0,0,0,0,0,0,0,0,0,0,0,0,0,0,0,0,0,0,0,0,0,0,0,0]","[0.00009999999403831339,0.03200000000000003,0.0648000000119211,0.09850000000000136,0.13209999999403976,0.16499999999999915,0.1986999999880794,0.23199999999999932,0.2654999999999994,0.2989000000059612,0.33240000000596126,0.3655000000000008,0.39890000000595904,0.4323000000119208,0.4654999999999987,0.4986999999880801,0.532699999988079,0.5659000000059606,0.5993000000119224,0.6314999999999991,0.6654000000059597,0.6984000000059609,0.7325000000000017,0.7659999999999982,0.7995999999940402,0.832099999994039,0.8656999999880775,0.898900000005959,0.9323000000119208,0.9661999999880777,0.999199999988079,1.032699999988079,1.0660999999940408,1.0993000000119224,1.1329999999999991,1.1661999999880805,1.199900000005961,1.2325000000000017,1.26609999999404,1.2989000000059612,1.3321999999880774,1.3658000000119195,1.3994999999999997,1.4323000000119208,1.4646999999880776,1.4988000000119222,1.5321999999880802,1.5655000000000001,1.5983000000119212,1.632400000005962,1.6655999999940398,1.698599999994041,1.7325000000000017]",2,0,2,0,1,,,,
A222222222,2024-09-11_14h57.20.038,GoFitts,2023.2.3,MacIntel,29.94011976,"[-165.1678687117577,286.0791403866304]","[221.03775228419764,-245.48729393654475]",51,660.6714748,4.75,0,1.7329,0.5659,"[-167.53125,-167.53125,-167.53125,-167.53125,-167.53125,-167.53125,-167.53125,-167.53125,-167.53125,-167.53125,-167.53125,-167.53125,-167.53125,-167.53125,-167.53125,-167.53125,-162.50390625,-137.28125,-86.26171875,-36.89453125,-8.890625,8.56640625,21.29296875,31.24609375,50.00390625,71.88671875,87.39453125,99.90234375,105.4296875,112.44140625,120.98828125,128.30078125,135.7890625,147.80078125,162.33984375,172.53125,182.015625,192.8203125,209.78125,216.21875,219.84765625,221.12890625,222.64453125,224.15625,224.84765625,224.84765625,224.84765625,224.84765625,224.84765625,224.84765625,224.84765625,224.84765625,224.3203125,224.3203125,224.3203125,224.3203125,223.9375,223.9375,223.9375,223.9375,223.9375,223.9375,223.9375,223.9375,223.9375,223.9375,223.9375,223.9375,223.9375]","[299.86328125,299.86328125,299.86328125,299.86328125,299.86328125,299.86328125,299.86328125,299.86328125,299.86328125,299.86328125,299.86328125,299.86328125,299.86328125,299.86328125,299.86328125,299.86328125,299.86328125,282.34375,236.69921875,185.78515625,141.8515625,109.03515625,81.37109375,60.4765625,24.03515625,-14.015625,-41.140625,-61.8984375,-73.921875,-84.83984375,-97.5859375,-109.7734375,-118.59765625,-132.37890625,-151.17578125,-166.796875,-178.87109375,-197.18359375,-245.74609375,-269.0234375,-277.9140625,-280.1015625,-280.48046875,-280.48046875,-280.48046875,-280.48046875,-280.48046875,-280.48046875,-280.48046875,-280.48046875,-279.078125,-273.90625,-266.74609375,-265,-264.6171875,-264.03125,-262.8828125,-262.1875,-261.8984375,-261.8984375,-261.8984375,-261.8984375,-261.8984375,-261.8984375,-261.8984375,-261.8984375,-261.8984375,-261.8984375,-261.8984375]","[0,0,0,0,0,0,0,0,0,0,0,0,0,0,0,0,0,0,0,0,0,0,0,0,0,0,0,0,0,0,0,0,0,0,0,0,0,0,0,0,0,0,0,0,0,0,0,0,0,0,0,0,0,0,0,0,0,0,0,0,0,0,0,0,0,0,0,0,0]","[0,0,0,0,0,0,0,0,0,0,0,0,0,0,0,0,0,0,0,0,0,0,0,0,0,0,0,0,0,0,0,0,0,0,0,0,0,0,0,0,0,0,0,0,0,0,0,0,0,0,0,0,0,0,0,0,0,0,0,0,0,0,0,0,0,0,0,0,0]","[0,0,0,0,0,0,0,0,0,0,0,0,0,0,0,0,0,0,0,0,0,0,0,0,0,0,0,0,0,0,0,0,0,0,0,0,0,0,0,0,0,0,0,0,0,0,0,0,0,0,0,0,0,0,0,0,0,0,0,0,0,0,0,0,0,0,0,0,0]","[0,0.03219999998808021,0.0648000000119211,0.09869999998807799,0.13219999998807808,0.16540000000595967,0.1985999999940411,0.2321999999880795,0.2654000000059611,0.29869999998808083,0.3321999999880809,0.36559999999403914,0.3983000000119219,0.4323000000119208,0.4654000000059604,0.4986999999880801,0.5324000000059605,0.5659000000059606,0.5993000000119224,0.6321999999880781,0.6655999999940398,0.6986999999880794,0.7320999999940412,0.7664000000059623,0.8014000000059625,0.8315000000000019,0.8655999999940391,0.8989000000059626,0.9324000000059627,0.9656999999880789,0.9994000000059593,1.0325999999940407,1.0658000000119223,1.0990999999940385,1.1328000000119225,1.1661999999880805,1.198999999999998,1.232300000011918,1.266300000011924,1.2990999999940414,1.3328000000119218,1.365800000011923,1.399599999994038,1.4320000000000022,1.4656999999880824,1.4986999999880766,1.5314000000059593,1.5653000000119235,1.5976999999880803,1.6323000000119237,1.6658000000119202,1.6991999999880818,1.7329000000059622,1.765500000000003,1.7989000000059576,1.8321999999880774,1.8655999999940391,1.8990999999940428,1.9323000000119208,1.96519999998808,1.997699999988079,2.0320000000000036,2.0653000000119235,2.0985999999940432,2.131900000005963,2.165300000011925,2.1985999999940375,2.2319000000059646,2.265199999988077]",3,0,3,0,1,,,,
A222222222,2024-09-11_14h57.20.038,GoFitts,2023.2.3,MacIntel,29.94011976,"[221.03775228419764,-245.48729393654475]","[-267.2472254250044,194.1664747627013]",51,660.6714748,4.75,0,1.0671,0.4325,"[223.9375,223.9375,223.9375,223.9375,223.9375,223.9375,223.9375,223.9375,223.9375,223.9375,223.9375,223.69140625,218.1875,198.69921875,160.0859375,88.54296875,14.89453125,-46.08203125,-90.51171875,-113.37890625,-137.1875,-156.71484375,-174.9296875,-195.734375,-212.0078125,-219.9375,-225.54296875,-231.26953125,-235.7734375,-238.5546875,-241.62109375,-245.06640625,-246.88671875,-247.26953125,-247.875,-248.50390625,-248.79296875,-250.0859375,-251.6171875,-252.69921875,-252.69921875,-252.69921875,-252.69921875,-252.69921875,-252.69921875,-252.69921875,-252.69921875,-252.69921875,-252.69921875]","[-261.8984375,-261.8984375,-261.8984375,-261.8984375,-261.8984375,-261.8984375,-261.8984375,-261.8984375,-261.8984375,-261.8984375,-261.8984375,-261.41015625,-254.5703125,-231.78125,-190.375,-124.359375,-56.6796875,0.32421875,43.0625,66.88671875,89.5859375,103.51171875,114.0546875,123.98828125,135.46875,142.734375,148.33984375,154.73828125,159.91015625,165.08203125,172.15625,177.32421875,180.19921875,180.96484375,181.25390625,181.56640625,182.33203125,183.76953125,184.91796875,185.30078125,185.30078125,185.5703125,185.5703125,185.5703125,185.5703125,185.5703125,185.5703125,185.5703125,185.5703125]","[0,0,0,0,0,0,0,0,0,0,0,0,0,0,0,0,0,0,0,0,0,0,0,0,0,0,0,0,0,0,0,0,0,0,0,0,0,0,0,0,0,0,0,0,0,0,0,0,0]","[0,0,0,0,0,0,0,0,0,0,0,0,0,0,0,0,0,0,0,0,0,0,0,0,0,0,0,0,0,0,0,0,0,0,0,0,0,0,0,0,0,0,0,0,0,0,0,0,0]","[0,0,0,0,0,0,0,0,0,0,0,0,0,0,0,0,0,0,0,0,0,0,0,0,0,0,0,0,0,0,0,0,0,0,0,0,0,0,0,0,0,0,0,0,0,0,0,0,0]","[0,0.032399999976156835,0.06569999998807674,0.09879999998211275,0.13209999999403976,0.16549999999999443,0.19879999998211417,0.23239999997615257,0.26500000000000057,0.2987999999821156,0.33229999998211923,0.36599999999999966,0.39869999998807515,0.4325999999940393,0.46609999999403584,0.4992999999821137,0.5326999999880755,0.5659999999999954,0.5996999999880757,0.6326999999880769,0.6653999999761524,0.6996999999880771,0.7327999999821131,0.7656999999880796,0.7997999999821133,0.8325999999940379,0.8659999999999997,0.8988999999761589,0.9321999999880788,0.9656999999880753,0.9993999999761556,1.0326999999880755,1.067099999994035,1.0995999999940338,1.132599999994035,1.1661999999880734,1.199699999988077,1.2326999999880783,1.2658999999761562,1.2993999999761527,1.332399999976154,1.3661999999880763,1.3991999999880775,1.431899999976153,1.465899999976159,1.4992999999821137,1.5319999999999965,1.5656999999880767,1.5991999999880733]",4,0,4,0,1,,,,
A222222222,2024-09-11_14h57.20.038,GoFitts,2023.2.3,MacIntel,29.94011976,"[-267.2472254250044,194.1664747627013]","[301.7767124202716,-134.3596489276097]",51,660.6714748,4.75,0,0.8995,0.4317,"[-252.69921875,-252.69921875,-252.69921875,-252.69921875,-252.69921875,-252.69921875,-252.69921875,-252.69921875,-252.69921875,-252.69921875,-252.69921875,-252.69921875,-250.2109375,-230.828125,-188.40234375,-128.484375,-29.53515625,38.6875,90.4375,125.9609375,161.59375,185.88671875,208.6875,229.96875,250.625,265.44921875,275.4765625,281.5859375,285.1171875,287.01171875,287.390625,287.390625,287.390625,287.390625,287.390625,287.390625,287.390625,287.390625,287.390625,287.390625,287.390625,287.390625,287.390625,287.390625]","[185.5703125,185.5703125,185.5703125,185.5703125,185.5703125,185.5703125,185.5703125,185.5703125,185.5703125,185.5703125,185.5703125,185.5703125,185.328125,179.45703125,162.8984375,135.35546875,82.203125,37.36328125,0.15625,-28.2265625,-57.171875,-69.31640625,-79.7578125,-88.8125,-102.8515625,-115.78515625,-125.51953125,-129.625,-131.57421875,-132.33203125,-132.33203125,-132.33203125,-132.33203125,-132.33203125,-132.33203125,-132.33203125,-132.33203125,-132.33203125,-132.33203125,-132.33203125,-132.33203125,-132.33203125,-132.33203125,-132.33203125]","[0,0,0,0,0,0,0,0,0,0,0,0,0,0,0,0,0,0,0,0,0,0,0,0,0,0,0,0,0,0,0,0,0,0,0,0,0,0,0,0,0,0,0,0]","[0,0,0,0,0,0,0,0,0,0,0,0,0,0,0,0,0,0,0,0,0,0,0,0,0,0,0,0,0,0,0,0,0,0,0,0,0,0,0,0,0,0,0,0]","[0,0,0,0,0,0,0,0,0,0,0,0,0,0,0,0,0,0,0,0,0,0,0,0,0,0,0,0,0,0,0,0,0,0,0,0,0,0,0,0,0,0,0,0]","[0,0.031900000005961715,0.06540000000595825,0.09890000000596189,0.1319999999999979,0.16540000000595967,0.19870000001787957,0.23100000000000165,0.26550000000000296,0.2989000000059647,0.33210000002384277,0.3654000000059625,0.3992000000178848,0.43170000001788367,0.4659000000059592,0.4992000000178791,0.5324000000059641,0.5663000000119212,0.5993000000119224,0.6316000000238446,0.6657000000178854,0.6984000000059609,0.7325000000000017,0.7659000000059635,0.7991000000238415,0.8322000000178846,0.8654000000059625,0.8995000000000033,0.9314999999999998,0.9659000000059592,0.9984000000059581,1.0320000000000036,1.064800000011921,1.0985000000000014,1.1319000000059631,1.1655000000000015,1.1987000000178796,1.2319999999999993,1.2653000000119192,1.2986000000238462,1.3314999999999984,1.3653000000119206,1.3987000000178824,1.432200000017879]",5,0,5,0,1,,,,
A222222222,2024-09-11_14h57.20.038,GoFitts,2023.2.3,MacIntel,29.94011976,"[301.7767124202716,-134.3596489276097]","[-323.1171089974442,68.6806617052545]",51,660.6714748,4.75,0,1.1668,0.3985,"[287.390625,287.390625,287.390625,287.390625,287.390625,287.390625,287.390625,287.390625,287.390625,287.390625,287.390625,285.83203125,267.73046875,213.390625,119.984375,17.65625,-73.640625,-120.89453125,-150.05078125,-172.85546875,-184.625,-192.93359375,-204.9921875,-225.04296875,-242.58984375,-259.1171875,-267.1484375,-274.2109375,-281.2890625,-287.375,-291.875,-293.40625,-294.48828125,-296.69140625,-299.55859375,-302.41796875,-303.56640625,-304.6484375,-305.03125,-305.4140625,-305.67578125,-305.67578125,-305.67578125,-305.9296875,-305.9296875,-305.9296875,-305.9296875,-305.9296875,-305.9296875,-305.9296875,-305.9296875,-305.9296875]","[-132.33203125,-132.33203125,-132.33203125,-132.33203125,-132.33203125,-132.08984375,-132.08984375,-132.08984375,-132.08984375,-132.08984375,-132.08984375,-131.05859375,-121.37890625,-96.52734375,-55.7109375,-4.5390625,39.953125,65.1328125,77.0703125,84.359375,87.48046875,88.0078125,88.0078125,88.0078125,90.7265625,91.54296875,91.54296875,90.875,88.34765625,85.98046875,83.88671875,83.5078125,83.12890625,82.2265625,80.8046875,79.38671875,78.62890625,78.25,77.5625,77.5625,77.5625,77.5625,77.5625,77.5625,77.5625,77.5625,77.5625,77.5625,77.5625,77.5625,77.5625,77.5625]","[0,0,0,0,0,0,0,0,0,0,0,0,0,0,0,0,0,0,0,0,0,0,0,0,0,0,0,0,0,0,0,0,0,0,0,0,0,0,0,0,0,0,0,0,0,0,0,0,0,0,0,0]","[0,0,0,0,0,0,0,0,0,0,0,0,0,0,0,0,0,0,0,0,0,0,0,0,0,0,0,0,0,0,0,0,0,0,0,0,0,0,0,0,0,0,0,0,0,0,0,0,0,0,0,0]","[0,0,0,0,0,0,0,0,0,0,0,0,0,0,0,0,0,0,0,0,0,0,0,0,0,0,0,0,0,0,0,0,0,0,0,0,0,0,0,0,0,0,0,0,0,0,0,0,0,0,0,0]","[0,0.03179999998211969,0.06550000000000011,0.09829999998211747,0.13259999999404215,0.1658999999761619,0.19889999997615604,0.23219999998808305,0.2656999999880796,0.29859999999403897,0.3315999999940402,0.3651999999880786,0.3985999999940404,0.43200000000000216,0.46519999998808004,0.49869999998807657,0.5321999999880802,0.5655000000000001,0.5990999999940385,0.6325999999940422,0.6660999999940387,0.6986999999880794,0.7330999999940389,0.765500000000003,0.7987999999821227,0.8325000000000031,0.8655999999940391,0.8978999999761612,0.932099999994044,0.9652999999821219,0.9987999999821184,1.0324999999999989,1.0655000000000001,1.0990999999940385,1.1327999999821188,1.1667999999821177,1.1995999999940423,1.2320999999940412,1.265299999982119,1.2985000000000042,1.3320000000000007,1.365000000000002,1.3986999999880823,1.4323999999761625,1.4655999999940406,1.4985999999940418,1.5321999999880802,1.5655000000000001,1.5990000000000038,1.6320999999940398,1.6653999999761595,1.698999999999998]",6,0,6,0,1,,,,
A222222222,2024-09-11_14h57.20.038,GoFitts,2023.2.3,MacIntel,29.94011976,"[-323.1171089974442,68.6806617052545]","[330.3357374235156,0]",51,660.6714748,4.75,0,1.0995,0.4659,"[-305.9296875,-305.9296875,-305.9296875,-305.9296875,-305.9296875,-305.9296875,-305.9296875,-305.9296875,-305.9296875,-305.9296875,-305.9296875,-305.9296875,-305.9296875,-305.9296875,-295.6875,-264.96484375,-201.0625,-98.12890625,4.90234375,86.20703125,142.859375,172.6484375,195.46875,211.4453125,225.984375,244.765625,270.5625,287.3984375,291.8828125,293.3984375,294.9140625,297.09765625,305.11328125,315.60546875,320.08984375,320.84765625,320.84765625,320.84765625,320.84765625,320.84765625,320.84765625,320.84765625,320.84765625,320.84765625,320.84765625,320.84765625,320.84765625,320.84765625,320.84765625,320.84765625]","[77.5625,77.5625,77.5625,77.5625,77.5625,77.5625,77.5625,77.5625,77.5625,77.5625,77.5625,77.5625,77.5625,77.5625,77.5625,75.21484375,66.76953125,52.4296875,37.96484375,23.2421875,10.171875,0.61328125,-5.56640625,-8.29296875,-9.10546875,-9.10546875,-9.10546875,-9.10546875,-9.10546875,-9.10546875,-9.10546875,-9.86328125,-10.53125,-11.19921875,-11.19921875,-11.19921875,-11.19921875,-11.19921875,-11.19921875,-11.19921875,-11.19921875,-11.19921875,-11.19921875,-11.19921875,-11.19921875,-11.19921875,-11.19921875,-11.19921875,-11.19921875,-11.19921875]","[0,0,0,0,0,0,0,0,0,0,0,0,0,0,0,0,0,0,0,0,0,0,0,0,0,0,0,0,0,0,0,0,0,0,0,0,0,0,0,0,0,0,0,0,0,0,0,0,0,0]","[0,0,0,0,0,0,0,0,0,0,0,0,0,0,0,0,0,0,0,0,0,0,0,0,0,0,0,0,0,0,0,0,0,0,0,0,0,0,0,0,0,0,0,0,0,0,0,0,0,0]","[0,0,0,0,0,0,0,0,0,0,0,0,0,0,0,0,0,0,0,0,0,0,0,0,0,0,0,0,0,0,0,0,0,0,0,0,0,0,0,0,0,0,0,0,0,0,0,0,0,0]","[0,0.03200000000000358,0.06529999998212332,0.09900000000000375,0.13219999998808163,0.16529999998212475,0.19879999998212128,0.23229999998212492,0.2654000000059611,0.2985000000000042,0.33200000000000074,0.36509999999404386,0.3980999999940451,0.432099999994044,0.4660000000000011,0.4995000000000047,0.5326999999880826,0.5659000000059606,0.5994000000059643,0.632699999988084,0.6659000000059621,0.6989000000059633,0.7322999999821249,0.7660000000000053,0.79940000000596,0.8320999999940426,0.8657999999821229,0.8994000000059614,0.9324000000059627,0.9652999999821219,0.999199999988079,1.032500000000006,1.0657999999821186,1.0995000000000061,1.132699999988084,1.166000000000004,1.1987999999821213,1.2312999999821201,1.265500000000003,1.2985000000000042,1.3320000000000007,1.3654000000059625,1.3984000000059638,1.432099999994044,1.465400000005964,1.4986999999880837,1.5320999999940454,1.565599999994042,1.5987999999821199,1.6321999999880816]",7,0,7,0,1,,,,
A222222222,2024-09-11_14h57.20.038,GoFitts,2023.2.3,MacIntel,29.94011976,"[330.3357374235156,0]","[-323.1171089974442,-68.68066170525441]",51,660.6714748,4.75,0,0.9321,0.4326,"[320.84765625,320.84765625,320.84765625,320.84765625,320.84765625,320.84765625,320.84765625,320.84765625,320.84765625,320.84765625,320.84765625,320.84765625,314.0546875,283.05859375,227.18359375,129.546875,44.375,-47.25,-114.953125,-181.47265625,-212.65234375,-235.47265625,-256.4765625,-268.50390625,-275.5703125,-282.93359375,-292.69921875,-301.75390625,-310.4140625,-317.25390625,-319.59375,-320.29296875,-321.4375,-323.2578125,-324.546875,-326.078125,-326.4609375,-326.4609375,-326.4609375,-326.4609375,-326.4609375,-326.4609375,-326.4609375,-326.4609375,-326.4609375]","[-11.19921875,-11.19921875,-11.19921875,-11.19921875,-11.19921875,-11.19921875,-11.19921875,-11.19921875,-11.19921875,-11.19921875,-11.19921875,-11.19921875,-11.19921875,-11.19921875,-8.10546875,-8.10546875,-8.10546875,-9.9453125,-13.44921875,-16.51171875,-17.61328125,-17.61328125,-17.61328125,-17.61328125,-17.61328125,-21.62109375,-31.6640625,-42.3359375,-51.6484375,-58.47265625,-60.80078125,-61.87109375,-62.93359375,-64.59375,-66.77734375,-68.29296875,-69.05078125,-69.3359375,-69.3359375,-69.3359375,-69.3359375,-69.3359375,-69.3359375,-69.3359375,-69.3359375]","[0,0,0,0,0,0,0,0,0,0,0,0,0,0,0,0,0,0,0,0,0,0,0,0,0,0,0,0,0,0,0,0,0,0,0,0,0,0,0,0,0,0,0,0,0]","[0,0,0,0,0,0,0,0,0,0,0,0,0,0,0,0,0,0,0,0,0,0,0,0,0,0,0,0,0,0,0,0,0,0,0,0,0,0,0,0,0,0,0,0,0]","[0,0,0,0,0,0,0,0,0,0,0,0,0,0,0,0,0,0,0,0,0,0,0,0,0,0,0,0,0,0,0,0,0,0,0,0,0,0,0,0,0,0,0,0,0]","[0,0.03209999999403834,0.06499999999999773,0.09850000000000136,0.13169999998807924,0.16519999998807577,0.19859999999403755,0.23190000000595745,0.26500000000000057,0.29859999999403897,0.33179999998211684,0.3651999999880786,0.3985999999940404,0.43269999998807407,0.4656999999880753,0.4990999999940371,0.5320999999940383,0.5651999999880744,0.5987999999821199,0.6324000000059584,0.6657999999821129,0.6987999999821142,0.732199999988076,0.7655999999940377,0.7989000000059576,0.8322999999821192,0.8657999999821158,0.8984999999999985,0.9320999999940369,0.9660999999940358,0.9989000000059605,1.0320999999940383,1.0651999999880744,1.0987999999821199,1.1312999999821187,1.1654999999999944,1.1987999999821142,1.232099999994034,1.2650999999940353,1.298599999994039,1.331699999988075,1.3650999999940368,1.3984999999999985,1.4314999999999998,1.4654000000059568]",8,0,8,0,1,,,,
A222222222,2024-09-11_14h57.20.038,GoFitts,2023.2.3,MacIntel,29.94011976,"[-323.1171089974442,-68.68066170525441]","[301.77671242027156,134.3596489276097]",51,660.6714748,4.75,0,2.8993,0.5325,"[-326.4609375,-326.4609375,-326.4609375,-326.4609375,-326.4609375,-326.4609375,-326.4609375,-326.4609375,-326.4609375,-326.4609375,-326.4609375,-326.4609375,-326.4609375,-326.4609375,-326.4609375,-308.26171875,-278.21484375,-210.4140625,-118.515625,-23.12890625,47.88671875,91.5546875,124.65625,142.2734375,150.28515625,155.4375,163.73828125,176.6640625,209.0859375,233.9921875,253.6015625,263.73828125,267.6953125,271.89453125,280.63671875,291.7265625,298.2578125,300.0625,300.9609375,300.9609375,300.296875,299.09765625,299.09765625,299.09765625,299.09765625,299.09765625,298.71484375,298.33203125,297.94921875,297.56640625,297.56640625,297.56640625,297.56640625,297.56640625,290.234375,262.5390625,237.67578125,212.76953125,190.671875,149.7890625,102.72265625,66.51171875,29.66796875,-22.55859375,-60.1875,-78.31640625,-83.25,-84.671875,-85.81640625,-86.1328125,-86.171875,-58.453125,24.01953125,105.83203125,200.58203125,261.46484375,295.08984375,328.5,349.30859375,356.66015625,358.17578125,359.69140625,360.3828125,360.3828125,360.3828125,360.06640625,324.765625,298.0546875,290.703125,290.00390625,290.00390625,290.00390625,290.00390625,290.00390625,290.00390625,290.00390625,290.00390625,290.00390625,290.00390625,290.00390625,290.00390625,290.00390625,290.00390625,290.00390625]","[-69.3359375,-69.3359375,-69.3359375,-69.3359375,-69.3359375,-69.3359375,-69.3359375,-69.3359375,-69.3359375,-69.3359375,-69.3359375,-69.3359375,-69.3359375,-69.3359375,-69.3359375,-69.3359375,-64.3359375,-52.37109375,-38.7265625,-24.80859375,-17.87890625,-13.3984375,-12,-11.18359375,-11.18359375,-9.45703125,-6.6328125,-0.109375,21.87890625,40.55078125,55.109375,62.0078125,65.3125,69,75.46484375,82.6484375,87.33203125,90.20703125,93.7421875,100.80859375,110.0703125,116.1953125,118.76953125,119.46875,119.74609375,119.74609375,120.0078125,121.0859375,122.6171875,123.3828125,123.6953125,123.6953125,123.6953125,123.6953125,120.82421875,103.37109375,88.453125,75.68359375,62.43359375,41.9296875,16.9375,-4.8984375,-26.65234375,-58.2265625,-85.01171875,-98.3359375,-102.7265625,-104.37890625,-105.06640625,-105.37890625,-105.37890625,-94.296875,-53.1953125,-6.59765625,47.6015625,83.10546875,105.0390625,125.4375,139.0078125,144.08203125,144.84765625,145.61328125,145.92578125,145.92578125,146.1953125,146.46484375,146.46484375,141.921875,137.92578125,137.234375,137.234375,137.234375,137.234375,137.234375,137.234375,137.234375,137.234375,137.234375,137.234375,137.234375,137.234375,137.234375,137.234375,137.234375]","[0,0,0,0,0,0,0,0,0,0,0,0,0,0,0,0,0,0,0,0,0,0,0,0,0,0,0,0,0,0,0,0,0,0,0,0,0,0,0,0,0,0,0,0,0,0,0,0,0,0,0,0,0,0,0,0,0,0,0,0,0,0,0,0,0,0,0,0,0,0,0,0,0,0,0,0,0,0,0,0,0,0,0,0,0,0,0,0,0,0,0,0,0,0,0,0,0,0,0,0,0,0,0,0]","[0,0,0,0,0,0,0,0,0,0,0,0,0,0,0,0,0,0,0,0,0,0,0,0,0,0,0,0,0,0,0,0,0,0,0,0,0,0,0,0,0,0,0,0,0,0,0,0,0,0,0,0,0,0,0,0,0,0,0,0,0,0,0,0,0,0,0,0,0,0,0,0,0,0,0,0,0,0,0,0,0,0,0,0,0,0,0,0,0,0,0,0,0,0,0,0,0,0,0,0,0,0,0,0]","[0,0,0,0,0,0,0,0,0,0,0,0,0,0,0,0,0,0,0,0,0,0,0,0,0,0,0,0,0,0,0,0,0,0,0,0,0,0,0,0,0,0,0,0,0,0,0,0,0,0,0,0,0,0,0,0,0,0,0,0,0,0,0,0,0,0,0,0,0,0,0,0,0,0,0,0,0,0,0,0,0,0,0,0,0,0,0,0,0,0,0,0,0,0,0,0,0,0,0,0,0,0,0,0]","[0,0.0321999999880731,0.06550000000000011,0.09879999998211275,0.13169999998807924,0.1653999999761524,0.19889999997615604,0.23219999998807594,0.2653999999761538,0.29869999998807373,0.3320999999940355,0.36539999997615524,0.3989999999999938,0.4320999999940369,0.46539999997615666,0.4990999999940371,0.5324999999999989,0.5656999999880767,0.5987999999821128,0.6320999999940398,0.6654999999999944,0.6987999999821142,0.7326999999880783,0.7656999999880725,0.7982999999821132,0.831699999988075,0.8669999999999973,0.8996999999880728,0.9327999999821159,0.9657999999821172,0.9984999999999999,1.0326999999880755,1.0657999999821186,1.0990999999940385,1.1323999999761583,1.1658999999761548,1.1994999999999933,1.2325999999940365,1.266099999994033,1.2994999999999948,1.3325999999940379,1.3658999999761576,1.3991999999880775,1.4325999999940393,1.4656999999880753,1.498299999982116,1.5323999999761568,1.565399999976158,1.5990999999940385,1.632599999994035,1.6660999999940387,1.6984999999999957,1.732099999994034,1.7653999999761538,1.7993999999761527,1.8328999999761564,1.8653999999761552,1.8991999999880775,1.932699999988074,1.9656999999880753,1.9992999999821137,2.032499999999999,2.0658999999761534,2.0990999999940385,2.1323999999761583,2.1661999999880734,2.1992999999821166,2.2317999999821154,2.2657999999821143,2.298299999982113,2.332399999976154,2.3657999999821158,2.398999999999994,2.4324999999999974,2.465899999976152,2.499199999988079,2.531699999988078,2.5659999999999954,2.599399999976157,2.6322999999821164,2.6660999999940387,2.6991999999880747,2.7324999999999946,2.765499999999996,2.8035999999940344,2.832399999976154,2.8654999999999973,2.899399999976154,2.9322999999821135,2.965999999999994,2.9986999999880766,3.0320999999940383,3.065299999982116,3.098699999988078,3.131999999999998,3.164999999999999,3.1986999999880723,3.2319999999999993,3.265499999999996,3.2989999999999995,3.3314999999999984,3.3652999999821134,3.3983999999761565,3.4314999999999998]",9,0,9,0,1,,,,
A222222222,2024-09-11_14h57.20.038,GoFitts,2023.2.3,MacIntel,29.94011976,"[301.77671242027156,134.3596489276097]","[-267.24722542500444,-194.16647476270123]",51,660.6714748,4.75,0,1.0994,0.5002,"[290.00390625,290.00390625,290.00390625,290.00390625,290.00390625,290.00390625,290.00390625,290.00390625,290.00390625,290.00390625,290.00390625,290.00390625,290.00390625,290.00390625,290.00390625,270.69140625,188.27734375,82.984375,-59.7265625,-133.35546875,-174.26171875,-218.33984375,-245.72265625,-260.90625,-275.26953125,-288.2578125,-297.21484375,-300.06640625,-301.21484375,-301.59765625,-302.125,-301.6015625,-293.328125,-281.0703125,-278.21484375,-277.08203125,-276.7734375,-276.7734375,-276.51953125,-275.1640625,-274.40625,-274.02734375,-274.02734375,-274.02734375,-274.02734375,-274.02734375,-274.02734375,-274.02734375,-274.02734375]","[137.234375,137.234375,137.234375,137.234375,137.234375,137.234375,137.234375,137.234375,137.234375,137.234375,137.234375,137.234375,137.234375,137.234375,137.234375,131.8671875,94.19140625,49.078125,-15.6015625,-57.91015625,-84.23828125,-111.30859375,-129.7734375,-143.17578125,-157.51171875,-171.4453125,-180.76171875,-183.59765625,-185.78515625,-187.96484375,-190.15234375,-193.390625,-200.03515625,-209.3359375,-211.66796875,-212.421875,-212.421875,-212.421875,-212.421875,-209.9296875,-207.7265625,-207.03125,-207.03125,-207.03125,-207.03125,-207.03125,-207.03125,-207.03125,-207.03125]","[0,0,0,0,0,0,0,0,0,0,0,0,0,0,0,0,0,0,0,0,0,0,0,0,0,0,0,0,0,0,0,0,0,0,0,0,0,0,0,0,0,0,0,0,0,0,0,0,0]","[0,0,0,0,0,0,0,0,0,0,0,0,0,0,0,0,0,0,0,0,0,0,0,0,0,0,0,0,0,0,0,0,0,0,0,0,0,0,0,0,0,0,0,0,0,0,0,0,0]","[0,0,0,0,0,0,0,0,0,0,0,0,0,0,0,0,0,0,0,0,0,0,0,0,0,0,0,0,0,0,0,0,0,0,0,0,0,0,0,0,0,0,0,0,0,0,0,0,0]","[0,0.032900000005959384,0.0659999999999954,0.0995999999940338,0.1326999999880769,0.16619999998807344,0.19950000000000045,0.232999999999997,0.26629999998211673,0.29959999999403664,0.33199999999999363,0.36599999999999966,0.398799999982117,0.43279999998211593,0.46609999999403584,0.5001999999880766,0.5331999999880779,0.5670000000000002,0.5999000000059596,0.6332999999821141,0.6664000000059573,0.6999000000059539,0.7322999999821178,0.7666999999880773,0.7999999999999972,0.833199999988075,0.8664000000059602,0.9000999999940333,0.9339999999999975,0.9664000000059545,0.9999000000059581,1.0332999999821126,1.0655999999940349,1.0994000000059572,1.1330999999940374,1.1654000000059597,1.199699999988077,1.232099999994034,1.2664000000059588,1.2994999999999948,1.3320999999940355,1.3661999999880763,1.3994000000059543,1.4322999999821135,1.4655999999940335,1.4995999999940395,1.5331999999880779,1.5656999999880767,1.5996999999880757]",10,0,10,0,1,,,,
A222222222,2024-09-11_14h57.20.038,GoFitts,2023.2.3,MacIntel,29.94011976,"[-267.24722542500444,-194.16647476270123]","[221.03775228419755,245.48729393654483]",51,660.6714748,4.75,0,1.1665,0.4652,"[-274.02734375,-274.02734375,-274.02734375,-274.02734375,-274.02734375,-274.02734375,-274.02734375,-274.02734375,-274.02734375,-274.02734375,-274.02734375,-274.02734375,-274.02734375,-265.2890625,-226.46875,-107.31640625,37.828125,143.99609375,211.10546875,232.87890625,241.52734375,244.51953125,245.9453125,246.69921875,251.23046875,256.2890625,258.8984375,258.8984375,256.5,251.3359375,249.1328125,248.05078125,247.421875,247.109375,246.125,243.921875,241.046875,239.96484375,239.36328125,238.66796875,237.203125,236.12109375,235.44921875,235.44921875,235.44921875,235.19140625,235.19140625,235.19140625,235.19140625,235.19140625,235.19140625,235.19140625]","[-207.03125,-207.03125,-207.03125,-207.03125,-207.03125,-207.03125,-207.03125,-207.03125,-207.03125,-207.03125,-207.03125,-207.03125,-207.03125,-200.53125,-170.0625,-70.98046875,49.55078125,132.20703125,184.16796875,204.85546875,214.48046875,218.015625,220.88671875,223.0859375,229.7421875,236.8203125,240.7890625,241.078125,241.078125,241.078125,240.69921875,240.0078125,240.0078125,240.0078125,240.0078125,239.62890625,239.62890625,239.62890625,239.62890625,239.62890625,239.62890625,239.62890625,239.62890625,239.62890625,239.62890625,239.62890625,239.62890625,239.62890625,239.62890625,239.62890625,239.62890625,239.62890625]","[0,0,0,0,0,0,0,0,0,0,0,0,0,0,0,0,0,0,0,0,0,0,0,0,0,0,0,0,0,0,0,0,0,0,0,0,0,0,0,0,0,0,0,0,0,0,0,0,0,0,0,0]","[0,0,0,0,0,0,0,0,0,0,0,0,0,0,0,0,0,0,0,0,0,0,0,0,0,0,0,0,0,0,0,0,0,0,0,0,0,0,0,0,0,0,0,0,0,0,0,0,0,0,0,0]","[0,0,0,0,0,0,0,0,0,0,0,0,0,0,0,0,0,0,0,0,0,0,0,0,0,0,0,0,0,0,0,0,0,0,0,0,0,0,0,0,0,0,0,0,0,0,0,0,0,0,0,0]","[0,0.032400000005957,0.06569999998807674,0.09869999998807799,0.13180000001192127,0.1650999999940339,0.1989000000059562,0.23230000001191797,0.2655999999940377,0.2989999999999995,0.3313000000119217,0.3656999999880739,0.39819999998807987,0.4325999999940393,0.46530000001192207,0.49919999998807896,0.5321999999880802,0.5659000000059606,0.5994000000059572,0.6329999999999956,0.6659999999999968,0.6993000000119167,0.7324000000059598,0.7655999999940377,0.7989999999999995,0.832499999999996,0.8659000000059578,0.8991999999880775,0.9324000000059556,0.9659000000059592,0.999300000011921,1.0324999999999989,1.0658000000119188,1.0993000000119153,1.1325000000000003,1.166599999994034,1.1986999999880794,1.2325999999940365,1.2659000000059564,1.2991999999880761,1.3315999999940402,1.3659000000059578,1.3993000000119196,1.4324000000059556,1.4655999999940406,1.4994999999999976,1.5323000000119222,1.5655999999940349,1.5989000000059619,1.6311999999880769,1.6655999999940363,1.69909999999404]",11,0,11,0,1,,,,
A222222222,2024-09-11_14h57.20.038,GoFitts,2023.2.3,MacIntel,29.94011976,"[221.03775228419755,245.48729393654483]","[-165.16786871175793,-286.0791403866303]",51,660.6714748,4.75,0,0.9997,0.3994,"[235.19140625,235.19140625,235.19140625,235.19140625,235.19140625,235.19140625,235.19140625,235.19140625,235.19140625,235.19140625,235.19140625,227.953125,158.59375,57.8125,-47.671875,-96.0546875,-115.9140625,-129.890625,-138.98828125,-145.1640625,-149.9375,-152.5703125,-154.96484375,-157.796875,-160.765625,-160.765625,-160.765625,-160.765625,-161.29296875,-161.29296875,-163.30859375,-165.30859375,-166.35546875,-166.73828125,-167.05078125,-167.05078125,-167.05078125,-167.05078125,-167.05078125,-167.05078125,-167.05078125,-167.05078125,-167.05078125,-167.05078125,-167.05078125,-167.05078125,-167.05078125]","[239.62890625,239.62890625,239.62890625,239.62890625,239.62890625,239.62890625,239.62890625,239.62890625,239.62890625,239.62890625,239.62890625,228.6015625,146.08984375,35.9140625,-72.2890625,-134.64453125,-164.203125,-182.12890625,-192.83984375,-200.3359375,-206.4296875,-210.62109375,-215.7734375,-225.03515625,-234.2890625,-241.3515625,-245.53515625,-249.4375,-252.2890625,-256.7734375,-264.7890625,-272.76171875,-276.27734375,-277.79296875,-277.79296875,-277.79296875,-277.79296875,-277.79296875,-277.79296875,-277.79296875,-277.79296875,-277.79296875,-277.79296875,-277.79296875,-277.79296875,-277.79296875,-277.79296875]","[0,0,0,0,0,0,0,0,0,0,0,0,0,0,0,0,0,0,0,0,0,0,0,0,0,0,0,0,0,0,0,0,0,0,0,0,0,0,0,0,0,0,0,0,0,0,0]","[0,0,0,0,0,0,0,0,0,0,0,0,0,0,0,0,0,0,0,0,0,0,0,0,0,0,0,0,0,0,0,0,0,0,0,0,0,0,0,0,0,0,0,0,0,0,0]","[0,0,0,0,0,0,0,0,0,0,0,0,0,0,0,0,0,0,0,0,0,0,0,0,0,0,0,0,0,0,0,0,0,0,0,0,0,0,0,0,0,0,0,0,0,0,0]","[0.00010000002384202844,0.03180000001191985,0.06470000001787923,0.09860000002383629,0.13210000002383993,0.16540000000595967,0.19790000000595853,0.23180000001191559,0.26520000001787736,0.298700000017881,0.33210000002384277,0.3658000000119159,0.39940000000596143,0.43249999999999744,0.4657000000178755,0.4989999999999952,0.5327000000178757,0.5655000000000001,0.5983000000119176,0.6324000000059584,0.6658000000119202,0.6987000000178796,0.7324000000059598,0.7654999999999959,0.7993000000119181,0.832600000023838,0.8649000000059601,0.8992000000178777,0.9324999999999974,0.9648000000119197,0.9997000000178815,1.0324999999999989,1.065700000017877,1.0989999999999966,1.1323000000119166,1.1654000000059597,1.1987000000178796,1.2309999999999945,1.2653000000119192,1.2989999999999995,1.3321000000238428,1.3649999999999949,1.3987000000178824,1.431999999999995,1.4654000000059568,1.4987000000178767,1.5322000000178804]",12,0,12,0,1,,,,
A222222222,2024-09-11_14h57.20.038,GoFitts,2023.2.3,MacIntel,29.94011976,"[-165.16786871175793,-286.0791403866303]","[102.07935671324664,314.1679556417993]",51,660.6714748,4.75,0,1.1331,0.3324,"[-167.05078125,-167.05078125,-167.05078125,-167.05078125,-167.05078125,-167.05078125,-167.05078125,-167.05078125,-167.05078125,-160.23046875,-127.40234375,-50.74609375,2.40625,45.0234375,55.828125,55.828125,55.828125,55.828125,55.828125,55.828125,55.828125,58.46875,65.5703125,81.828125,95.80859375,105.52734375,110.05859375,112.00390625,113.94921875,115.75,117.46484375,117.46484375,117.46484375,114.97265625,111.9609375,110,109.3046875,108.9921875,108.29296875,107.91015625,107.52734375,107.52734375,107.52734375,107.52734375,107.52734375,107.52734375,107.52734375,107.52734375,107.52734375,107.52734375,107.52734375]","[-277.79296875,-277.79296875,-277.79296875,-277.79296875,-277.79296875,-277.79296875,-277.79296875,-277.79296875,-277.79296875,-273.578125,-246.01953125,-164.2734375,-86.46875,-5.8828125,21.9140625,21.9140625,21.9140625,21.9140625,21.9140625,21.9140625,22.41796875,59.84375,108.50390625,186.17578125,230.20703125,249.671875,256.75,260.28515625,263.82421875,266.69140625,271.85546875,278.93359375,285.0078125,288.5546875,293.13671875,296.1484375,296.84375,297.47265625,298.484375,299.1796875,299.46875,299.46875,299.46875,299.46875,299.46875,299.46875,299.46875,299.46875,299.46875,299.46875,299.46875]","[0,0,0,0,0,0,0,0,0,0,0,0,0,0,0,0,0,0,0,0,0,0,0,0,0,0,0,0,0,0,0,0,0,0,0,0,0,0,0,0,0,0,0,0,0,0,0,0,0,0,0]","[0,0,0,0,0,0,0,0,0,0,0,0,0,0,0,0,0,0,0,0,0,0,0,0,0,0,0,0,0,0,0,0,0,0,0,0,0,0,0,0,0,0,0,0,0,0,0,0,0,0,0]","[0,0,0,0,0,0,0,0,0,0,0,0,0,0,0,0,0,0,0,0,0,0,0,0,0,0,0,0,0,0,0,0,0,0,0,0,0,0,0,0,0,0,0,0,0,0,0,0,0,0,0]","[0,0.03180000001191985,0.06540000000595825,0.098100000023841,0.13180000001192127,0.1653000000119249,0.19870000001787957,0.2318000000119227,0.2651000000238426,0.29880000001192286,0.33240000000596126,0.3656000000238393,0.3988000000119243,0.4323000000119208,0.4657000000178826,0.4983000000119233,0.5318000000119198,0.5651000000238398,0.5977000000178805,0.6317000000178794,0.6653000000119249,0.6986000000238448,0.7319999999999993,0.7654000000059611,0.7989000000059647,0.8312000000178799,0.8657000000178812,0.8983000000119219,0.9323000000119208,0.9659000000059592,0.9988000000119186,1.0328000000119246,1.065700000017884,1.0993000000119224,1.1331000000238447,1.1654000000059597,1.198999999999998,1.232300000011925,1.265600000023845,1.298700000017881,1.3323000000119194,1.3654000000059625,1.3987000000178824,1.4318000000119184,1.465400000005964,1.4987000000178838,1.5320000000000036,1.5649999999999977,1.5987000000178853,1.6319000000059631,1.6655000000000015]",13,0,13,0,1,,,,
A222222222,2024-09-11_14h57.20.038,GoFitts,2023.2.3,MacIntel,29.94011976,"[102.07935671324664,314.1679556417993]","[-34.529486995267426,-328.52612369031095]",51,660.6714748,4.75,0,0.9992,0.2999,"[107.52734375,107.52734375,107.52734375,107.52734375,107.52734375,107.52734375,107.52734375,107.52734375,107.52734375,98.1328125,72.265625,21.44140625,-25.26953125,-58.49609375,-77.86328125,-92.1640625,-103.9140625,-114.6640625,-121.8125,-125.5078125,-126.30859375,-126.30859375,-123.06640625,-113.6796875,-104.4375,-93.95703125,-84.26171875,-75.76953125,-66.921875,-60.1328125,-56.5078125,-56.5078125,-56.5078125,-56.5078125,-55.0859375,-54.70703125,-53.2578125,-51.0703125,-49.93359375,-49.93359375,-49.93359375,-49.93359375,-49.93359375,-49.93359375,-49.93359375,-49.93359375,-49.93359375]","[299.46875,299.46875,299.46875,299.46875,299.46875,299.46875,299.46875,299.46875,294.44140625,263.8359375,187.8046875,78.72265625,-22.65234375,-125.91796875,-200.8671875,-246.078125,-276.75390625,-301.69140625,-322.9453125,-339.0234375,-349.4765625,-359.984375,-372.95703125,-383.29296875,-386.76953125,-387.4375,-383.65625,-374.19140625,-359.8671875,-345.3125,-336.04296875,-329.953125,-325.734375,-321.51953125,-317.984375,-316.83984375,-316.07421875,-315.1640625,-315.1640625,-314.4921875,-314.4921875,-314.4921875,-314.4921875,-314.4921875,-314.4921875,-314.4921875,-314.4921875]","[0,0,0,0,0,0,0,0,0,0,0,0,0,0,0,0,0,0,0,0,0,0,0,0,0,0,0,0,0,0,0,0,0,0,0,0,0,0,0,0,0,0,0,0,0,0,0]","[0,0,0,0,0,0,0,0,0,0,0,0,0,0,0,0,0,0,0,0,0,0,0,0,0,0,0,0,0,0,0,0,0,0,0,0,0,0,0,0,0,0,0,0,0,0,0]","[0,0,0,0,0,0,0,0,0,0,0,0,0,0,0,0,0,0,0,0,0,0,0,0,0,0,0,0,0,0,0,0,0,0,0,0,0,0,0,0,0,0,0,0,0,0,0]","[0,0.03209999999403834,0.06529999998212332,0.09869999998807799,0.13219999998808163,0.1655999999940434,0.1980000000000004,0.23209999999404118,0.2656999999880796,0.30000000000000426,0.33229999998211923,0.365699999988081,0.39919999998807754,0.4323999999761625,0.46559999999404056,0.49900000000000233,0.5322999999821221,0.5656999999880838,0.5992999999821222,0.6323999999761583,0.6655999999940434,0.6990999999940399,0.732199999988083,0.7660999999940401,0.7988999999761575,0.8315999999940402,0.865699999988081,0.8990999999940428,0.932099999994044,0.9653999999761567,0.9992999999821208,1.0321999999880802,1.0656999999880838,1.098699999988078,1.1338999999761583,1.1656999999880782,1.1991999999880818,1.232199999988083,1.2657999999821214,1.2991999999880832,1.3320999999940426,1.365000000000002,1.3986999999880823,1.4318999999761601,1.4653999999761567,1.4986999999880837,1.5323999999761568]",14,0,14,0,1,,,,
A222222222,2024-09-11_14h57.20.038,GoFitts,2023.2.3,MacIntel,29.94011976,,,,,,0,,,,,,,,,,,,,,0,0,0,1
A222222222,2024-09-11_14h57.20.038,GoFitts,2023.2.3,MacIntel,29.94011976,"[-33.9765625,-92.4140625]","[-12.041958002729098,114.57157718040709]",37,230.4053389,3.75,1,0.9643,0.5968,"[-33.9765625,-33.9765625,-33.9765625,-33.9765625,-33.9765625,-33.9765625,-33.9765625,-33.9765625,-33.9765625,-33.9765625,-33.9765625,-33.9765625,-33.9765625,-33.9765625,-33.9765625,-33.9765625,-33.9765625,-33.9765625,-33.9765625,-23.79296875,-5.28125,12.640625,15.796875,15.796875,15.796875,15.26953125,11.97265625,8.6171875,5.83984375,4.7578125,4.12890625,3.046875,0.171875,-1.359375,-2.0546875,-2.0546875,-2.34375,-2.34375,-2.34375,-2.34375,-2.34375,-2.34375,-2.34375,-2.34375,-2.34375,-2.34375]","[-92.4140625,-92.4140625,-92.4140625,-92.4140625,-92.4140625,-92.4140625,-92.4140625,-92.4140625,-92.4140625,-92.4140625,-92.4140625,-92.4140625,-92.4140625,-92.4140625,-92.4140625,-92.4140625,-92.4140625,-92.4140625,-84.125,-56.84765625,-1.265625,59.37890625,84.33203125,99.1015625,101.97265625,104.17578125,108.66796875,116.0390625,120.5390625,121.62109375,121.62109375,121.62109375,121.62109375,121.62109375,121.2421875,120.98046875,120.98046875,120.98046875,120.98046875,120.98046875,120.98046875,120.98046875,120.98046875,120.98046875,120.98046875,120.98046875]","[0,0,0,0,0,0,0,0,0,0,0,0,0,0,0,0,0,0,0,0,0,0,0,0,0,0,0,0,0,0,0,0,0,0,0,0,0,0,0,0,0,0,0,0,0,0]","[0,0,0,0,0,0,0,0,0,0,0,0,0,0,0,0,0,0,0,0,0,0,0,0,0,0,0,0,0,0,0,0,0,0,0,0,0,0,0,0,0,0,0,0,0,0]","[0,0,0,0,0,0,0,0,0,0,0,0,0,0,0,0,0,0,0,0,0,0,0,0,0,0,0,0,0,0,0,0,0,0,0,0,0,0,0,0,0,0,0,0,0,0]","[0,0.029300000011922123,0.06320000001788628,0.0963000000119223,0.12980000001192593,0.16330000001192246,0.1968000000119261,0.2299000000059621,0.26340000000596575,0.29670000001788566,0.32990000000596353,0.36320000001788344,0.3965000000000032,0.4299999999999997,0.4633000000119267,0.49630000001192087,0.530099999994043,0.5628000000119258,0.5968000000119247,0.630500000000005,0.663599999994041,0.6968000000119261,0.7305999999940411,0.7635999999940424,0.7970999999940389,0.8305999999940425,0.8633000000119253,0.8967000000178871,0.9304000000059602,0.9644000000059663,0.9972000000178838,1.0305999999940383,1.063400000005963,1.0963000000119223,1.130500000000005,1.163700000017883,1.1969000000059609,1.230000000000004,1.2633000000119239,1.2963000000119251,1.3300999999940402,1.3633000000119253,1.395900000005966,1.4304000000059602,1.4635000000000034,1.4968000000119233]",0,0,0,0,1,,,,
A222222222,2024-09-11_14h57.20.038,GoFitts,2023.2.3,MacIntel,29.94011976,"[-12.041958002729098,114.57157718040709]","[35.59958265974256,-109.56424948219937]",37,230.4053389,3.75,1,0.666,0.366,"[-2.34375,-2.34375,-2.34375,-2.34375,-2.34375,-2.34375,-2.34375,-2.34375,-2.34375,-2.87109375,-2.87109375,0,11.6015625,25.6015625,34.3203125,38.140625,38.140625,37.1796875,35.40625,35.40625,35.40625,35.40625,35.40625,35.40625,35.40625,35.40625,35.08984375,35.08984375,35.08984375,35.08984375,35.08984375,35.08984375,35.08984375,35.08984375,35.08984375,35.08984375,35.08984375]","[120.98046875,120.98046875,120.98046875,120.98046875,120.98046875,120.98046875,120.98046875,120.98046875,120.98046875,117.6875,105.375,87.171875,58.00390625,20.6640625,-10.52734375,-29.9453125,-44.94140625,-60.9453125,-75.4765625,-85.9609375,-93.00390625,-98.16015625,-101.69140625,-104.546875,-106.0625,-107.19921875,-107.19921875,-107.47265625,-107.47265625,-107.47265625,-107.47265625,-107.47265625,-107.47265625,-107.47265625,-107.47265625,-107.47265625,-107.47265625]","[0,0,0,0,0,0,0,0,0,0,0,0,0,0,0,0,0,0,0,0,0,0,0,0,0,0,0,0,0,0,0,0,0,0,0,0,0]","[0,0,0,0,0,0,0,0,0,0,0,0,0,0,0,0,0,0,0,0,0,0,0,0,0,0,0,0,0,0,0,0,0,0,0,0,0]","[0,0,0,0,0,0,0,0,0,0,0,0,0,0,0,0,0,0,0,0,0,0,0,0,0,0,0,0,0,0,0,0,0,0,0,0,0]","[0,0.03169999998807782,0.06540000000595825,0.09899999999999665,0.13230000001192366,0.16540000000595967,0.19880000001192144,0.23209999999404118,0.26550000000000296,0.2991999999880761,0.3325000000000031,0.36599999999999966,0.39930000001191956,0.4324000000059627,0.4656999999880824,0.4983000000119233,0.5324999999999989,0.5650999999940396,0.5989000000059619,0.6324000000059584,0.6659999999999968,0.6990999999940399,0.7324000000059598,0.7656999999880796,0.79940000000596,0.8325000000000031,0.8659999999999997,0.898900000005959,0.9311999999880811,0.9654000000059639,0.9983000000119233,1.0320999999940383,1.0654000000059582,1.098699999988078,1.131999999999998,1.1654000000059597,1.1985999999940375]",1,0,1,0,1,,,,
A222222222,2024-09-11_14h57.20.038,GoFitts,2023.2.3,MacIntel,29.94011976,"[35.59958265974256,-109.56424948219937]","[-57.60133472877485,99.76843833401975]",37,230.4053389,3.75,1,0.8333,0.3986,"[35.08984375,35.08984375,35.08984375,35.08984375,35.08984375,35.08984375,35.08984375,35.08984375,35.08984375,35.08984375,35.08984375,35.08984375,35.08984375,30.140625,19.01171875,6.62109375,-3.6328125,-13.01953125,-20.73046875,-26.953125,-34.0078125,-42.38671875,-51.05078125,-57.4921875,-61.9453125,-64.77734375,-67.16796875,-69.03125,-70.2265625,-70.60546875,-70.60546875,-70.60546875,-70.60546875,-70.60546875,-70.60546875,-70.60546875,-70.60546875,-70.60546875,-70.60546875,-70.60546875,-70.60546875,-70.60546875]","[-107.47265625,-107.47265625,-107.47265625,-107.47265625,-107.47265625,-107.47265625,-107.47265625,-107.47265625,-107.47265625,-107.47265625,-107.23046875,-92.67578125,-69.61328125,-43.9296875,-22.6328125,-4.5390625,11.1796875,23.15234375,32.4921875,38.046875,43.10546875,51.484375,61.109375,69.546875,80.05859375,89.3359375,95.4375,101.54296875,106.03125,107.17578125,107.46484375,107.46484375,107.46484375,107.46484375,107.46484375,107.46484375,107.46484375,107.46484375,107.46484375,107.46484375,107.46484375,107.46484375]","[0,0,0,0,0,0,0,0,0,0,0,0,0,0,0,0,0,0,0,0,0,0,0,0,0,0,0,0,0,0,0,0,0,0,0,0,0,0,0,0,0,0]","[0,0,0,0,0,0,0,0,0,0,0,0,0,0,0,0,0,0,0,0,0,0,0,0,0,0,0,0,0,0,0,0,0,0,0,0,0,0,0,0,0,0]","[0,0,0,0,0,0,0,0,0,0,0,0,0,0,0,0,0,0,0,0,0,0,0,0,0,0,0,0,0,0,0,0,0,0,0,0,0,0,0,0,0,0]","[0,0.0324000000059641,0.06520000001788162,0.09900000000000375,0.13240000000596552,0.16570000001788543,0.19830000001192616,0.2325000000000017,0.26570000001788685,0.2989999999999995,0.3327000000178799,0.36620000001788355,0.39860000002384055,0.4328000000119232,0.4660000000000011,0.49900000000000233,0.5327000000178828,0.5659000000059606,0.5992000000178805,0.6325000000000003,0.6658000000119202,0.6991000000238472,0.7324000000059598,0.7651000000238426,0.7992000000178834,0.8333000000119242,0.8652000000178859,0.8993000000119196,0.9320000000000022,0.9660000000000011,0.999300000011921,1.0321000000238456,1.065700000017884,1.0983000000119247,1.1315000000000026,1.1657000000178854,1.1991000000238472,1.2317000000178808,1.265500000000003,1.2991000000238415,1.3325000000000031,1.365900000005965]",2,0,2,0,1,,,,
A222222222,2024-09-11_14h57.20.038,GoFitts,2023.2.3,MacIntel,29.94011976,"[-57.60133472877485,99.76843833401975]","[77.08563206828941,-85.61226768856072]",37,230.4053389,3.75,1,0.9333,0.3655,"[-70.60546875,-70.60546875,-70.60546875,-70.60546875,-70.60546875,-70.60546875,-70.60546875,-70.60546875,-70.12109375,-64.96875,-46.63671875,-10.26171875,17.30859375,39.1875,53.1171875,65.19140625,76.64453125,85.6171875,90.2734375,94.21875,96.30859375,98.39453125,98.91796875,98.91796875,98.91796875,97.34375,94.46875,92.265625,90.0625,89.3671875,89.05078125,89.05078125,88.66796875,88.28515625,87.90234375,87.90234375,87.90234375,87.90234375,87.90234375,87.90234375,87.90234375,87.90234375,87.90234375,87.90234375,87.90234375]","[107.46484375,107.46484375,107.46484375,107.46484375,107.46484375,107.46484375,107.46484375,107.46484375,107.46484375,105.75,95.7421875,67.57421875,37.20703125,10.4765625,-6.46875,-24.58984375,-43.69140625,-57.82421875,-65.80859375,-72.94921875,-77.14453125,-81.33203125,-84.86328125,-88.3828125,-91.90625,-94.89453125,-96.69921875,-97.078125,-97.078125,-97.078125,-96.76171875,-95.75390625,-93.18359375,-90.98046875,-89.83203125,-89.16015625,-89.16015625,-89.16015625,-89.16015625,-89.16015625,-89.16015625,-89.16015625,-89.16015625,-89.16015625,-89.16015625]","[0,0,0,0,0,0,0,0,0,0,0,0,0,0,0,0,0,0,0,0,0,0,0,0,0,0,0,0,0,0,0,0,0,0,0,0,0,0,0,0,0,0,0,0,0]","[0,0,0,0,0,0,0,0,0,0,0,0,0,0,0,0,0,0,0,0,0,0,0,0,0,0,0,0,0,0,0,0,0,0,0,0,0,0,0,0,0,0,0,0,0]","[0,0,0,0,0,0,0,0,0,0,0,0,0,0,0,0,0,0,0,0,0,0,0,0,0,0,0,0,0,0,0,0,0,0,0,0,0,0,0,0,0,0,0,0,0]","[0,0.03170000001787798,0.06499999999999773,0.09880000001192002,0.13150000000000261,0.16550000000000153,0.19880000001192144,0.2322000000178832,0.2658000000119216,0.2989999999999995,0.3323000000119194,0.36549999999999727,0.3988000000119243,0.43220000001787895,0.4657000000178826,0.49820000001788145,0.5324999999999989,0.5660000000000025,0.5993000000119224,0.6327000000178842,0.6659000000059621,0.6990999999940399,0.7325000000000017,0.7658000000119216,0.7992000000178834,0.8324000000059613,0.865800000011923,0.8992000000178777,0.9333000000119185,0.9658000000119173,0.9992000000178791,1.0325999999940407,1.0658000000119188,1.0990999999940385,1.1324000000059584,1.165900000005962,1.1989000000059633,1.2320999999940412,1.265500000000003,1.2989999999999995,1.3323000000119194,1.3654999999999973,1.399000000000001,1.432200000017879,1.4655999999940406]",3,0,3,0,1,,,,
A222222222,2024-09-11_14h57.20.038,GoFitts,2023.2.3,MacIntel,29.94011976,"[77.08563206828941,-85.61226768856072]","[-93.20091738851745,67.71443013187229]",37,230.4053389,3.75,1,0.9996,0.5321,"[87.90234375,87.90234375,87.90234375,87.90234375,87.90234375,87.90234375,87.90234375,87.90234375,87.90234375,87.90234375,87.90234375,87.90234375,87.90234375,87.90234375,87.90234375,84.2109375,74.5,59.6015625,40.984375,22.2734375,2.60546875,-16.3359375,-28.4453125,-35.9140625,-44.14453125,-51.94140625,-60.40625,-68.4375,-76.5546875,-82.67578125,-86.87890625,-87.95703125,-89.48828125,-91.01953125,-91.78125,-92.09765625,-92.48046875,-92.86328125,-93.15234375,-93.15234375,-93.15234375,-93.15234375,-93.15234375,-93.15234375,-93.15234375,-93.15234375,-93.15234375]","[-89.16015625,-89.16015625,-89.16015625,-89.16015625,-89.16015625,-89.16015625,-89.16015625,-89.16015625,-89.16015625,-89.16015625,-88.671875,-86.921875,-83.3828125,-79.83984375,-76.58984375,-72.8984375,-66.1484375,-55.08203125,-39.61328125,-24.06640625,-8.51953125,4.5234375,14.046875,20.1953125,28.42578125,35.5546875,42.015625,46.70703125,49.10546875,50.9765625,52.03125,52.7265625,53.875,55.40625,56.16796875,56.484375,57.13671875,57.8984375,58.1875,58.1875,58.1875,58.1875,58.1875,58.1875,58.1875,58.1875,58.1875]","[0,0,0,0,0,0,0,0,0,0,0,0,0,0,0,0,0,0,0,0,0,0,0,0,0,0,0,0,0,0,0,0,0,0,0,0,0,0,0,0,0,0,0,0,0,0,0]","[0,0,0,0,0,0,0,0,0,0,0,0,0,0,0,0,0,0,0,0,0,0,0,0,0,0,0,0,0,0,0,0,0,0,0,0,0,0,0,0,0,0,0,0,0,0,0]","[0,0,0,0,0,0,0,0,0,0,0,0,0,0,0,0,0,0,0,0,0,0,0,0,0,0,0,0,0,0,0,0,0,0,0,0,0,0,0,0,0,0,0,0,0,0,0]","[0,0.031099999994040672,0.06539999997615809,0.09869999998807799,0.1310999999940421,0.16529999998211764,0.19850000000000279,0.23269999998807833,0.2651999999880772,0.2995000000000019,0.3318999999761587,0.36509999999404386,0.3984999999999985,0.43179999998211827,0.4652999999821219,0.4985999999940418,0.5321999999880802,0.565599999994042,0.5990000000000038,0.6322999999821164,0.6655999999940434,0.6985000000000028,0.7322999999821178,0.7658999999761562,0.7989999999999995,0.8321999999880774,0.8658999999761576,0.8990000000000009,0.9325999999940393,0.9656999999880824,0.9995999999940395,1.0320000000000036,1.0657999999821186,1.0992999999821222,1.1325000000000003,1.16579999998212,1.19909999999404,1.2323999999761597,1.2658999999761562,1.2987999999821227,1.3312999999821216,1.3655000000000044,1.3986999999880823,1.432099999994044,1.4653999999761567,1.498399999976158,1.532299999982122]",4,0,4,0,1,,,,
A222222222,2024-09-11_14h57.20.038,GoFitts,2023.2.3,MacIntel,29.94011976,"[-93.20091738851745,67.71443013187229]","[105.24287539124659,-46.8571470485348]",37,230.4053389,3.75,1,0.6664,0.366,"[-93.15234375,-93.15234375,-93.15234375,-93.15234375,-93.15234375,-93.15234375,-93.15234375,-93.15234375,-93.15234375,-93.15234375,-83.79296875,-53.11328125,-12.33984375,15.91015625,37.5234375,50.98046875,62.0078125,71.6875,78.71875,85.53515625,91.25390625,94.2578125,96.15234375,99.6796875,103.20703125,106.05078125,107.56640625,108.32421875,108.703125,108.703125,108.703125,108.703125,108.703125,108.703125,108.703125,108.703125,108.703125]","[58.1875,58.1875,58.1875,58.1875,58.1875,58.1875,58.1875,58.1875,58.1875,58.1875,58.1875,51.140625,32.08203125,13.5234375,-1.609375,-11.53125,-18.65625,-25.3828125,-30.421875,-37.23828125,-43.625,-47.15625,-49.05078125,-50.09765625,-51.66796875,-53.0859375,-53.84375,-54.53125,-54.53125,-54.79296875,-54.79296875,-54.79296875,-54.79296875,-54.79296875,-54.79296875,-54.79296875,-54.79296875]","[0,0,0,0,0,0,0,0,0,0,0,0,0,0,0,0,0,0,0,0,0,0,0,0,0,0,0,0,0,0,0,0,0,0,0,0,0]","[0,0,0,0,0,0,0,0,0,0,0,0,0,0,0,0,0,0,0,0,0,0,0,0,0,0,0,0,0,0,0,0,0,0,0,0,0]","[0,0,0,0,0,0,0,0,0,0,0,0,0,0,0,0,0,0,0,0,0,0,0,0,0,0,0,0,0,0,0,0,0,0,0,0,0]","[0,0.032300000011922236,0.06530000001192349,0.09880000001192002,0.13130000001191888,0.1655999999940363,0.19880000001192144,0.23140000000596217,0.2654000000059611,0.29859999999403897,0.3325000000000031,0.36599999999999966,0.3990999999940428,0.4324000000059627,0.46580000001191735,0.4992000000178791,0.5324999999999989,0.5660000000000025,0.5992000000178805,0.6323000000119237,0.6664000000059573,0.6984000000059609,0.7325000000000017,0.7652000000178845,0.7993000000119181,0.8325999999940379,0.865800000011923,0.8990999999940428,0.9325999999940393,0.9658000000119173,0.9989000000059605,1.0319000000059617,1.0652000000178816,1.09880000001192,1.1322000000178818,1.1655000000000015,1.1978000000119238]",5,0,5,0,1,,,,
A222222222,2024-09-11_14h57.20.038,GoFitts,2023.2.3,MacIntel,29.94011976,"[105.24287539124659,-46.8571470485348]","[-112.68521472803198,23.95198179363861]",37,230.4053389,3.75,1,0.8009,0.4,"[108.703125,108.703125,108.703125,108.703125,108.703125,108.703125,108.703125,108.703125,108.703125,108.703125,108.21484375,88.1640625,61.54296875,37.08984375,17.625,-0.0078125,-16.1015625,-32.1953125,-45.1953125,-58.2109375,-69.9765625,-80.4921875,-90.99609375,-100.2734375,-109.55078125,-114.03125,-117.43359375,-118.96484375,-118.96484375,-118.96484375,-118.96484375,-118.96484375,-118.96484375,-118.96484375,-118.96484375,-118.96484375,-118.96484375,-118.96484375,-118.96484375,-118.96484375,-118.96484375]","[-54.79296875,-54.79296875,-54.79296875,-54.79296875,-54.79296875,-54.79296875,-54.79296875,-54.79296875,-54.79296875,-54.79296875,-54.79296875,-47.4921875,-39.83203125,-35.58984375,-31.74609375,-29.0078125,-26.4140625,-22.046875,-17.1640625,-11.4609375,-6.05078125,-0.12109375,5.8046875,9.97265625,13.47265625,15.71875,19.12109375,20.65234375,20.96875,21.24609375,21.24609375,21.24609375,21.24609375,21.24609375,21.24609375,21.24609375,21.24609375,21.24609375,21.24609375,21.24609375,21.24609375]","[0,0,0,0,0,0,0,0,0,0,0,0,0,0,0,0,0,0,0,0,0,0,0,0,0,0,0,0,0,0,0,0,0,0,0,0,0,0,0,0,0]","[0,0,0,0,0,0,0,0,0,0,0,0,0,0,0,0,0,0,0,0,0,0,0,0,0,0,0,0,0,0,0,0,0,0,0,0,0,0,0,0,0]","[0,0,0,0,0,0,0,0,0,0,0,0,0,0,0,0,0,0,0,0,0,0,0,0,0,0,0,0,0,0,0,0,0,0,0,0,0,0,0,0,0]","[0,0.03309999999404312,0.06630000001192116,0.10000000000000142,0.13320000001788657,0.1667000000178831,0.19980000001192622,0.23309999999403885,0.266300000011924,0.29980000001192053,0.33359999999404266,0.36570000001788117,0.40009999999404045,0.4332000000178837,0.4668000000119221,0.5002000000178839,0.5334000000059618,0.5668000000119235,0.5999000000059596,0.6334000000059632,0.666800000011925,0.6995000000000005,0.7329000000059622,0.7668000000119193,0.8009000000059601,0.8328000000119218,0.8669000000059626,0.8995999999940381,0.9338000000119209,0.9670999999940406,0.9999000000059652,1.03330000001192,1.0665999999940396,1.0999000000059596,1.1334000000059632,1.1664999999999992,1.2002000000178796,1.2332000000178809,1.2665000000000006,1.2999000000059624,1.3335000000000008]",6,0,6,0,1,,,,
A222222222,2024-09-11_14h57.20.038,GoFitts,2023.2.3,MacIntel,29.94011976,"[-112.68521472803198,23.95198179363861]","[115.20266945754976,0]",37,230.4053389,3.75,1,0.7656,0.2651,"[-118.96484375,-118.96484375,-118.96484375,-118.96484375,-118.96484375,-118.96484375,-118.96484375,-113.1875,-87.6484375,-54.1953125,-25.80859375,-4.8203125,12.73046875,29.26171875,37.54296875,43.65234375,52.8984375,61.93359375,66.03125,71.18359375,76.32421875,84.3203125,94.828125,101.875,104.7265625,106.2421875,107.6875,108.7578125,110.2734375,111.7890625,113.3046875,113.68359375,113.95703125,113.95703125,113.95703125,113.95703125,113.95703125,113.95703125,113.95703125,113.95703125]","[21.24609375,21.24609375,21.24609375,21.24609375,21.24609375,21.24609375,21.24609375,21.24609375,21.24609375,22.64453125,22.64453125,22.64453125,22.64453125,19.39453125,18.0703125,18.0703125,18.0703125,16.078125,14.3671875,12.12890625,9.8984375,5.8984375,-0.0234375,-4.40234375,-6.203125,-7.33984375,-8.02734375,-8.02734375,-8.40625,-8.40625,-8.40625,-8.40625,-8.40625,-8.40625,-8.40625,-8.40625,-8.40625,-8.40625,-8.40625,-8.40625]","[0,0,0,0,0,0,0,0,0,0,0,0,0,0,0,0,0,0,0,0,0,0,0,0,0,0,0,0,0,0,0,0,0,0,0,0,0,0,0,0]","[0,0,0,0,0,0,0,0,0,0,0,0,0,0,0,0,0,0,0,0,0,0,0,0,0,0,0,0,0,0,0,0,0,0,0,0,0,0,0,0]","[0,0,0,0,0,0,0,0,0,0,0,0,0,0,0,0,0,0,0,0,0,0,0,0,0,0,0,0,0,0,0,0,0,0,0,0,0,0,0,0]","[0,0.031699999988084926,0.06519999998808146,0.09830000001192474,0.13180000001192127,0.16500000000000625,0.1980000000000004,0.23209999999404118,0.26509999999404243,0.2989000000059647,0.3316999999880821,0.3654000000059625,0.3980999999940451,0.4319000000059603,0.4650000000000034,0.4985999999940418,0.5319000000059617,0.5708000000119213,0.5985000000000014,0.6318000000119213,0.665099999994041,0.6985999999940447,0.7318000000119227,0.7655999999940448,0.7986999999880808,0.8311999999880797,0.8654000000059696,0.8983000000119219,0.9315999999940416,0.9654000000059639,0.9985999999940489,1.031699999988085,1.0653000000119235,1.0983000000119247,1.1316999999880792,1.1648000000119296,1.198400000005968,1.2318000000119227,1.2643000000119216,1.298599999994046]",7,0,7,0,1,,,,
A222222222,2024-09-11_14h57.20.038,GoFitts,2023.2.3,MacIntel,29.94011976,"[115.20266945754976,0]","[-112.68521472803198,-23.95198179363858]",37,230.4053389,3.75,1,0.7987,0.3655,"[113.95703125,113.95703125,113.95703125,113.95703125,113.95703125,113.95703125,113.95703125,113.95703125,113.95703125,113.95703125,113.95703125,83.73046875,31.484375,-9.53125,-42.94921875,-57.4765625,-66.75390625,-76.03125,-85.265625,-91.34375,-96.515625,-99.3828125,-100.9140625,-102.49609375,-104.4921875,-107.984375,-111.05078125,-113.7734375,-114.47265625,-114.47265625,-114.47265625,-114.47265625,-114.47265625,-114.47265625,-114.47265625,-114.47265625,-114.47265625,-114.47265625,-114.47265625,-114.47265625,-114.47265625]","[-8.40625,-8.40625,-8.40625,-8.40625,-8.40625,-8.40625,-8.40625,-8.40625,-8.40625,-8.40625,-8.40625,-8.40625,-18.77734375,-29.00390625,-41.13671875,-46.29296875,-49.77734375,-51.2578125,-51.2578125,-51.2578125,-51.2578125,-50.34765625,-48.81640625,-45.2734375,-37.28125,-28.0234375,-21.8984375,-18.6484375,-18.265625,-18.265625,-18.265625,-18.01171875,-18.01171875,-18.01171875,-18.01171875,-18.01171875,-18.01171875,-18.01171875,-18.01171875,-18.01171875,-18.01171875]","[0,0,0,0,0,0,0,0,0,0,0,0,0,0,0,0,0,0,0,0,0,0,0,0,0,0,0,0,0,0,0,0,0,0,0,0,0,0,0,0,0]","[0,0,0,0,0,0,0,0,0,0,0,0,0,0,0,0,0,0,0,0,0,0,0,0,0,0,0,0,0,0,0,0,0,0,0,0,0,0,0,0,0]","[0,0,0,0,0,0,0,0,0,0,0,0,0,0,0,0,0,0,0,0,0,0,0,0,0,0,0,0,0,0,0,0,0,0,0,0,0,0,0,0,0]","[0,0.03210000002384561,0.06520000001788162,0.09870000001787105,0.13190000000595603,0.16549999999999443,0.1986000000238448,0.23190000000595035,0.26520000001788446,0.2987000000178739,0.33199999999999363,0.3656000000238322,0.3987000000178824,0.4319000000059532,0.4656000000238407,0.49860000002384197,0.5319999999999965,0.5658000000119188,0.598700000017871,0.6317000000178723,0.6649000000059573,0.698300000011912,0.7317000000178808,0.7652000000178845,0.7987000000178739,0.8318000000119241,0.8654000000059625,0.8987000000178824,0.9339000000059627,0.9651000000238383,0.9984999999999928,1.0319999999999965,1.0651000000238326,1.0984000000059524,1.1318000000119213,1.1651000000238412,1.1984999999999957,1.2319999999999993,1.265400000005954,1.2986000000238391,1.3318000000119241]",8,0,8,0,1,,,,
A222222222,2024-09-11_14h57.20.038,GoFitts,2023.2.3,MacIntel,29.94011976,"[-112.68521472803198,-23.95198179363858]","[105.24287539124657,46.8571470485348]",37,230.4053389,3.75,1,0.8322,0.2988,"[-114.47265625,-114.47265625,-114.47265625,-114.47265625,-114.47265625,-114.47265625,-114.47265625,-110.484375,-103.44921875,-90.1796875,-72.296875,-47.6484375,-22.41015625,1.703125,12.79296875,19.8515625,26.9140625,33,42.23828125,52.734375,60.73828125,67.78515625,73.89453125,79.04296875,84.1953125,88.6640625,90.84765625,94.08203125,96.25390625,97.76953125,98.52734375,98.52734375,98.78515625,98.78515625,98.78515625,98.78515625,98.78515625,98.78515625,98.78515625,98.78515625,98.78515625,98.78515625]","[-18.01171875,-18.01171875,-18.01171875,-18.01171875,-18.01171875,-18.01171875,-18.01171875,-17.1953125,-14.6640625,-10.30078125,-4.546875,5.1015625,13.65234375,24.4296875,30.80078125,34.53515625,37.078125,39.46484375,40.9453125,41.76171875,41.76171875,41.76171875,41.76171875,41.76171875,41.76171875,41.76171875,41.76171875,42.81640625,43.3359375,43.3359375,43.3359375,43.3359375,43.3359375,43.6015625,43.6015625,43.6015625,43.6015625,43.6015625,43.6015625,43.6015625,43.6015625,43.6015625]","[0,0,0,0,0,0,0,0,0,0,0,0,0,0,0,0,0,0,0,0,0,0,0,0,0,0,0,0,0,0,0,0,0,0,0,0,0,0,0,0,0,0]","[0,0,0,0,0,0,0,0,0,0,0,0,0,0,0,0,0,0,0,0,0,0,0,0,0,0,0,0,0,0,0,0,0,0,0,0,0,0,0,0,0,0]","[0,0,0,0,0,0,0,0,0,0,0,0,0,0,0,0,0,0,0,0,0,0,0,0,0,0,0,0,0,0,0,0,0,0,0,0,0,0,0,0,0,0]","[0.00009999999403476068,0.03170000001787798,0.06520000001788162,0.09899999999998954,0.13230000001190945,0.1655999999940292,0.1989000000059491,0.23259999999403647,0.26500000000000057,0.2989999999999924,0.3320999999940284,0.36530000001191354,0.3994000000059543,0.43249999999999034,0.46559999999402635,0.4989999999999952,0.5323000000119151,0.5658000000119188,0.5990999999940385,0.6327000000178771,0.6652000000178759,0.6990999999940328,0.7320999999940341,0.7654999999999887,0.7987000000178739,0.8322000000178775,0.8654000000059483,0.8989000000059519,0.9314000000059508,0.9655999999940263,0.9992000000178791,1.0322000000178804,1.0658000000119188,1.0990999999940385,1.1322000000178747,1.165800000011913,1.1982000000178772,1.232300000011918,1.2655999999940377,1.2989000000059576,1.3322000000178775,1.365599999994032]",9,0,9,0,1,,,,
A222222222,2024-09-11_14h57.20.038,GoFitts,2023.2.3,MacIntel,29.94011976,"[105.24287539124657,46.8571470485348]","[-93.20091738851748,-67.71443013187226]",37,230.4053389,3.75,1,0.6998,0.3328,"[98.78515625,98.78515625,98.78515625,98.78515625,98.78515625,98.78515625,98.78515625,98.78515625,98.78515625,91.9453125,67.6484375,41.59375,15.50390625,-11.890625,-29.1484375,-41.92578125,-49.94921875,-56.0703125,-61.2421875,-66.4140625,-70.62890625,-76.75,-85.0546875,-88.8828125,-90.03125,-90.03125,-90.2890625,-91.44140625,-92.4921875,-92.875,-92.875,-92.875,-92.875,-92.875,-92.875,-92.875,-92.875,-92.875]","[43.6015625,43.6015625,43.6015625,43.6015625,43.6015625,43.6015625,43.6015625,43.6015625,43.6015625,40.0625,22.828125,6.20703125,-10.05078125,-28.07421875,-38.6015625,-47.15625,-51.828125,-56.07421875,-60.03515625,-63.328125,-67,-71.24609375,-75.91796875,-77.8671875,-78.24609375,-78.24609375,-78.24609375,-76.8828125,-73.34765625,-70.48046875,-69.78515625,-69.47265625,-69.47265625,-68.83203125,-68.83203125,-68.83203125,-68.83203125,-68.83203125]","[0,0,0,0,0,0,0,0,0,0,0,0,0,0,0,0,0,0,0,0,0,0,0,0,0,0,0,0,0,0,0,0,0,0,0,0,0,0]","[0,0,0,0,0,0,0,0,0,0,0,0,0,0,0,0,0,0,0,0,0,0,0,0,0,0,0,0,0,0,0,0,0,0,0,0,0,0]","[0,0,0,0,0,0,0,0,0,0,0,0,0,0,0,0,0,0,0,0,0,0,0,0,0,0,0,0,0,0,0,0,0,0,0,0,0,0]","[0,0.032600000023833786,0.06580000001191877,0.09920000001787344,0.13240000000595842,0.16570000001787832,0.19899999999999807,0.23230000001191797,0.26590000000595637,0.29930000001191104,0.33290000000596365,0.3663000000119183,0.3995000000000033,0.4328000000119232,0.46630000001191263,0.49940000000596285,0.5328000000119175,0.5661000000238374,0.598700000017871,0.6326000000238423,0.6661000000238317,0.6998000000119191,0.7329999999999899,0.7677000000178822,0.7994999999999948,0.8316000000238404,0.8661000000238346,0.8994000000059543,0.9328000000119232,0.9661000000238431,0.9994000000059629,1.0328000000119175,1.0658000000119188,1.099499999999992,1.1318000000119213,1.1654999999999944,1.199200000017882,1.2325000000000017]",10,0,10,0,1,,,,
A222222222,2024-09-11_14h57.20.038,GoFitts,2023.2.3,MacIntel,29.94011976,"[-93.20091738851748,-67.71443013187226]","[77.08563206828939,85.61226768856075]",37,230.4053389,3.75,1,0.4995,0.3664,"[-92.875,-92.875,-92.875,-92.875,-92.875,-92.875,-92.875,-92.875,-92.875,-92.875,-92.875,-73.80859375,-8.6875,35.32421875,58.140625,66.796875,69.34375,69.34375,70.1015625,71.3828125,73.47265625,75.8046875,77.3203125,77.62890625,77.62890625,77.8828125,78.48046875,78.48046875,78.48046875,78.48046875,78.48046875,78.48046875]","[-68.83203125,-68.83203125,-68.83203125,-68.83203125,-68.83203125,-68.83203125,-68.83203125,-68.83203125,-68.83203125,-68.83203125,-68.83203125,-52.25,8.921875,55.8671875,79.80078125,88.1796875,90.36328125,90.640625,92.171875,94.375,98.5859375,101.4609375,102.2265625,102.2265625,102.2265625,102.2265625,101.9140625,100.3984375,99.70703125,99.43359375,98.86328125,98.86328125]","[0,0,0,0,0,0,0,0,0,0,0,0,0,0,0,0,0,0,0,0,0,0,0,0,0,0,0,0,0,0,0,0]","[0,0,0,0,0,0,0,0,0,0,0,0,0,0,0,0,0,0,0,0,0,0,0,0,0,0,0,0,0,0,0,0]","[0,0,0,0,0,0,0,0,0,0,0,0,0,0,0,0,0,0,0,0,0,0,0,0,0,0,0,0,0,0,0,0]","[0,0.0324000000059641,0.06540000000596535,0.09859999999403612,0.13249999999999318,0.16570000001787832,0.19909999999403283,0.23180000001191559,0.2655999999940377,0.2982000000178857,0.3320999999940426,0.3664000000059531,0.39959999999403806,0.43250000000000455,0.46630000001192684,0.4994999999999976,0.5327000000178828,0.5653000000119164,0.5989000000059548,0.6325999999940422,0.6659000000059621,0.6993000000119167,0.7325999999940365,0.7659000000059564,0.7990999999940414,0.8323000000119265,0.8654999999999973,0.8994000000059543,0.9327000000178742,0.966099999994043,0.9993000000119139,1.032400000005964]",11,0,11,0,1,,,,
A222222222,2024-09-11_14h57.20.038,GoFitts,2023.2.3,MacIntel,29.94011976,"[77.08563206828939,85.61226768856075]","[-57.60133472877493,-99.76843833401972]",37,230.4053389,3.75,1,0.8992,0.4324,"[78.48046875,78.48046875,78.48046875,78.48046875,78.48046875,78.48046875,78.48046875,78.48046875,78.48046875,78.48046875,78.48046875,77.72265625,62.63671875,33.38671875,5.4765625,-9.02734375,-18.84765625,-25.59765625,-29.83203125,-32.32421875,-33.08984375,-33.8515625,-34.6171875,-35.52734375,-36.43359375,-38.25,-43.70703125,-46.7265625,-47.4921875,-48.19140625,-48.890625,-48.890625,-48.890625,-48.890625,-48.890625,-48.890625,-48.890625,-48.890625,-48.890625,-48.890625,-48.890625,-48.890625,-48.890625,-48.890625]","[98.86328125,98.86328125,98.86328125,98.86328125,98.86328125,98.86328125,98.86328125,98.86328125,98.86328125,98.86328125,98.86328125,98.109375,79.58203125,35.5078125,-8.58984375,-31.62109375,-45.9296875,-55.625,-61.69140625,-65.22265625,-66.73828125,-67.42578125,-68.94140625,-71.80078125,-73.98046875,-77.2109375,-82.65234375,-86.1796875,-87.31640625,-88.0078125,-88.69921875,-88.69921875,-88.69921875,-88.69921875,-88.69921875,-88.69921875,-88.69921875,-88.69921875,-88.69921875,-88.69921875,-88.69921875,-88.69921875,-88.69921875,-88.69921875]","[0,0,0,0,0,0,0,0,0,0,0,0,0,0,0,0,0,0,0,0,0,0,0,0,0,0,0,0,0,0,0,0,0,0,0,0,0,0,0,0,0,0,0,0]","[0,0,0,0,0,0,0,0,0,0,0,0,0,0,0,0,0,0,0,0,0,0,0,0,0,0,0,0,0,0,0,0,0,0,0,0,0,0,0,0,0,0,0,0]","[0,0,0,0,0,0,0,0,0,0,0,0,0,0,0,0,0,0,0,0,0,0,0,0,0,0,0,0,0,0,0,0,0,0,0,0,0,0,0,0,0,0,0,0]","[0,0.031200000017875595,0.06550000000000011,0.09870000001787105,0.13220000001787469,0.16570000001787832,0.19899999999999807,0.23190000000595035,0.26549999999998875,0.2989000000059576,0.3320999999940284,0.36859999999403215,0.3983000000119148,0.43249999999999034,0.4657000000178755,0.4989999999999952,0.5324999999999918,0.5658000000119259,0.5992000000178663,0.6325999999940493,0.665900000005955,0.6994000000059586,0.7324000000059456,0.7662000000178679,0.7992000000178834,0.8325000000000031,0.8654999999999902,0.8992000000178777,0.932099999994044,0.9645999999940429,0.9982000000178672,1.0319000000059688,1.0653000000119093,1.0989000000059477,1.1320999999940327,1.1655999999940363,1.198900000005942,1.232200000017876,1.2654999999999959,1.2984000000059481,1.3315999999940331,1.365599999994025,1.398900000005959,1.432099999994044]",12,0,12,0,1,,,,
A222222222,2024-09-11_14h57.20.038,GoFitts,2023.2.3,MacIntel,29.94011976,"[-57.60133472877493,-99.76843833401972]","[35.59958265974259,109.56424948219936]",37,230.4053389,3.75,1,0.7663,0.166,"[-48.890625,-48.890625,-48.890625,-48.890625,-48.890625,-44.6015625,-39.88671875,-31.109375,-16.27734375,-6.87890625,-3.91796875,-0.81640625,2,3.3359375,5.47265625,7.4765625,8.66796875,9.859375,11.57421875,12.62109375,13.140625,14.33203125,15.7578125,17.328125,19.1328125,21.3203125,22.8359375,23.59375,23.859375,24.92578125,25.68359375,25.68359375,25.68359375,25.68359375,25.68359375,25.68359375,25.68359375,25.68359375,25.68359375,25.68359375]","[-88.69921875,-88.69921875,-88.69921875,-88.69921875,-88.69921875,-79.6484375,-67.90625,-41.265625,-11.5703125,6.29296875,16.81640625,28.57421875,37.8515625,47.12890625,56.37109375,64.40234375,71.4765625,78.5546875,83.7265625,88.8984375,94.0625,99.22265625,103.82421875,108.0390625,110.9140625,113.1171875,113.8828125,114.265625,114.265625,114.265625,114.265625,114.265625,114.265625,114.265625,114.265625,114.265625,114.265625,114.265625,114.265625,114.265625]","[0,0,0,0,0,0,0,0,0,0,0,0,0,0,0,0,0,0,0,0,0,0,0,0,0,0,0,0,0,0,0,0,0,0,0,0,0,0,0,0]","[0,0,0,0,0,0,0,0,0,0,0,0,0,0,0,0,0,0,0,0,0,0,0,0,0,0,0,0,0,0,0,0,0,0,0,0,0,0,0,0]","[0,0,0,0,0,0,0,0,0,0,0,0,0,0,0,0,0,0,0,0,0,0,0,0,0,0,0,0,0,0,0,0,0,0,0,0,0,0,0,0]","[0,0.03229999998211497,0.06559999999404909,0.09929999998212224,0.1325000000000216,0.16609999999406,0.19959999999403522,0.23250000000001592,0.2656999999880725,0.29889999997615746,0.3327999999821145,0.36650000000000205,0.3995000000000175,0.432899999976172,0.46559999999405477,0.49969999998808134,0.5326999999880968,0.5662999999821352,0.599399999976157,0.6325000000000216,0.6663999999761643,0.6992999999821166,0.7326999999880854,0.7662999999821238,0.7991999999880761,0.8321999999880916,0.8660000000000139,0.8990999999940357,0.9318999999761672,0.9660000000000082,0.9993999999761627,1.032299999982115,1.0657999999821186,1.0990999999940527,1.1322999999821377,1.1659999999999968,1.199099999994047,1.2323999999761668,1.2650000000000148,1.2992999999821393]",13,0,13,0,1,,,,
A222222222,2024-09-11_14h57.20.038,GoFitts,2023.2.3,MacIntel,29.94011976,"[35.59958265974259,109.56424948219936]","[-12.041958002729203,-114.57157718040708]",37,230.4053389,3.75,1,0.7665,0.3659,"[25.68359375,25.68359375,25.68359375,25.68359375,25.68359375,25.68359375,25.68359375,25.68359375,25.68359375,25.68359375,25.68359375,16.34765625,-1.7421875,-14.98046875,-24.40625,-29.0625,-32.703125,-34.046875,-34.71875,-34.71875,-34.71875,-32.1015625,-27.8984375,-26.00390625,-25.33984375,-22.48046875,-19.62109375,-18.484375,-18.484375,-18.484375,-18.484375,-18.484375,-18.484375,-18.484375,-18.484375,-18.484375,-18.484375,-18.484375,-18.484375,-18.484375]","[114.265625,114.265625,114.265625,114.265625,114.265625,114.265625,114.265625,114.265625,114.265625,114.265625,109.2578125,86.49609375,33.640625,-16.2578125,-47.5859375,-65.203125,-74.45703125,-82.4453125,-87.6015625,-91.1328125,-96.2578125,-99.91796875,-102.5390625,-103.67578125,-103.9609375,-105.765625,-108.625,-110.140625,-110.44921875,-110.44921875,-110.44921875,-110.44921875,-110.44921875,-110.44921875,-110.44921875,-110.44921875,-110.44921875,-110.44921875,-110.44921875,-110.44921875]","[0,0,0,0,0,0,0,0,0,0,0,0,0,0,0,0,0,0,0,0,0,0,0,0,0,0,0,0,0,0,0,0,0,0,0,0,0,0,0,0]","[0,0,0,0,0,0,0,0,0,0,0,0,0,0,0,0,0,0,0,0,0,0,0,0,0,0,0,0,0,0,0,0,0,0,0,0,0,0,0,0]","[0,0,0,0,0,0,0,0,0,0,0,0,0,0,0,0,0,0,0,0,0,0,0,0,0,0,0,0,0,0,0,0,0,0,0,0,0,0,0,0]","[0,0.03220000001789458,0.06540000000597956,0.09880000001192002,0.13209999999403976,0.16480000001192252,0.19809999999404226,0.2322000000178832,0.26490000000598,0.2983000000119205,0.332599999994045,0.36600000000001387,0.3990999999940641,0.431400000005965,0.4654000000059568,0.4983000000119375,0.5323000000119293,0.5655999999940491,0.5990999999940527,0.6325000000000216,0.6655000000000086,0.6990000000000123,0.7324000000059812,0.7665000000000077,0.7988000000119371,0.8320999999940568,0.8655999999940605,0.8989000000059661,0.9319000000059816,0.9652000000178873,0.9985999999940418,1.0320999999940454,1.0653000000119448,1.0985999999940361,1.132200000017889,1.1652000000179044,1.198400000005961,1.2319000000059646,1.2654000000059682,1.2987000000179023]",14,0,14,0,1,,,,
A222222222,2024-09-11_14h57.20.038,GoFitts,2023.2.3,MacIntel,29.94011976,,,,,,1,,,,,,,,,,,,,,1,0,0,1
A222222222,2024-09-11_14h57.20.038,GoFitts,2023.2.3,MacIntel,29.94011976,"[-10.1875,19.5]","[426.89899760458036,0]",90,853.7979952,4.32,2,1.1982,0.5981,"[-10.1875,-10.1875,-10.1875,-10.1875,-10.1875,-10.1875,-10.1875,-10.1875,-10.1875,-10.1875,-10.1875,-10.1875,-10.1875,-10.1875,-10.1875,-10.1875,-10.1875,-10.1875,-10.1875,27.1015625,103.20703125,181.26953125,235.859375,283.20703125,340.609375,384.921875,414.265625,424.45703125,429.8828125,434.37109375,437.7109375,439.33203125,439.33203125,436.41015625,433.24609375,430.90234375,429.75390625,429.37109375,429.37109375,429.37109375,429.37109375,429.37109375,429.37109375,429.37109375,429.37109375,429.37109375,429.37109375,429.37109375,429.37109375,429.37109375,429.37109375,429.37109375,429.37109375]","[19.5,19.5,19.5,19.5,19.5,19.5,19.5,19.5,19.5,19.5,19.5,19.5,19.5,19.5,19.5,19.5,19.5,19.5,20.4765625,72.265625,152.3671875,214.26171875,232.12890625,225.953125,188.796875,147.70703125,112.921875,100.8125,96.0546875,91.42578125,81.87890625,67.34765625,57.86328125,51.76171875,48.61328125,46.29296875,44.77734375,42.58984375,39.7421875,37.8515625,37.8515625,37.8515625,37.8515625,37.8515625,37.8515625,37.8515625,37.8515625,37.8515625,37.8515625,37.8515625,37.8515625,37.8515625,37.8515625]","[0,0,0,0,0,0,0,0,0,0,0,0,0,0,0,0,0,0,0,0,0,0,0,0,0,0,0,0,0,0,0,0,0,0,0,0,0,0,0,0,0,0,0,0,0,0,0,0,0,0,0,0,0]","[0,0,0,0,0,0,0,0,0,0,0,0,0,0,0,0,0,0,0,0,0,0,0,0,0,0,0,0,0,0,0,0,0,0,0,0,0,0,0,0,0,0,0,0,0,0,0,0,0,0,0,0,0]","[0,0,0,0,0,0,0,0,0,0,0,0,0,0,0,0,0,0,0,0,0,0,0,0,0,0,0,0,0,0,0,0,0,0,0,0,0,0,0,0,0,0,0,0,0,0,0,0,0,0,0,0,0]","[0,0.031199999988103855,0.06439999997616042,0.0977999999821293,0.13089999997617952,0.1637999999821318,0.1977999999821236,0.23100000000002296,0.26439999997617747,0.2975999999940484,0.33089999997616815,0.364299999982137,0.3976999999880775,0.4302999999821395,0.46350000000001046,0.4976999999881002,0.5305000000000177,0.5635999999940395,0.5981999999880827,0.6312999999821329,0.66429999998212,0.6981999999881054,0.7312999999821272,0.7645999999940614,0.7980000000000018,0.8310000000000173,0.8645000000000209,0.8978999999761754,0.9313999999761791,0.9646999999880848,0.9980000000000189,1.0313999999761734,1.064899999976177,1.098099999994048,1.1315999999940516,1.1648999999761713,1.1981999999881054,1.231399999976162,1.2646999999880961,1.297899999976181,1.3308999999761681,1.3643999999761718,1.3975999999940427,1.4308999999761625,1.4645000000000152,1.4975999999940655,1.5310999999940407,1.5645000000000095,1.5975999999940598,1.6308999999761795,1.66429999998212,1.6967999999821188,1.731000000000023]",0,0,0,0,1,,,,
A222222222,2024-09-11_14h57.20.038,GoFitts,2023.2.3,MacIntel,29.94011976,"[426.89899760458036,0]","[-417.57023026258696,-88.75729240037478]",90,853.7979952,4.32,2,0.9334,0.3992,"[429.37109375,429.37109375,429.37109375,429.37109375,429.37109375,429.37109375,429.37109375,429.37109375,429.37109375,429.37109375,429.37109375,404.7578125,284.33984375,107.95703125,-104.09765625,-200.68359375,-253.41015625,-288.3359375,-303.16015625,-309.28125,-312.97265625,-318.70703125,-328.453125,-341.44140625,-352.53515625,-360.7578125,-368.9609375,-377.625,-393.4453125,-402.109375,-404.45703125,-404.45703125,-404.45703125,-404.45703125,-404.45703125,-404.45703125,-404.45703125,-404.45703125,-404.45703125,-404.45703125,-404.45703125,-404.45703125,-404.45703125,-404.45703125,-404.45703125]","[37.8515625,37.8515625,37.8515625,37.8515625,37.8515625,37.8515625,37.8515625,37.8515625,37.8515625,37.8515625,37.8515625,37.8515625,24.11328125,13.43359375,10.875,12.71875,16.109375,16.109375,16.109375,12.53515625,8.33203125,1.94921875,-7.78125,-19.79296875,-29.9296875,-38.13671875,-46.32421875,-55.640625,-71.453125,-81.0625,-83.39453125,-84.08203125,-84.35546875,-84.35546875,-84.35546875,-84.35546875,-84.35546875,-84.35546875,-84.35546875,-84.35546875,-84.35546875,-84.35546875,-84.35546875,-84.35546875,-84.35546875]","[0,0,0,0,0,0,0,0,0,0,0,0,0,0,0,0,0,0,0,0,0,0,0,0,0,0,0,0,0,0,0,0,0,0,0,0,0,0,0,0,0,0,0,0,0]","[0,0,0,0,0,0,0,0,0,0,0,0,0,0,0,0,0,0,0,0,0,0,0,0,0,0,0,0,0,0,0,0,0,0,0,0,0,0,0,0,0,0,0,0,0]","[0,0,0,0,0,0,0,0,0,0,0,0,0,0,0,0,0,0,0,0,0,0,0,0,0,0,0,0,0,0,0,0,0,0,0,0,0,0,0,0,0,0,0,0,0]","[0,0.03249999999999886,0.06580000001190456,0.0984000000059666,0.13210000002382571,0.1657000000178641,0.199100000023833,0.2322000000178832,0.26560000002382367,0.2991000000238273,0.3323000000119123,0.3654000000059625,0.39930000001191956,0.43270000001786,0.46620000001786366,0.49960000002383254,0.5327000000178828,0.5661000000238232,0.5989000000059548,0.6328000000119118,0.666100000023846,0.6993000000119025,0.7329000000059409,0.7661000000238403,0.7994999999999948,0.8332000000178823,0.8658000000119159,0.8994999999999891,0.9334000000059461,0.9663000000119268,0.9986000000238278,1.032999999999987,1.065600000023835,1.0989999999999895,1.1324000000059584,1.1657000000178641,1.199100000023833,1.2316000000238319,1.265300000011905,1.2989999999999782,1.3319000000059589,1.3649999999999807,1.399000000000001,1.4318000000119184,1.4656000000238407]",1,0,1,0,1,,,,
A222222222,2024-09-11_14h57.20.038,GoFitts,2023.2.3,MacIntel,29.94011976,"[-417.57023026258696,-88.75729240037478]","[389.99164013384393,173.63546521811108]",90,853.7979952,4.32,2,0.9668,0.4662,"[-404.45703125,-404.45703125,-404.45703125,-404.45703125,-404.45703125,-404.45703125,-404.45703125,-404.45703125,-404.45703125,-404.45703125,-404.45703125,-404.45703125,-404.45703125,-393.19140625,-345.21484375,-240.00390625,-124.9921875,-13.7109375,67.56640625,122.0546875,161.8671875,186.51953125,218.734375,241.80859375,267.5390625,290.9296875,311.87109375,331.02734375,345.5546875,352.60546875,356.80859375,359.65625,361.171875,362.6875,367.171875,371.36328125,373.171875,373.171875,373.171875,373.171875,373.171875,373.171875,373.171875,373.171875,373.171875,373.171875]","[-84.35546875,-84.35546875,-84.35546875,-84.35546875,-84.35546875,-84.35546875,-84.35546875,-84.35546875,-84.35546875,-84.35546875,-84.35546875,-84.35546875,-84.35546875,-76.87109375,-44.31640625,18.2734375,70.51171875,109.04296875,131.28125,141.10546875,145.00390625,145.00390625,145.00390625,145.00390625,145.00390625,145.00390625,148.82421875,152.66796875,156.07421875,157.94140625,158.99609375,159.90625,160.671875,160.671875,160.671875,160.671875,160.671875,160.98828125,160.98828125,160.98828125,160.98828125,160.98828125,160.98828125,160.98828125,160.98828125,160.98828125]","[0,0,0,0,0,0,0,0,0,0,0,0,0,0,0,0,0,0,0,0,0,0,0,0,0,0,0,0,0,0,0,0,0,0,0,0,0,0,0,0,0,0,0,0,0,0]","[0,0,0,0,0,0,0,0,0,0,0,0,0,0,0,0,0,0,0,0,0,0,0,0,0,0,0,0,0,0,0,0,0,0,0,0,0,0,0,0,0,0,0,0,0,0]","[0,0,0,0,0,0,0,0,0,0,0,0,0,0,0,0,0,0,0,0,0,0,0,0,0,0,0,0,0,0,0,0,0,0,0,0,0,0,0,0,0,0,0,0,0,0]","[0,0.03159999999402885,0.06540000000595114,0.09880000001192002,0.1322000000178889,0.16480000001192252,0.19870000001787957,0.2315999999940459,0.26520000001787025,0.2990000000000066,0.33240000000597547,0.36559999999403203,0.3990000000000009,0.4328000000119232,0.4662000000178921,0.4993000000119139,0.5325999999940336,0.5663000000119212,0.5990999999940527,0.6325999999940564,0.664999999999992,0.6990000000000123,0.7322000000178832,0.7652000000178703,0.7990999999940414,0.8323000000119123,0.8660000000000139,0.8994000000059543,0.9320000000000164,0.966800000011915,0.99909999999403,1.032400000005964,1.0660000000000025,1.0994000000059714,1.1328000000119118,1.1658000000119273,1.1994000000059657,1.2325999999940507,1.265500000000003,1.2990000000000066,1.3319000000059589,1.3654999999999973,1.3988000000119314,1.4322000000178718,1.46459999999405,1.4988000000119257]",2,0,2,0,1,,,,
A222222222,2024-09-11_14h57.20.038,GoFitts,2023.2.3,MacIntel,29.94011976,"[389.99164013384393,173.63546521811108]","[-345.3685439437355,-250.9249350104121]",90,853.7979952,4.32,2,0.7664,0.3659,"[373.171875,373.171875,373.171875,373.171875,373.171875,373.171875,373.171875,373.171875,373.171875,373.171875,373.171875,331.48828125,214.3515625,54.44921875,-60.58984375,-158.4375,-203.47265625,-223.3515625,-234.66015625,-248.6015625,-267.14453125,-281.88671875,-297.87890625,-312.43359375,-320.7578125,-326.8828125,-330.41015625,-333.28515625,-336.16015625,-337.30859375,-337.59765625,-337.59765625,-337.59765625,-337.59765625,-337.59765625,-337.59765625,-337.59765625,-337.59765625,-337.59765625,-337.59765625]","[160.98828125,160.98828125,160.98828125,160.98828125,160.98828125,160.98828125,160.98828125,160.98828125,160.98828125,160.98828125,160.98828125,136.375,63.78515625,-33.703125,-108.7109375,-171.79296875,-200.2578125,-214.7734375,-222.85546875,-233.90234375,-247.93359375,-259.12109375,-268.0546875,-275.80078125,-279.28515625,-279.28515625,-279.28515625,-279.28515625,-279.28515625,-279.28515625,-279.28515625,-279.28515625,-279.54296875,-279.54296875,-279.54296875,-279.54296875,-279.54296875,-279.54296875,-279.54296875,-279.54296875]","[0,0,0,0,0,0,0,0,0,0,0,0,0,0,0,0,0,0,0,0,0,0,0,0,0,0,0,0,0,0,0,0,0,0,0,0,0,0,0,0]","[0,0,0,0,0,0,0,0,0,0,0,0,0,0,0,0,0,0,0,0,0,0,0,0,0,0,0,0,0,0,0,0,0,0,0,0,0,0,0,0]","[0,0,0,0,0,0,0,0,0,0,0,0,0,0,0,0,0,0,0,0,0,0,0,0,0,0,0,0,0,0,0,0,0,0,0,0,0,0,0,0]","[0,0.03249999999999886,0.06569999998808385,0.09869999998807089,0.13249999999999318,0.16569999998807816,0.1991999999880818,0.23140000000594796,0.2654000000059398,0.2990000000000066,0.3354000000059614,0.3659000000059507,0.3992999999821052,0.43290000000595796,0.4661999999880777,0.49909999999403,0.5324000000059641,0.5657999999821186,0.5992999999821222,0.6325999999940279,0.6659000000059621,0.6991999999880818,0.7325999999940223,0.7664000000059445,0.7991999999880761,0.831699999988075,0.8652999999821134,0.8991999999880704,0.9319000000059532,0.9655999999940263,0.9992999999820995,1.032400000005964,1.0660000000000025,1.0989999999999895,1.1316999999880863,1.1655999999940434,1.1990999999940186,1.2324000000059527,1.2656999999880725,1.29940000000596]",3,0,3,0,1,,,,
A222222222,2024-09-11_14h57.20.038,GoFitts,2023.2.3,MacIntel,29.94011976,"[-345.3685439437355,-250.9249350104121]","[285.6511851211416,317.2477810713304]",90,853.7979952,4.32,2,0.6321,0.4651,"[-337.59765625,-337.59765625,-337.59765625,-337.59765625,-337.59765625,-337.59765625,-337.59765625,-337.59765625,-337.59765625,-337.59765625,-337.59765625,-337.59765625,-337.59765625,-337.59765625,-294.72265625,-190.3359375,26.25,148.12890625,222.36328125,257.359375,278.9921875,294.2265625,302.2265625,307.37890625,310.23828125,311.75390625,312.1328125,312.1328125,312.1328125,312.1328125,312.1328125,312.1328125,312.1328125,312.1328125,312.1328125,312.1328125]","[-279.54296875,-279.54296875,-279.54296875,-279.54296875,-279.54296875,-279.54296875,-279.54296875,-279.54296875,-279.54296875,-279.54296875,-279.54296875,-279.54296875,-279.54296875,-279.54296875,-241.859375,-139.5546875,87.16796875,212.26953125,278.859375,306.4296875,321.59765625,327.28125,327.9453125,327.9453125,327.9453125,327.56640625,327.56640625,327.29296875,327.29296875,327.29296875,326.6640625,326.6640625,326.6640625,326.6640625,326.6640625,326.6640625]","[0,0,0,0,0,0,0,0,0,0,0,0,0,0,0,0,0,0,0,0,0,0,0,0,0,0,0,0,0,0,0,0,0,0,0,0]","[0,0,0,0,0,0,0,0,0,0,0,0,0,0,0,0,0,0,0,0,0,0,0,0,0,0,0,0,0,0,0,0,0,0,0,0]","[0,0,0,0,0,0,0,0,0,0,0,0,0,0,0,0,0,0,0,0,0,0,0,0,0,0,0,0,0,0,0,0,0,0,0,0]","[0,0.031999999999982265,0.06530000001191638,0.09870000001788526,0.13210000002382571,0.16470000001788776,0.1980000000000075,0.23210000002384845,0.265300000011905,0.29880000001190865,0.33220000001787753,0.36549999999999727,0.39840000000594955,0.43220000001787184,0.4651000000238241,0.49940000000594864,0.5321000000238314,0.5657000000178698,0.5989000000059548,0.6321000000238257,0.6654000000059455,0.6989000000059491,0.7322000000178832,0.7656000000238521,0.7989000000059434,0.8322000000178775,0.8646000000238416,0.8978000000119266,0.9313000000119303,0.9654000000059568,0.9991000000238444,1.0321000000238314,1.0652000000178816,1.09880000001192,1.1316000000238375,1.1654000000059455]",4,0,4,0,1,,,,
A222222222,2024-09-11_14h57.20.038,GoFitts,2023.2.3,MacIntel,29.94011976,"[285.6511851211416,317.2477810713304]","[-213.44949880229038,-369.7053767756787]",90,853.7979952,4.32,2,0.866,0.3658,"[312.1328125,312.1328125,312.1328125,312.1328125,312.1328125,312.1328125,312.1328125,312.1328125,312.1328125,312.1328125,299.0078125,252.22265625,128.88671875,-1.203125,-83.9140625,-119.19921875,-129.28515625,-132.83984375,-134.6171875,-136.39453125,-137.2109375,-139.51171875,-143.37890625,-148.16796875,-158.6796875,-172.43359375,-179.51171875,-185.63671875,-189.18359375,-192.04296875,-195.58984375,-197.78515625,-198.93359375,-198.93359375,-198.93359375,-198.93359375,-198.93359375,-198.93359375,-198.93359375,-198.93359375,-198.93359375,-198.93359375,-198.93359375]","[326.6640625,326.6640625,326.6640625,326.6640625,326.6640625,326.6640625,326.6640625,326.6640625,326.6640625,326.6640625,305.88671875,241.0078125,84.42578125,-99.04296875,-226.875,-288.0703125,-313.296875,-329.375,-346.9921875,-361.49609375,-370.7578125,-381.26171875,-389.546875,-394.98828125,-398.609375,-399.4140625,-397.546875,-393.953125,-392.515625,-392.1328125,-391.60546875,-391.22265625,-391.22265625,-391.22265625,-391.22265625,-391.22265625,-391.22265625,-391.22265625,-391.22265625,-391.22265625,-391.22265625,-391.22265625,-391.22265625]","[0,0,0,0,0,0,0,0,0,0,0,0,0,0,0,0,0,0,0,0,0,0,0,0,0,0,0,0,0,0,0,0,0,0,0,0,0,0,0,0,0,0,0]","[0,0,0,0,0,0,0,0,0,0,0,0,0,0,0,0,0,0,0,0,0,0,0,0,0,0,0,0,0,0,0,0,0,0,0,0,0,0,0,0,0,0,0]","[0,0,0,0,0,0,0,0,0,0,0,0,0,0,0,0,0,0,0,0,0,0,0,0,0,0,0,0,0,0,0,0,0,0,0,0,0,0,0,0,0,0,0]","[0,0.0324000000059641,0.06590000000596774,0.09899999999998954,0.13230000001192366,0.16519999998808998,0.19830000001192616,0.2324999999999875,0.2656999999880725,0.29909999999404135,0.3320999999940284,0.3658000000119159,0.3994000000059543,0.43269999998807407,0.4659000000059734,0.49919999998809317,0.5324000000059641,0.5655000000000143,0.5993000000119366,0.6328000000119118,0.6660999999940316,0.6993000000119309,0.7333000000119227,0.7661999999880891,0.79940000000596,0.8325000000000102,0.8660000000000139,0.8983000000119148,0.9318000000119184,0.9655999999940548,0.998500000000007,1.0323000000119293,1.0653000000119164,1.0991999999880875,1.1324999999999932,1.165900000005962,1.1991999999880818,1.2325999999940507,1.2659000000059564,1.2993000000119252,1.3315000000000055,1.3656999999880668,1.3994000000059543]",5,0,5,0,1,,,,
A222222222,2024-09-11_14h57.20.038,GoFitts,2023.2.3,MacIntel,29.94011976,"[-213.44949880229038,-369.7053767756787]","[131.9190451414453,406.0050734717053]",90,853.7979952,4.32,2,1.0992,0.4326,"[-198.93359375,-198.93359375,-198.93359375,-198.93359375,-198.93359375,-198.93359375,-198.93359375,-198.93359375,-198.93359375,-198.93359375,-198.93359375,-198.93359375,-189.69921875,-144.6640625,-78.265625,-20.65625,16.73046875,29.89453125,35.96484375,40.59765625,42.96484375,43.27734375,43.27734375,46.23046875,52.44140625,57.19921875,68.625,78.2890625,82.875,84.87890625,87.8359375,91.55859375,99.484375,110.1953125,115.78515625,117.30078125,117.6796875,117.9921875,119.0625,120.578125,122.09375,122.78515625,123.09375,123.69140625,123.69140625,123.69140625,123.69140625,123.69140625,123.69140625,123.69140625]","[-391.22265625,-391.22265625,-391.22265625,-391.22265625,-391.22265625,-391.22265625,-391.22265625,-391.22265625,-391.22265625,-391.22265625,-391.22265625,-391.22265625,-368.06640625,-258.125,-93.48046875,49.91796875,153.71875,203.5390625,236.5234375,254.1171875,260.4765625,261.84375,262.85546875,275.96484375,287.734375,293.83984375,305.94140625,318.875,329.3984375,336.4765625,346.984375,354.0625,361.3359375,370.43359375,376.0390625,377.1875,377.88671875,378.96875,380.43359375,381.96484375,383.11328125,383.8125,384.1953125,384.1953125,384.1953125,384.1953125,384.1953125,384.1953125,384.1953125,384.1953125]","[0,0,0,0,0,0,0,0,0,0,0,0,0,0,0,0,0,0,0,0,0,0,0,0,0,0,0,0,0,0,0,0,0,0,0,0,0,0,0,0,0,0,0,0,0,0,0,0,0,0]","[0,0,0,0,0,0,0,0,0,0,0,0,0,0,0,0,0,0,0,0,0,0,0,0,0,0,0,0,0,0,0,0,0,0,0,0,0,0,0,0,0,0,0,0,0,0,0,0,0,0]","[0,0,0,0,0,0,0,0,0,0,0,0,0,0,0,0,0,0,0,0,0,0,0,0,0,0,0,0,0,0,0,0,0,0,0,0,0,0,0,0,0,0,0,0,0,0,0,0,0,0]","[0,0.03200000000001069,0.0654999999999859,0.09899999999998954,0.13219999998807452,0.16459999999403863,0.19879999998212838,0.2322999999821036,0.2656999999880725,0.2987999999821227,0.33219999998806315,0.36549999999999727,0.3992999999821052,0.4325999999940393,0.4657999999821243,0.4985999999940418,0.5325999999940336,0.5649999999999977,0.5981999999880827,0.6321999999880745,0.6657999999821129,0.6991999999880818,0.7316999999880807,0.7657999999821072,0.7990999999940414,0.8325000000000102,0.865599999994032,0.8990999999940357,0.9316999999880693,0.9652999999821077,0.9989999999999952,1.0326999999880684,1.0657999999821186,1.0991999999880875,1.1324999999999932,1.1656999999880782,1.199099999994047,1.2322999999821036,1.2656999999880725,1.2990999999940414,1.3322999999821263,1.3656999999880668,1.3993999999761684,1.4325999999940393,1.4655999999940263,1.498899999976146,1.5321999999880802,1.565599999994049,1.5988999999761688,1.6313999999761677]",6,0,6,0,1,,,,
A222222222,2024-09-11_14h57.20.038,GoFitts,2023.2.3,MacIntel,29.94011976,"[131.9190451414453,406.0050734717053]","[-44.62309619010879,-424.56040022852324]",90,853.7979952,4.32,2,0.9009,0.1671,"[123.69140625,123.69140625,123.69140625,123.69140625,120.8125,113.12890625,107.22265625,106.55078125,106.02734375,106.02734375,106.02734375,98.375,56.16796875,-2.14453125,-43.6875,-53.05859375,-58.484375,-75.6875,-91.72265625,-99.00390625,-99.00390625,-97.234375,-88.6171875,-78.859375,-64.8671875,-55.078125,-50.36328125,-48.89453125,-48.89453125,-48.89453125,-48.89453125,-51.94140625,-57.390625,-57.390625,-57.390625,-57.390625,-57.390625,-57.390625,-57.390625,-57.390625,-57.390625,-57.390625,-57.390625,-57.390625]","[384.1953125,384.1953125,384.1953125,384.1953125,367.015625,340.33984375,319.05859375,312.953125,310.77734375,309.26171875,302.578125,269.41796875,181.9609375,73.87890625,-47.87109375,-105.8125,-147.9140625,-203.45703125,-242.05078125,-263.28125,-276.2421875,-298.109375,-317.55859375,-330.84375,-345.796875,-360.08984375,-371.8125,-383.03515625,-391.05078125,-397.16015625,-403.25,-409.3359375,-414.76953125,-414.76953125,-414.76953125,-414.76953125,-414.76953125,-414.76953125,-414.76953125,-414.76953125,-414.76953125,-414.76953125,-414.76953125,-414.76953125]","[0,0,0,0,0,0,0,0,0,0,0,0,0,0,0,0,0,0,0,0,0,0,0,0,0,0,0,0,0,0,0,0,0,0,0,0,0,0,0,0,0,0,0,0]","[0,0,0,0,0,0,0,0,0,0,0,0,0,0,0,0,0,0,0,0,0,0,0,0,0,0,0,0,0,0,0,0,0,0,0,0,0,0,0,0,0,0,0,0]","[0,0,0,0,0,0,0,0,0,0,0,0,0,0,0,0,0,0,0,0,0,0,0,0,0,0,0,0,0,0,0,0,0,0,0,0,0,0,0,0,0,0,0,0]","[0,0.0324000000059641,0.06669999998808862,0.09999999999999432,0.13330000001192843,0.16709999999403635,0.20040000000597047,0.23380000001191092,0.26709999999403067,0.30049999999999955,0.3334000000059518,0.36669999998807157,0.40030000001192434,0.4335000000000093,0.4669000000059498,0.5001999999880695,0.5335000000000036,0.5663000000119212,0.5996999999880757,0.633499999999998,0.6666999999880829,0.7000999999940518,0.7334999999999923,0.7661999999880891,0.80030000001193,0.8338000000119337,0.8669999999999902,0.9009000000059757,0.9335000000000093,0.9669000000059498,0.9999000000059652,1.0326999999880684,1.0665999999940539,1.0999000000059596,1.1326999999880911,1.1665999999940482,1.1999000000059539,1.2331999999880736,1.2666999999880773,1.3000000000000114,1.333199999988068,1.3665999999940368,1.4000000000000057,1.4333000000119114]",7,0,7,0,1,,,,
