key_resp_4.keys,key_resp_4.rt,身分證字號,date,expName,psychopyVersion,OS,frameRate,mouse_2.x,mouse_2.y,mouse_2.leftButton,mouse_2.midButton,mouse_2.rightButton,mouse_2.time,cont.keys,cont.rt,retry_testing.thisRepN,retry_testing.thisTrialN,retry_testing.thisN,retry_testing.thisIndex,retry_testing.ran,key_resp.keys,key_resp.rt,key_resp_3.keys,key_resp_3.rt,from,to,w,a,sequence_loop.thisN,mouse.x,mouse.y,mouse.leftButton,mouse.midButton,mouse.rightButton,mouse.time,key_resp_2.keys,trial_loop.thisRepN,trial_loop.thisTrialN,trial_loop.thisN,trial_loop.thisIndex,trial_loop.ran,sequence_loop.thisRepN,sequence_loop.thisTrialN,sequence_loop.thisIndex,sequence_loop.ran
return,9.0699,A262731241,2023-04-24_13h36.17.968,GoFitts,2022.2.4,MacIntel,59.99520038,,,,,,,,,,,,,,,,,,,,,,,,,,,,,,,,,,,,,,
,,A262731241,2023-04-24_13h36.17.968,GoFitts,2022.2.4,MacIntel,59.99520038,"[122.2403564453125,122.2403564453125,122.2403564453125,122.2403564453125,122.2403564453125,122.2403564453125,122.2403564453125,122.2403564453125,122.2403564453125,122.2403564453125,122.2403564453125,122.2403564453125,122.2403564453125,122.2403564453125,128.180419921875,139.63623046875,159.5675048828125,178.035400390625,179.50634765625,178.9976806640625,176.107177734375,167.9180908203125,160.6043701171875,150.215576171875,149.622314453125,153.936279296875,165.0567626953125,182.888671875,217.5216064453125,257.181396484375,275.6094970703125,280.4901123046875,280.4901123046875,280.4901123046875,282.2705078125,287.7733154296875,295.486572265625,300.3216552734375,301.3389892578125,301.3389892578125,301.3389892578125,301.3389892578125,303.6280517578125,305.6627197265625,307.1888427734375,308.46044921875,314.5760498046875,322.685791015625,326.45458984375,330.327392578125,333.4835205078125,335.5181884765625,336.0269775390625,336.0269775390625,337.0443115234375,337.8072509765625,338.0616455078125,338.31591796875,340.3507080078125,342.1309814453125,342.6396484375,342.6396484375,342.6396484375,342.6396484375,342.6396484375,342.6396484375,342.6396484375,342.6396484375,342.6396484375,341.876708984375,332.371337890625,267.4017333984375,214.947265625,164.6236572265625,94.1944580078125,60.8662109375,59.340087890625,58.8314208984375,58.4576416015625,57.4403076171875,56.168701171875,54.89697265625,53.7601318359375,46.48876953125,28.6082763671875,-0.27783203125,-29.0361328125,-42.6785888671875,-45.325927734375,-45.325927734375,-45.325927734375,-45.325927734375,-45.325927734375,-45.325927734375,-44.05419921875,-42.01953125,-38.8634033203125,-35.811279296875,-30.5628662109375,-27.302734375,-25.26806640625,-25.013671875,-42.02197265625,-75.1346435546875,-117.7991943359375,-150.57666015625,-187.3121337890625,-235.147705078125,-266.93096923828125,-285.052734375,-291.80706787109375,-296.69720458984375,-304.19439697265625,-304.9573974609375,-304.9573974609375,-305.466064453125,-310.460205078125,-315.60394287109375,-321.58319091796875,-322.8548583984375,-323.10919189453125,-325.50225830078125,-328.6583251953125,-330.438720703125,-330.9473876953125,-330.9473876953125,-330.9473876953125,-330.9473876953125,-330.9473876953125,-330.9473876953125,-330.9473876953125,-330.9473876953125,-330.9473876953125,-330.9473876953125,-331.96478271484375,-333.2364501953125,-333.49078369140625,-333.49078369140625,-333.49078369140625,-333.15191650390625,-322.23345947265625,-298.297607421875,-236.6307373046875,-179.012939453125,-141.851806640625,-110.96875,-99.092529296875,-95.66748046875,-87.364013671875,-76.2276611328125,-66.802734375,-60.1785888671875,-43.3082275390625,-21.4320068359375,-2.1888427734375,3.0858154296875,4.2225341796875,4.5963134765625,5.10498046875,3.8333740234375]","[-190.44927978515625,-190.44927978515625,-190.44927978515625,-190.44927978515625,-190.44927978515625,-190.44927978515625,-190.44927978515625,-190.44927978515625,-190.44927978515625,-190.44927978515625,-190.44927978515625,-190.44927978515625,-190.44927978515625,-190.44927978515625,-228.72509765625,-273.45733642578125,-324.3812255859375,-366.8095703125,-388.5556640625,-390.185791015625,-375.5640869140625,-345.0574951171875,-320.67822265625,-292.67462158203125,-279.55877685546875,-255.17950439453125,-209.655029296875,-169.9287109375,-106.72747802734375,-16.68603515625,30.59619140625,39.00445556640625,39.00445556640625,39.00445556640625,37.98712158203125,34.2337646484375,24.6968994140625,17.1802978515625,14.63690185546875,14.63690185546875,14.63690185546875,14.63690185546875,12.8565673828125,11.8392333984375,11.33056640625,10.8218994140625,9.32672119140625,8.95294189453125,8.95294189453125,8.3248291015625,6.425048828125,5.40771484375,5.15338134765625,5.15338134765625,4.64471435546875,4.390380859375,4.13604736328125,3.8817138671875,3.373046875,2.355712890625,2.355712890625,2.355712890625,2.355712890625,2.355712890625,2.355712890625,2.355712890625,2.355712890625,2.355712890625,2.355712890625,2.8643798828125,10.577880859375,60.82122802734375,108.0020751953125,170.14190673828125,234.22085571289062,256.57086181640625,258.0968933105469,259.87725830078125,263.3916931152344,265.4263916015625,267.96978759765625,269.2414855957031,271.88885498046875,285.0046691894531,308.8871154785156,334.2718505859375,353.7149353027344,361.6234436035156,363.8970642089844,363.8970642089844,363.8970642089844,363.8970642089844,363.8970642089844,363.8970642089844,363.8970642089844,363.8970642089844,363.3883972167969,361.86236572265625,358.48284912109375,356.3441467285156,354.3094177246094,350.4366455078125,321.3985900878906,277.27227783203125,221.44216918945312,179.72308349609375,131.75457763671875,76.69451904296875,50.25738525390625,42.2838134765625,39.05865478515625,35.28985595703125,32.76263427734375,31.9996337890625,31.9996337890625,31.74530029296875,29.36767578125,23.47637939453125,14.92596435546875,11.8739013671875,10.34783935546875,6.57904052734375,3.7967529296875,3.54241943359375,3.2880859375,3.2880859375,3.2880859375,3.2880859375,3.2880859375,3.2880859375,3.2880859375,3.2880859375,3.2880859375,3.2880859375,2.52508544921875,1.7620849609375,1.7620849609375,1.7620849609375,1.7620849609375,-1.8824462890625,-22.24700927734375,-59.25341796875,-142.53533935546875,-209.917236328125,-262.529052734375,-308.80615234375,-327.68017578125,-332.615966796875,-351.859130859375,-369.78271484375,-382.4581298828125,-385.20947265625,-386.6593017578125,-386.6593017578125,-381.5185546875,-377.80419921875,-375.4111328125,-372.000732421875,-369.353271484375,-367.318603515625]","[0,0,0,0,0,0,0,0,0,0,0,0,0,0,0,0,0,0,0,0,0,0,0,0,0,0,0,0,0,0,0,0,0,0,0,0,0,0,0,0,0,0,0,0,0,0,0,0,0,0,0,0,0,0,0,0,0,0,0,0,1,1,1,1,1,0,0,0,0,0,0,0,0,0,0,0,0,0,0,0,0,0,0,0,0,0,0,0,0,0,0,0,0,0,0,0,0,0,0,0,0,0,0,0,0,0,0,0,0,0,0,0,0,0,0,0,0,0,0,0,0,0,0,0,0,0,0,0,0,0,0,0,0,0,0,0,0,0,0,0,0,0,0,0,0,0,0,0,0,0,0,0,0,0,0,0,0,0,0,0]","[0,0,0,0,0,0,0,0,0,0,0,0,0,0,0,0,0,0,0,0,0,0,0,0,0,0,0,0,0,0,0,0,0,0,0,0,0,0,0,0,0,0,0,0,0,0,0,0,0,0,0,0,0,0,0,0,0,0,0,0,0,0,0,0,0,0,0,0,0,0,0,0,0,0,0,0,0,0,0,0,0,0,0,0,0,0,0,0,0,0,0,0,0,0,0,0,0,0,0,0,0,0,0,0,0,0,0,0,0,0,0,0,0,0,0,0,0,0,0,0,0,0,0,0,0,0,0,0,0,0,0,0,0,0,0,0,0,0,0,0,0,0,0,0,0,0,0,0,0,0,0,0,0,0,0,0,0,0,0,0]","[0,0,0,0,0,0,0,0,0,0,0,0,0,0,0,0,0,0,0,0,0,0,0,0,0,0,0,0,0,0,0,0,0,0,0,0,0,0,0,0,0,0,0,0,0,0,0,0,0,0,0,0,0,0,0,0,0,0,0,0,0,0,0,0,0,0,0,0,0,0,0,0,0,0,0,0,0,0,0,0,0,0,0,0,0,0,0,0,0,0,0,0,0,0,0,0,0,0,0,0,0,0,0,0,0,0,0,0,0,0,0,0,0,0,0,0,0,0,0,0,0,0,0,0,0,0,0,0,0,0,0,0,0,0,0,0,0,0,0,0,0,0,0,0,0,0,0,0,0,0,0,0,0,0,0,0,0,0,0,0]","[0.0030000000000001137,0.023900000035759206,0.0461000000238414,0.06619999998807913,0.08800000000000097,0.11230000001192053,0.1326000000238423,0.15390000003576176,0.17790000003576267,0.20049999999999812,0.21990000003575716,0.24349999999999739,0.26610000002384027,0.286199999988078,0.31040000003576296,0.33310000002384044,0.3533000000119202,0.37719999998807907,0.3996000000238382,0.41969999998807594,0.4435000000000002,0.46640000003576176,0.48680000001191814,0.510699999988077,0.5331000000238362,0.553400000035758,0.5775000000000006,0.597999999999999,0.6196000000238371,0.6431999999880773,0.6659000000357622,0.6859000000357582,0.7098000000119171,0.723900000035762,0.7514000000357584,0.7729000000357615,0.7966999999880784,0.8166999999880744,0.8384000000357616,0.8621999999880785,0.8765000000000001,0.8984000000357639,0.9239000000357578,0.9481000000238424,0.9681999999880802,0.9898000000119183,1.0139000000357612,1.034100000023841,1.0558000000119208,1.0798000000119217,1.0999000000357597,1.1226000000238372,1.1453000000119218,1.1651999999880758,1.1871000000238396,1.210900000035764,1.2311999999880783,1.2528000000119164,1.2769000000357593,1.2994999999999948,1.320199999988077,1.3441000000238361,1.3669999999999973,1.3816000000238375,1.4016000000238407,1.4239000000357578,1.4536999999880749,1.4783000000119202,1.4986999999880766,1.5154000000357613,1.5349999999999966,1.5649000000357631,1.5854000000357615,1.6071000000238413,1.6316000000238375,1.6516999999880753,1.6734000000357625,1.697499999999998,1.7179000000357618,1.7396000000238416,1.7635000000000005,1.7788000000119197,1.8064999999999998,1.830199999988075,1.8509000000357574,1.8724000000357606,1.8969000000357639,1.9173000000119202,1.9386000000238397,1.9624999999999986,1.9828000000119204,2.004800000011919,2.0289999999999964,2.0434999999999945,2.0716000000238424,2.0876000000238406,2.115699999988074,2.1361000000238377,2.1601000000238386,2.183,2.2033000000119216,2.2274000000357574,2.2501999999880766,2.2704999999999984,2.2943000000119156,2.317,2.337400000035764,2.361400000035758,2.3819000000357633,2.4034000000357594,2.427499999999995,2.4503000000119215,2.47080000001192,2.4951000000238395,2.516400000035759,2.5383000000119154,2.5621999999880742,2.582900000035764,2.6044999999999945,2.6283000000119188,2.648800000011917,2.670499999999997,2.69460000002384,2.7149999999999963,2.7373000000119205,2.760699999988077,2.7754000000357593,2.797800000011918,2.8231000000238424,2.8391000000238407,2.8611999999880737,2.8831999999880793,2.9033000000119173,2.933499999999995,2.948300000011919,2.968300000011922,2.998300000011916,3.0188000000119217,3.040699999988078,3.0569000000357605,3.085000000000001,3.1064000000357623,3.1304000000357632,3.150600000023843,3.1723000000119157,3.1965000000000003,3.216800000011922,3.238600000023837,3.262400000035761,3.282600000023841,3.3044000000357627,3.3281999999880796,3.3484000000357597,3.370300000011916,3.3939999999999984,3.416699999988076,3.436900000035763,3.460800000011922,3.4834000000357577,3.5041999999880744]",return,10.1673,0,0,0,0,1,,,,,,,,,,,,,,,,,,,,,,,,,
,,A262731241,2023-04-24_13h36.17.968,GoFitts,2022.2.4,MacIntel,59.99520038,,,,,,,,,,,,,,return,2.0976,,,,,,,,,,,,,,,,,,,,,,,
,,A262731241,2023-04-24_13h36.17.968,GoFitts,2022.2.4,MacIntel,59.99520038,,,,,,,,,,,,,,,,return,2.0728,"[18.8426513671875,15.04168701171875]","[-195.62952014676114,41.58233816355186]",48,400,0,"[18.8426513671875,18.8426513671875,18.8426513671875,18.8426513671875,18.8426513671875,18.8426513671875,18.8426513671875,18.8426513671875,18.8426513671875,18.8426513671875,18.8426513671875,18.8426513671875,18.8426513671875,18.8426513671875,18.8426513671875,18.8426513671875,18.8426513671875,18.8426513671875,19.351318359375,21.6094970703125,19.8599853515625,-5.770751953125,-32.9132080078125,-78.697998046875,-150.6339111328125,-210.18505859375]","[15.04168701171875,15.04168701171875,15.04168701171875,15.04168701171875,15.04168701171875,15.04168701171875,15.04168701171875,15.04168701171875,15.04168701171875,15.04168701171875,15.04168701171875,15.04168701171875,15.04168701171875,15.04168701171875,15.04168701171875,15.04168701171875,15.04168701171875,15.04168701171875,15.80474853515625,19.0648193359375,22.19000244140625,28.42156982421875,30.33941650390625,30.33941650390625,30.33941650390625,30.33941650390625]","[0,0,0,0,0,0,0,0,0,0,0,0,0,0,0,0,0,0,0,0,0,0,0,0,0,0]","[0,0,0,0,0,0,0,0,0,0,0,0,0,0,0,0,0,0,0,0,0,0,0,0,0,0]","[0,0,0,0,0,0,0,0,0,0,0,0,0,0,0,0,0,0,0,0,0,0,0,0,0,0]","[0.003699999988079128,0.02819999998807532,0.03529999995231492,0.05649999999999977,0.06469999998807907,0.07789999997615382,0.09679999995231725,0.11399999999999721,0.12729999995231367,0.15009999996423318,0.16400000000000148,0.17789999997615524,0.19889999997615604,0.21289999997615894,0.22779999995231748,0.2469999999999999,0.2617999999523164,0.277599999964238,0.2956999999880807,0.3113999999761532,0.3281999999880796,0.35069999998808044,0.3617999999523178,0.37889999997615575,0.39709999996423306,0.41499999999999915]",,0,0,0,0,1,,,,
,,A262731241,2023-04-24_13h36.17.968,GoFitts,2022.2.4,MacIntel,59.99520038,,,,,,,,,,,,,,,,,,"[-195.62952014676114,41.58233816355186]","[200,0]",48,400,0,"[-210.18505859375,-258.4727783203125,-289.2396240234375,-302.4854736328125,-302.4854736328125,-303.60693359375,-303.0982666015625,-301.8265380859375,-301.8265380859375,-301.31787109375,-299.7918701171875,-288.5401611328125,-280.1700439453125,-262.04833984375,-251.3052978515625,-243.0654296875,-238.6839599609375,-229.80517578125,-212.8046875,-184.5408935546875,-142.6407470703125,-116.749755859375,-67.3406982421875,-21.555908203125,26.7318115234375,71.1348876953125,94.392822265625,104.014404296875,113.375732421875,117.8873291015625,123.624267578125,132.985595703125,139.9739990234375,142.6214599609375,145.2689208984375,148.5289306640625,156.7689208984375,168.03857421875,178.583251953125]","[30.33941650390625,30.33941650390625,30.33941650390625,30.33941650390625,30.33941650390625,30.33941650390625,30.33941650390625,29.32208251953125,29.32208251953125,29.32208251953125,29.83074951171875,31.46075439453125,34.69012451171875,38.9954833984375,40.90679931640625,40.90679931640625,40.90679931640625,40.90679931640625,40.90679931640625,40.90679931640625,40.90679931640625,40.90679931640625,40.90679931640625,38.8426513671875,31.644287109375,21.02435302734375,15.86639404296875,14.4166259765625,14.4166259765625,14.4166259765625,14.4166259765625,14.4166259765625,13.6690673828125,13.6690673828125,13.6690673828125,13.2952880859375,10.17486572265625,4.17767333984375,-2.54443359375]","[0,0,0,0,0,0,0,0,0,0,0,0,0,0,0,0,0,0,0,0,0,0,0,0,0,0,0,0,0,0,0,0,0,0,0,0,0,0,0]","[0,0,0,0,0,0,0,0,0,0,0,0,0,0,0,0,0,0,0,0,0,0,0,0,0,0,0,0,0,0,0,0,0,0,0,0,0,0,0]","[0,0,0,0,0,0,0,0,0,0,0,0,0,0,0,0,0,0,0,0,0,0,0,0,0,0,0,0,0,0,0,0,0,0,0,0,0,0,0]","[0.0003000000119186552,0.01680000001191928,0.03360000002383856,0.04999999999999716,0.061900000035763014,0.08019999998807492,0.09949999999999903,0.11390000003576262,0.13649999999999807,0.1460000000000008,0.16369999998807572,0.18180000001191843,0.19640000003575864,0.21360000002383828,0.22980000001192025,0.24669999998808123,0.2635000000000005,0.28069999998808015,0.29699999999999704,0.31330000001192104,0.3341000000238381,0.3464000000357643,0.3639000000357626,0.37880000001192116,0.39740000003575915,0.41449999999999676,0.4314999999999998,0.448199999988077,0.464500000000001,0.47919999998807583,0.49790000003576296,0.5159999999999982,0.5301999999880778,0.5478000000119181,0.5654000000357655,0.5794999999999959,0.5998000000119177,0.6146999999880762,0.6301000000238446]",,1,0,1,0,1,,,,
,,A262731241,2023-04-24_13h36.17.968,GoFitts,2022.2.4,MacIntel,59.99520038,,,,,,,,,,,,,,,,,,"[200,0]","[-195.62952014676114,-41.58233816355181]",48,400,0,"[178.583251953125,184.2161865234375,185.2335205078125,185.2335205078125,185.2335205078125,185.2335205078125,185.2335205078125,185.2335205078125,185.7421875,185.7421875,185.7421875,186.2509765625,186.2509765625,186.2509765625,186.2509765625,186.2509765625,186.2509765625,182.5023193359375,98.5718994140625,45.148193359375,-24.4149169921875,-87.7205810546875,-149.64453125,-182.914306640625]","[-2.54443359375,-5.86956787109375,-6.1239013671875,-6.1239013671875,-6.1239013671875,-6.1239013671875,-6.1239013671875,-6.1239013671875,-6.1239013671875,-6.1239013671875,-6.1239013671875,-6.1239013671875,-6.1239013671875,-6.1239013671875,-6.1239013671875,-6.1239013671875,-6.1239013671875,-6.1239013671875,-15.09429931640625,-15.09429931640625,-19.440673828125,-19.440673828125,-19.440673828125,-22.207763671875]","[0,0,0,0,0,0,0,0,0,0,0,0,0,0,0,0,0,0,0,0,0,0,0,0]","[0,0,0,0,0,0,0,0,0,0,0,0,0,0,0,0,0,0,0,0,0,0,0,0]","[0,0,0,0,0,0,0,0,0,0,0,0,0,0,0,0,0,0,0,0,0,0,0,0]","[0.0006999999880790142,0.018499999999995964,0.031500000000001194,0.0484000000357625,0.06869999998807685,0.08169999998807498,0.10290000003575983,0.11530000001192064,0.13119999998807685,0.1506999999880776,0.16490000003576455,0.18180000001191843,0.19999999999999574,0.21760000002384317,0.23380000001191803,0.25319999998807674,0.26660000002384265,0.2838000000119223,0.3229000000357587,0.3363000000119172,0.3511999999880757,0.3691000000238418,0.38400000000000034,0.40160000002384066]",,2,0,2,0,1,,,,
,,A262731241,2023-04-24_13h36.17.968,GoFitts,2022.2.4,MacIntel,59.99520038,,,,,,,,,,,,,,,,,,"[-195.62952014676114,-41.58233816355181]","[182.70909152852016,81.34732861516002]",48,400,0,"[-182.914306640625,-209.796630859375,-216.9151611328125,-222.0394287109375,-223.5655517578125,-224.07421875,-224.3284912109375,-224.5828857421875,-225.6002197265625,-226.10888671875,-226.8719482421875,-227.380615234375,-228.6522216796875,-228.9066162109375,-229.160888671875,-229.6695556640625,-229.6695556640625,-229.6695556640625,-229.6695556640625,-229.6695556640625,-225.9210205078125,-192.911376953125,-169.5234375,-120.1143798828125,-85.462890625,-22.2874755859375,16.118408203125,71.7850341796875,98.79736328125,113.2947998046875,117.213134765625,120.4732666015625,124.958740234375,130.6956787109375,145.589599609375,155.0810546875,163.321044921875,166.939453125,170.812255859375,177.075927734375,182.6827392578125,184.956298828125,185.4649658203125,186.22802734375,187.499755859375]","[-22.207763671875,-27.89306640625,-30.309814453125,-31.5311279296875,-31.78546142578125,-32.039794921875,-32.29412841796875,-32.80279541015625,-33.56585693359375,-33.8201904296875,-34.328857421875,-34.8375244140625,-36.8721923828125,-37.63525390625,-37.88958740234375,-38.39825439453125,-38.39825439453125,-38.39825439453125,-38.39825439453125,-38.39825439453125,-38.652587890625,-38.652587890625,-38.652587890625,-37.66436767578125,-27.46343994140625,-11.91497802734375,-1.54364013671875,10.616455078125,15.1185302734375,17.97412109375,21.1448974609375,23.02923583984375,25.645751953125,28.10791015625,32.918701171875,37.48883056640625,41.2025146484375,43.32574462890625,45.07525634765625,49.4925537109375,53.23040771484375,55.62347412109375,56.640869140625,57.1495361328125,57.91253662109375]","[0,0,0,0,0,0,0,0,0,0,0,0,0,0,0,0,0,0,0,0,0,0,0,0,0,0,0,0,0,0,0,0,0,0,0,0,0,0,0,0,0,0,0,0,0]","[0,0,0,0,0,0,0,0,0,0,0,0,0,0,0,0,0,0,0,0,0,0,0,0,0,0,0,0,0,0,0,0,0,0,0,0,0,0,0,0,0,0,0,0,0]","[0,0,0,0,0,0,0,0,0,0,0,0,0,0,0,0,0,0,0,0,0,0,0,0,0,0,0,0,0,0,0,0,0,0,0,0,0,0,0,0,0,0,0,0,0]","[0.0007000000476864443,0.020600000023840437,0.031100000023840835,0.04770000004768349,0.0671000000238422,0.08260000002384515,0.098100000023841,0.11430000001192298,0.13100000000000023,0.15280000001192207,0.16480000001192252,0.18140000003576517,0.20480000001192167,0.21520000004768747,0.23070000004768332,0.24810000002383958,0.26380000001191917,0.28060000002384555,0.30230000001191826,0.31400000000000006,0.3313000000119217,0.35300000000000153,0.36460000002384163,0.3831000000238447,0.3977000000476849,0.4171000000238436,0.4309999999999974,0.4504000000357635,0.4650000000000034,0.48100000000000165,0.4994999999999976,0.5172000000476871,0.5309999999999988,0.5478000000119181,0.5653000000119235,0.5811000000238451,0.5985000000000014,0.6148000000119183,0.6311000000238423,0.6488000000119243,0.6649999999999991,0.6808000000119208,0.6982000000476845,0.714600000023843,0.7307000000476833]",,3,0,3,0,1,,,,
,,A262731241,2023-04-24_13h36.17.968,GoFitts,2022.2.4,MacIntel,59.99520038,,,,,,,,,,,,,,,,,,"[182.70909152852016,81.34732861516002]","[-161.8033988749895,-117.5570504584946]",48,400,0,"[187.499755859375,190.1470947265625,194.0198974609375,197.9383544921875,198.7012939453125,198.7012939453125,198.7012939453125,198.7012939453125,198.7012939453125,198.7012939453125,198.7012939453125,198.7012939453125,198.7012939453125,198.447021484375,198.192626953125,195.4412841796875,177.6884765625,149.4327392578125,115.3056640625,85.790283203125,52.2572021484375,18.89306640625,-13.3646240234375,-41.498291015625,-54.7442626953125,-67.7919921875,-87.6715087890625,-110.929443359375,-130.432861328125,-142.9539794921875]","[57.91253662109375,59.67742919921875,62.0550537109375,64.97149658203125,65.48016357421875,65.48016357421875,65.48016357421875,65.48016357421875,65.48016357421875,65.48016357421875,65.48016357421875,65.48016357421875,65.98883056640625,66.2431640625,66.2431640625,65.24127197265625,53.88934326171875,35.99896240234375,15.70721435546875,0.9495849609375,-15.35211181640625,-35.9576416015625,-51.16412353515625,-62.15472412109375,-67.09716796875,-74.34588623046875,-85.1610107421875,-92.91363525390625,-98.4892578125,-104.6619873046875]","[0,0,0,0,0,0,0,0,0,0,0,0,0,0,0,0,0,0,0,0,0,0,0,0,0,0,0,0,0,0]","[0,0,0,0,0,0,0,0,0,0,0,0,0,0,0,0,0,0,0,0,0,0,0,0,0,0,0,0,0,0]","[0,0,0,0,0,0,0,0,0,0,0,0,0,0,0,0,0,0,0,0,0,0,0,0,0,0,0,0,0,0]","[0.0006999999880790142,0.017000000000003013,0.03300000000000125,0.05009999996423886,0.06700000000000017,0.08280000001192178,0.10039999997616178,0.11959999996424386,0.13289999997616064,0.15009999996424028,0.16750000000000398,0.18359999996424392,0.19980000001192622,0.222099999964243,0.23289999997616206,0.2510000000000048,0.26669999998808436,0.28300000000000125,0.30109999996424364,0.31930000001192127,0.33369999998808453,0.35089999997616417,0.3685000000000045,0.38469999998807936,0.40039999997615894,0.4171999999880853,0.4335000000000022,0.4496999999880842,0.4666999999880801,0.48339999997616445]",,4,0,4,0,1,,,,
,,A262731241,2023-04-24_13h36.17.968,GoFitts,2022.2.4,MacIntel,59.99520038,,,,,,,,,,,,,,,,,,"[-161.8033988749895,-117.5570504584946]","[133.82612127177165,148.62896509547886]",48,400,0,"[-142.9539794921875,-151.0233154296875,-154.283447265625,-158.15625,-163.8931884765625,-171.93798828125,-173.5679931640625,-176.364990234375,-178.1453857421875,-178.1453857421875,-178.1453857421875,-178.1453857421875,-178.1453857421875,-178.1453857421875,-178.1453857421875,-178.1453857421875,-176.260986328125,-163.3011474609375,-138.669189453125,-106.52734375,-34.2623291015625,-11.185546875,24.802734375,64.40185546875,77.7802734375,93.33251953125,104.40380859375,111.9189453125,123.516845703125,139.46875,145.9925537109375,158.271484375,164.00537109375,165.531494140625,167.0574951171875,169.1807861328125,170.402099609375,172.1165771484375,172.7447509765625,172.7447509765625,172.7447509765625,172.236083984375,171.4730224609375,170.7100830078125,170.201416015625,169.1839599609375,168.67529296875,167.912353515625,165.264892578125,163.126220703125,158.6407470703125,150.6610107421875]","[-104.6619873046875,-110.82000732421875,-113.33251953125,-116.08392333984375,-119.51312255859375,-125.68890380859375,-126.94512939453125,-129.48779296875,-131.01385498046875,-131.01385498046875,-131.01385498046875,-131.01385498046875,-131.01385498046875,-131.01385498046875,-131.01385498046875,-131.01385498046875,-130.64007568359375,-121.8538818359375,-105.44476318359375,-83.00921630859375,-32.50885009765625,-17.8236083984375,7.5941162109375,33.61407470703125,43.6165771484375,54.0946044921875,61.80487060546875,66.66107177734375,75.3594970703125,94.38641357421875,105.259521484375,119.80084228515625,126.25958251953125,128.2943115234375,130.5833740234375,134.4561767578125,139.5804443359375,145.31744384765625,148.5775146484375,150.61224365234375,152.1383056640625,152.64697265625,153.1556396484375,153.664306640625,153.664306640625,154.4273681640625,154.4273681640625,154.68170166015625,154.68170166015625,154.68170166015625,152.065185546875,147.140869140625]","[0,0,0,0,0,0,0,0,0,0,0,0,0,0,0,0,0,0,0,0,0,0,0,0,0,0,0,0,0,0,0,0,0,0,0,0,0,0,0,0,0,0,0,0,0,0,0,0,0,0,0,0]","[0,0,0,0,0,0,0,0,0,0,0,0,0,0,0,0,0,0,0,0,0,0,0,0,0,0,0,0,0,0,0,0,0,0,0,0,0,0,0,0,0,0,0,0,0,0,0,0,0,0,0,0]","[0,0,0,0,0,0,0,0,0,0,0,0,0,0,0,0,0,0,0,0,0,0,0,0,0,0,0,0,0,0,0,0,0,0,0,0,0,0,0,0,0,0,0,0,0,0,0,0,0,0,0,0]","[0.000399999976160359,0.016999999999995907,0.033699999988080265,0.04980000001192053,0.06639999997615575,0.08989999997615428,0.10019999998807805,0.11599999999999966,0.13910000002383782,0.14999999999999858,0.16610000002383885,0.1863999999761603,0.20019999998807947,0.2161999999880777,0.23610000002383913,0.24980000001192337,0.26669999998807725,0.2875000000000014,0.2996999999880785,0.31639999997615575,0.3441000000238432,0.35189999997615473,0.3663000000119183,0.384899999976156,0.40030000001191723,0.41619999998808055,0.43360000002384425,0.4514999999999958,0.4661000000238431,0.4864999999999995,0.49969999998808134,0.5161000000238403,0.5345000000000013,0.5496000000238439,0.5661999999880791,0.583899999976154,0.599499999999999,0.6161000000238417,0.6333999999761559,0.6508000000119196,0.6668999999761596,0.6846999999880765,0.7028000000119192,0.7166999999880801,0.733800000011918,0.7511000000238397,0.7661999999880749,0.7831000000238433,0.8076000000238395,0.8205000000000027,0.8336999999880774,0.8596000000238391]",,5,0,5,0,1,,,,
,,A262731241,2023-04-24_13h36.17.968,GoFitts,2022.2.4,MacIntel,59.99520038,,,,,,,,,,,,,,,,,,"[133.82612127177165,148.62896509547886]","[-100.00000000000009,-173.20508075688767]",48,400,0,"[150.6610107421875,148.418212890625,142.04248046875,138.273681640625,136.7476806640625,136.239013671875,133.591552734375,128.701416015625,127.0714111328125,124.5743408203125,123.5570068359375,123.5570068359375,123.5570068359375,123.5570068359375,123.5570068359375,123.5570068359375,123.5570068359375,122.7939453125,103.94384765625,69.721435546875,24.7823486328125,-17.46533203125,-52.646240234375,-71.0283203125,-88.1298828125,-99.4942626953125,-104.789306640625,-107.436767578125,-107.810546875,-109.4559326171875,-112.422119140625,-115.6514892578125,-116.3990478515625]","[147.140869140625,146.76708984375,144.95257568359375,144.324462890625,143.30712890625,142.7984619140625,141.287841796875,138.401611328125,137.399658203125,136.02398681640625,135.7696533203125,135.7696533203125,135.7696533203125,135.7696533203125,135.7696533203125,135.7696533203125,135.7696533203125,134.7523193359375,106.28289794921875,66.90631103515625,19.84027099609375,-21.3583984375,-55.5511474609375,-75.683837890625,-98.178466796875,-115.993896484375,-124.760498046875,-129.80096435546875,-130.92236328125,-133.56976318359375,-143.06121826171875,-153.80419921875,-159.5411376953125]","[0,0,0,0,0,0,0,0,0,0,0,0,0,0,0,0,0,0,0,0,0,0,0,0,0,0,0,0,0,0,0,0,0]","[0,0,0,0,0,0,0,0,0,0,0,0,0,0,0,0,0,0,0,0,0,0,0,0,0,0,0,0,0,0,0,0,0]","[0,0,0,0,0,0,0,0,0,0,0,0,0,0,0,0,0,0,0,0,0,0,0,0,0,0,0,0,0,0,0,0,0]","[0.00039999997615325356,0.008599999964232552,0.02309999996423784,0.04349999999999454,0.0648999999761557,0.07399999999999807,0.09009999996423801,0.11299999999999955,0.12399999999999523,0.14039999997615382,0.15680000001191985,0.17380000001191576,0.18969999998807907,0.21069999998807987,0.22330000001191763,0.2413999999761529,0.2563999999761535,0.27369999998807515,0.29419999998807356,0.30680000001191843,0.32330000001191905,0.3398999999761543,0.3568000000119156,0.37409999996423693,0.39109999996423284,0.4066999999880778,0.42449999999999477,0.45259999996423517,0.4603000000119195,0.47349999999999426,0.49059999996423187,0.5078000000119189,0.5235999999642331]",,6,0,6,0,1,,,,
,,A262731241,2023-04-24_13h36.17.968,GoFitts,2022.2.4,MacIntel,59.99520038,,,,,,,,,,,,,,,,,,"[-100.00000000000009,-173.20508075688767]","[61.80339887498949,190.2113032590307]",48,400,0,"[-116.3990478515625,-116.3990478515625,-116.3990478515625,-116.3990478515625,-116.0252685546875,-115.5166015625,-115.26220703125,-114.244873046875,-113.48193359375,-113.48193359375,-113.48193359375,-113.48193359375,-113.48193359375,-113.48193359375,-113.48193359375,-113.48193359375,-113.48193359375,-112.9732666015625,-101.507568359375,-88.2655029296875,-62.1898193359375,-31.529541015625,-18.515625,16.429443359375,41.994140625,47.5909423828125,52.1595458984375,53.0419921875,53.5506591796875,54.059326171875,55.3155517578125,55.5699462890625,57.095947265625,59.0997314453125,61.3848876953125,64.4825439453125]","[-159.5411376953125,-162.08453369140625,-165.34466552734375,-170.46893310546875,-174.34173583984375,-175.8677978515625,-176.8851318359375,-178.15679931640625,-179.1741943359375,-179.1741943359375,-179.1741943359375,-179.1741943359375,-179.1741943359375,-179.1741943359375,-179.1741943359375,-179.1741943359375,-179.1741943359375,-179.1741943359375,-163.01177978515625,-140.2828369140625,-91.14385986328125,-35.82965087890625,-17.826904296875,33.56707763671875,87.59454345703125,109.7310791015625,125.47998046875,129.248779296875,131.28350830078125,133.930908203125,137.69970703125,140.45111083984375,142.48583984375,145.7459716796875,155.2374267578125,168.35321044921875]","[0,0,0,0,0,0,0,0,0,0,0,0,0,0,0,0,0,0,0,0,0,0,0,0,0,0,0,0,0,0,0,0,0,0,0,0]","[0,0,0,0,0,0,0,0,0,0,0,0,0,0,0,0,0,0,0,0,0,0,0,0,0,0,0,0,0,0,0,0,0,0,0,0]","[0,0,0,0,0,0,0,0,0,0,0,0,0,0,0,0,0,0,0,0,0,0,0,0,0,0,0,0,0,0,0,0,0,0,0,0]","[0.00040000003576068366,0.016600000023842654,0.033400000035761934,0.04990000003576256,0.06730000001191883,0.08320000004768247,0.09899999999999665,0.11650000000000205,0.13349999999999795,0.1490000000000009,0.16599999999999682,0.1828000000119232,0.19940000003575875,0.21630000001191974,0.23260000002384373,0.2530000000000001,0.2653000000119192,0.2828000000119175,0.3031000000238393,0.3160000000000025,0.3323000000119194,0.35600000000000165,0.36590000003576506,0.38280000001191894,0.4059999999999988,0.4159999999999968,0.4322000000476862,0.45480000001192167,0.46640000003576176,0.48260000002384373,0.5051000000238375,0.5161000000238403,0.5323000000119222,0.550400000035765,0.5660000000000025,0.5829000000357638]",,7,0,7,0,1,,,,
,,A262731241,2023-04-24_13h36.17.968,GoFitts,2022.2.4,MacIntel,59.99520038,,,,,,,,,,,,,,,,,,"[61.80339887498949,190.2113032590307]","[-20.905692653530846,-198.90437907365467]",48,400,0,"[64.4825439453125,65.6690673828125,65.6690673828125,65.6690673828125,63.3612060546875,62.8525390625,62.8525390625,62.8525390625,62.8525390625,62.8525390625,62.8525390625,62.8525390625,62.8525390625,62.8525390625,62.5982666015625,61.0379638671875,51.9085693359375,38.7469482421875,12.619384765625,-8.8997802734375,-15.2152099609375,-27.205810546875,-35.9591064453125,-42.7110595703125,-44.49072265625,-44.864501953125,-44.864501953125,-48.2254638671875,-49.7857666015625,-50.37890625,-50.97216796875,-51.345947265625,-51.345947265625,-50.7177734375,-49.596435546875,-48.5946044921875,-47.5926513671875,-46.217041015625,-45.3345947265625,-43.9937744140625,-39.09521484375]","[168.35321044921875,176.46307373046875,178.601806640625,184.3387451171875,192.957275390625,193.72027587890625,194.99200439453125,195.50067138671875,195.50067138671875,196.00933837890625,196.00933837890625,196.00933837890625,196.00933837890625,196.00933837890625,196.263671875,192.0064697265625,158.86676025390625,126.49884033203125,76.1043701171875,20.69805908203125,8.11419677734375,-20.478759765625,-44.9881591796875,-66.99456787109375,-78.989013671875,-85.97747802734375,-97.971923828125,-113.5906982421875,-123.0821533203125,-131.1920166015625,-137.05908203125,-140.931884765625,-149.041748046875,-154.166015625,-158.6514892578125,-163.7757568359375,-167.6485595703125,-170.90863037109375,-174.06475830078125,-179.80169677734375,-194.29913330078125]","[0,0,0,0,0,0,0,0,0,0,0,0,0,0,0,0,0,0,0,0,0,0,0,0,0,0,0,0,0,0,0,0,0,0,0,0,0,0,0,0,0]","[0,0,0,0,0,0,0,0,0,0,0,0,0,0,0,0,0,0,0,0,0,0,0,0,0,0,0,0,0,0,0,0,0,0,0,0,0,0,0,0,0]","[0,0,0,0,0,0,0,0,0,0,0,0,0,0,0,0,0,0,0,0,0,0,0,0,0,0,0,0,0,0,0,0,0,0,0,0,0,0,0,0,0]","[0.00030000001192576065,0.022900000035768642,0.032600000023848,0.04890000003576489,0.0729000000357658,0.08280000001192178,0.09919999998808038,0.12090000003576762,0.13280000001192604,0.1495000000000033,0.1688000000119203,0.1833000000119256,0.19890000003576347,0.2178000000119269,0.23260000002384373,0.25,0.2698000000119265,0.28250000000000597,0.2996000000238439,0.3276000000238426,0.33560000002384527,0.3503000000119272,0.3661999999880834,0.3838000000119237,0.4001000000238477,0.416900000035767,0.43310000002384186,0.4496999999880842,0.4666000000238455,0.4869000000357673,0.5,0.516199999988082,0.5336000000238457,0.5496999999880785,0.5666000000238469,0.5833000000119242,0.5998000000119248,0.6163000000119254,0.6344000000357681,0.650500000000001,0.666100000023846]",,8,0,8,0,1,,,,
,,A262731241,2023-04-24_13h36.17.968,GoFitts,2022.2.4,MacIntel,59.99520038,,,,,,,,,,,,,,,,,,"[-20.905692653530846,-198.90437907365467]","[-20.905692653530668,198.90437907365467]",48,400,0,"[-39.09521484375,-34.6143798828125,-30.9022216796875,-28.8984375,-28.6441650390625,-28.135498046875,-28.135498046875,-28.135498046875,-28.135498046875,-28.135498046875,-28.135498046875,-28.135498046875,-28.135498046875,-28.135498046875,-25.1572265625,-15.9984130859375,-7.8017578125,-0.7169189453125,-1.7291259765625,-4.8758544921875,-15.281005859375,-18.2454833984375,-19.845703125,-19.845703125,-19.845703125,-19.845703125,-19.845703125]","[-194.29913330078125,-210.048095703125,-225.7969970703125,-228.802734375,-229.3114013671875,-229.5657958984375,-229.5657958984375,-229.5657958984375,-229.5657958984375,-229.5657958984375,-229.5657958984375,-229.5657958984375,-229.5657958984375,-229.3114013671875,-217.9296875,-173.65667724609375,-137.7537841796875,-93.22052001953125,-46.18426513671875,16.9912109375,69.03338623046875,104.80615234375,125.56109619140625,141.30999755859375,152.052978515625,170.17474365234375,185.9237060546875]","[0,0,0,0,0,0,0,0,0,0,0,0,0,0,0,0,0,0,0,0,0,0,0,0,0,0,0]","[0,0,0,0,0,0,0,0,0,0,0,0,0,0,0,0,0,0,0,0,0,0,0,0,0,0,0]","[0,0,0,0,0,0,0,0,0,0,0,0,0,0,0,0,0,0,0,0,0,0,0,0,0,0,0]","[0.000399999976160359,0.018899999976156323,0.034099999964240624,0.050899999976159904,0.06709999996423477,0.08299999999999841,0.10619999998807828,0.11709999996423903,0.13339999997615593,0.15289999997615666,0.1664999999999992,0.18269999998808117,0.20359999996423994,0.21709999996424045,0.2337999999523177,0.2563999999761606,0.2680999999642353,0.28369999998808026,0.30100000000000193,0.3176999999880792,0.3337999999523191,0.34949999999999903,0.3678999999761601,0.3837999999523163,0.4008999999761613,0.41969999998808305,0.4333999999761602]",,9,0,9,0,1,,,,
,,A262731241,2023-04-24_13h36.17.968,GoFitts,2022.2.4,MacIntel,59.99520038,,,,,,,,,,,,,,,,,,"[-20.905692653530668,198.90437907365467]","[61.80339887498945,-190.21130325903073]",48,400,0,"[-19.845703125,-19.845703125,-19.845703125,-19.845703125,-18.878662109375,-18.2506103515625,-17.9962158203125,-17.3681640625,-16.6051025390625,-16.8594970703125,-16.8594970703125,-16.8594970703125,-16.8594970703125,-16.8594970703125,-16.8594970703125,-17.3681640625,-18.131103515625,-18.6397705078125,-18.6397705078125,-18.6397705078125,-18.6397705078125,-18.6397705078125,-18.6397705078125,-12.324462890625,-3.7672119140625,4.3302001953125,9.9307861328125,13.55517578125,20.1942138671875,27.071533203125,32.010009765625,35.897705078125,41.4984130859375,45.385986328125,49.2086181640625,50.98828125,53.8665771484375,55.9095458984375,59.138916015625]","[185.9237060546875,196.6666259765625,208.66107177734375,220.655517578125,225.77984619140625,228.42724609375,229.444580078125,231.07464599609375,232.6007080078125,233.36370849609375,233.36370849609375,233.36370849609375,233.36370849609375,229.59490966796875,227.5601806640625,225.52545166015625,222.9820556640625,220.84332275390625,216.97052001953125,206.22760009765625,184.22119140625,162.21478271484375,141.45989990234375,108.3201904296875,75.05035400390625,41.91064453125,23.65875244140625,12.78564453125,-14.09661865234375,-37.3544921875,-58.10943603515625,-76.361328125,-94.61328125,-111.61370849609375,-124.7294921875,-131.84808349609375,-143.71240234375,-156.9583740234375,-168.95281982421875]","[0,0,0,0,0,0,0,0,0,0,0,0,0,0,0,0,0,0,0,0,0,0,0,0,0,0,0,0,0,0,0,0,0,0,0,0,0,0,0]","[0,0,0,0,0,0,0,0,0,0,0,0,0,0,0,0,0,0,0,0,0,0,0,0,0,0,0,0,0,0,0,0,0,0,0,0,0,0,0]","[0,0,0,0,0,0,0,0,0,0,0,0,0,0,0,0,0,0,0,0,0,0,0,0,0,0,0,0,0,0,0,0,0,0,0,0,0,0,0]","[0.0006000000238373104,0.01549999999999585,0.03399999999999892,0.04999999999999716,0.06570000004767707,0.08699999999999619,0.1004000000357621,0.11640000003576034,0.13299999999999557,0.14999999999999858,0.16620000004768087,0.18240000003576284,0.19899999999999807,0.21880000001191746,0.23390000003576006,0.24940000003576301,0.2716000000238381,0.28240000003575716,0.3001000000238392,0.31620000004767945,0.3334000000357591,0.3497000000476831,0.36599999999999966,0.3866000000238401,0.39930000001191956,0.41770000004768093,0.43470000004768394,0.4498000000119191,0.46860000002384083,0.482999999999997,0.49970000004768167,0.5168000000119193,0.5328000000119175,0.5498000000119205,0.5684000000357585,0.582499999999996,0.5993000000119153,0.6193000000119184,0.6341000000238353]",,10,0,10,0,1,,,,
,,A262731241,2023-04-24_13h36.17.968,GoFitts,2022.2.4,MacIntel,59.99520038,,,,,,,,,,,,,,,,,,"[61.80339887498945,-190.21130325903073]","[-99.99999999999996,173.20508075688775]",48,400,0,"[59.138916015625,60.3253173828125,60.3253173828125,61.2923583984375,63.44580078125,64.7864990234375,65.4146728515625,65.4146728515625,65.4146728515625,65.4146728515625,65.4146728515625,65.4146728515625,65.4146728515625,64.539306640625,53.7279052734375,39.6300048828125,27.368896484375,9.84228515625,-13.025634765625,-26.0145263671875,-29.8931884765625,-35.033935546875,-40.174560546875,-44.8056640625,-49.1336669921875,-51.4569091796875,-54.447265625,-56.212158203125,-60.8294677734375,-76.029052734375,-82.1578369140625,-85.9625244140625,-86.7255859375,-88.8487548828125,-91.63037109375,-100.7025146484375]","[-168.95281982421875,-177.1927490234375,-181.0655517578125,-186.698486328125,-194.9384765625,-200.6754150390625,-202.30548095703125,-202.30548095703125,-202.81414794921875,-202.81414794921875,-202.81414794921875,-202.81414794921875,-202.81414794921875,-188.929443359375,-150.65362548828125,-96.238525390625,-62.96875,-27.94476318359375,10.11968994140625,31.57989501953125,42.96160888671875,52.386474609375,63.7877197265625,71.7935791015625,77.59405517578125,81.851318359375,84.97650146484375,87.36956787109375,94.27197265625,116.17095947265625,123.74957275390625,128.15966796875,128.92266845703125,132.5411376953125,138.66253662109375,158.43231201171875]","[0,0,0,0,0,0,0,0,0,0,0,0,0,0,0,0,0,0,0,0,0,0,0,0,0,0,0,0,0,0,0,0,0,0,0,0]","[0,0,0,0,0,0,0,0,0,0,0,0,0,0,0,0,0,0,0,0,0,0,0,0,0,0,0,0,0,0,0,0,0,0,0,0]","[0,0,0,0,0,0,0,0,0,0,0,0,0,0,0,0,0,0,0,0,0,0,0,0,0,0,0,0,0,0,0,0,0,0,0,0]","[0.00040000003576068366,0.014499999999998181,0.03399999999999892,0.04869999998808083,0.0648000000119211,0.08340000003575909,0.09860000002384339,0.1144999999999996,0.13719999998807708,0.14930000001191956,0.16499999999999915,0.18710000002383964,0.1991999999880747,0.21460000002384305,0.23219999998807594,0.24919999998807896,0.2653000000119192,0.2819000000357619,0.2989000000357649,0.3149999999999977,0.33210000002384277,0.34890000003576205,0.36549999999999727,0.3885000000000005,0.3994000000357616,0.41499999999999915,0.4323000000119208,0.4491000000238401,0.4659000000357594,0.4889999999999972,0.49860000002384197,0.5151000000238426,0.5316999999880778,0.5494000000357602,0.5656999999880767,0.5889999999999986]",,11,0,11,0,1,,,,
,,A262731241,2023-04-24_13h36.17.968,GoFitts,2022.2.4,MacIntel,59.99520038,,,,,,,,,,,,,,,,,,"[-99.99999999999996,173.20508075688775]","[133.82612127177168,-148.6289650954788]",48,400,0,"[-100.7025146484375,-102.7454833984375,-107.161376953125,-112.87255859375,-116.3472900390625,-116.85595703125,-116.85595703125,-116.85595703125,-116.85595703125,-116.85595703125,-116.85595703125,-116.0928955078125,-107.7894287109375,-91.563232421875,-71.43310546875,-46.6912841796875,-27.9150390625,-4.19873046875,28.1187744140625,36.419921875,58.1331787109375,76.34521484375,95.0093994140625,109.2481689453125,120.319580078125,131.192626953125]","[158.43231201171875,164.4295654296875,175.1724853515625,189.669921875,197.2972412109375,198.06024169921875,198.3145751953125,198.3145751953125,198.3145751953125,198.3145751953125,198.3145751953125,197.551513671875,184.8988037109375,161.4818115234375,131.777099609375,95.6158447265625,67.352783203125,32.76641845703125,-17.1627197265625,-30.07568359375,-59.94915771484375,-83.64825439453125,-103.187744140625,-115.88909912109375,-123.599365234375,-138.0968017578125]","[0,0,0,0,0,0,0,0,0,0,0,0,0,0,0,0,0,0,0,0,0,0,0,0,0,0]","[0,0,0,0,0,0,0,0,0,0,0,0,0,0,0,0,0,0,0,0,0,0,0,0,0,0]","[0,0,0,0,0,0,0,0,0,0,0,0,0,0,0,0,0,0,0,0,0,0,0,0,0,0]","[0.00030000001192576065,0.008899999976158313,0.02530000001192434,0.04260000002384601,0.059600000023841915,0.07589999997615848,0.09869999998807799,0.10960000002384618,0.12589999997616275,0.1455000000000055,0.16010000002384572,0.17610000002384396,0.19400000000000261,0.20860000002384282,0.22619999998808282,0.24369999998808112,0.25950000000000273,0.2758999999761613,0.30100000000000193,0.30860000002384425,0.32569999998808186,0.3421999999880825,0.3596000000238462,0.37630000001192343,0.392000000000003,0.4095000000000013]",,12,0,12,0,1,,,,
,,A262731241,2023-04-24_13h36.17.968,GoFitts,2022.2.4,MacIntel,59.99520038,,,,,,,,,,,,,,,,,,"[133.82612127177168,-148.6289650954788]","[-161.80339887498945,117.55705045849464]",48,400,0,"[131.192626953125,142.065673828125,148.9208984375,151.67236328125,152.9285888671875,153.9459228515625,156.8623046875,158.6427001953125,159.1513671875,159.1513671875,159.1513671875,159.1513671875,159.1513671875,159.1513671875,158.6427001953125,149.9427490234375,135.06201171875,109.7196044921875,85.7904052734375,59.451904296875,10.3671875,-8.2099609375,-41.011474609375,-73.7593994140625,-79.756591796875,-82.404052734375,-84.693115234375,-87.086181640625,-90.34619140625,-94.2498779296875,-95.2672119140625,-97.302001953125,-98.57373046875,-100.0997314453125,-101.1170654296875,-103.2557373046875,-107.1285400390625,-115.8951416015625,-119.8980712890625,-136.04345703125,-142.078857421875]","[-138.0968017578125,-148.9698486328125,-156.17620849609375,-160.04901123046875,-162.187744140625,-163.45941162109375,-167.12347412109375,-169.6668701171875,-170.175537109375,-170.175537109375,-170.175537109375,-170.175537109375,-170.175537109375,-170.175537109375,-169.92120361328125,-162.31988525390625,-142.18719482421875,-109.39276123046875,-82.52825927734375,-53.35687255859375,0.8212890625,19.39849853515625,46.2708740234375,70.10870361328125,73.4697265625,75.489013671875,77.26934814453125,79.0343017578125,81.29241943359375,84.05926513671875,85.07666015625,86.093994140625,87.36566162109375,88.128662109375,88.128662109375,89.38494873046875,91.5081787109375,96.21002197265625,97.80517578125,105.6470947265625,109.17791748046875]","[0,0,0,0,0,0,0,0,0,0,0,0,0,0,0,0,0,0,0,0,0,0,0,0,0,0,0,0,0,0,0,0,0,0,0,0,0,0,0,0,0]","[0,0,0,0,0,0,0,0,0,0,0,0,0,0,0,0,0,0,0,0,0,0,0,0,0,0,0,0,0,0,0,0,0,0,0,0,0,0,0,0,0]","[0,0,0,0,0,0,0,0,0,0,0,0,0,0,0,0,0,0,0,0,0,0,0,0,0,0,0,0,0,0,0,0,0,0,0,0,0,0,0,0,0]","[0.00030000001192576065,0.016800000011926386,0.03289999997615922,0.05069999998808328,0.0660999999642371,0.08319999998808214,0.09939999997616411,0.11619999998808339,0.13289999997616064,0.1495000000000033,0.16619999998808055,0.1863000000119257,0.20050000000000523,0.2155999999642404,0.23509999996424114,0.2500999999642417,0.2656999999880796,0.28709999996424074,0.2995999999642436,0.3158000000119259,0.3410000000000011,0.3488999999761617,0.36600000000000676,0.38980000001192394,0.3990000000000009,0.4158000000119273,0.43299999999999983,0.45000000000000284,0.4666999999880801,0.4895999999642413,0.5000999999642417,0.5210999999642425,0.5398000000119225,0.5576999999880812,0.5666999999880815,0.5835000000000008,0.6046999999880853,0.61639999997616,0.6336999999880817,0.6495999999642379,0.6658000000119273]",,13,0,13,0,1,,,,
,,A262731241,2023-04-24_13h36.17.968,GoFitts,2022.2.4,MacIntel,59.99520038,,,,,,,,,,,,,,,,,,"[-161.80339887498945,117.55705045849464]","[182.7090915285202,-81.34732861516002]",48,400,0,"[-142.078857421875,-144.217529296875,-145.74365234375,-148.13671875,-151.9053955078125,-152.9228515625,-153.1771240234375,-153.1771240234375,-153.1771240234375,-153.1771240234375,-153.1771240234375,-153.1771240234375,-152.9228515625,-133.569091796875,-101.2216796875,-64.9461669921875,-14.3402099609375,8.9080810546875,37.5770263671875,69.4456787109375,79.94970703125,101.739013671875,126.6103515625,130.762939453125,137.1580810546875,144.6748046875,151.050537109375,154.3106689453125,155.582275390625,156.5997314453125,157.6170654296875,160.7730712890625,165.258544921875]","[109.17791748046875,110.43414306640625,111.70587158203125,113.09698486328125,115.37060546875,116.13360595703125,116.13360595703125,116.13360595703125,116.13360595703125,116.13360595703125,116.13360595703125,116.13360595703125,116.13360595703125,104.5709228515625,89.4036865234375,70.74261474609375,43.4154052734375,27.8970947265625,9.138916015625,-11.0306396484375,-19.78399658203125,-32.8387451171875,-47.74993896484375,-50.71600341796875,-55.17724609375,-60.38604736328125,-64.01513671875,-65.8995361328125,-66.66253662109375,-67.17120361328125,-68.18853759765625,-70.462158203125,-73.45245361328125]","[0,0,0,0,0,0,0,0,0,0,0,0,0,0,0,0,0,0,0,0,0,0,0,0,0,0,0,0,0,0,0,0,0]","[0,0,0,0,0,0,0,0,0,0,0,0,0,0,0,0,0,0,0,0,0,0,0,0,0,0,0,0,0,0,0,0,0]","[0,0,0,0,0,0,0,0,0,0,0,0,0,0,0,0,0,0,0,0,0,0,0,0,0,0,0,0,0,0,0,0,0]","[0.000399999976160359,0.01719999998807964,0.03409999996423352,0.04999999999999716,0.07630000001191917,0.08430000001192184,0.10069999998808044,0.11739999997615769,0.13380000001192371,0.14939999997615416,0.16909999996423863,0.18430000001192326,0.2003000000119215,0.2201999999880755,0.23349999999999937,0.24969999998808134,0.2674999999999983,0.28349999999999653,0.30009999996423886,0.323099999964235,0.33339999997615877,0.34959999996423363,0.37469999998808134,0.38349999999999795,0.40030000001191723,0.41789999997615723,0.4335999999642368,0.4508999999761585,0.4668000000119221,0.484399999976155,0.49989999997615797,0.51909999996424,0.5336999999880803]",,14,0,14,0,1,,,,
,,A262731241,2023-04-24_13h36.17.968,GoFitts,2022.2.4,MacIntel,59.99520038,,,,,,,,,,,,,,,,,,,,,,0,,,,,,,,,,,,,0,0,0,1
,,A262731241,2023-04-24_13h36.17.968,GoFitts,2022.2.4,MacIntel,59.99520038,,,,,,,,,,,,,,,,return,5.7738,"[119.0721435546875,-51.91778564453125]","[83.64132579485731,-92.89310318467426]",71.5,250,1,"[119.0721435546875,119.0721435546875,119.0721435546875,119.0721435546875,119.0721435546875,119.0721435546875,119.0721435546875,115.81201171875,113.060546875,113.060546875,111.2801513671875,104.52587890625,102.9998779296875,101.219482421875,99.94775390625,98.4217529296875,89.4683837890625,79.115478515625,78.09814453125,77.58935546875,77.58935546875,77.3350830078125,77.3350830078125,77.3350830078125,77.3350830078125,77.3350830078125]","[-51.91778564453125,-51.91778564453125,-51.91778564453125,-51.91778564453125,-51.91778564453125,-51.91778564453125,-51.91778564453125,-51.6634521484375,-51.91778564453125,-51.91778564453125,-52.93511962890625,-54.4107666015625,-54.66510009765625,-54.66510009765625,-54.15643310546875,-52.37603759765625,-43.4227294921875,-36.30242919921875,-36.30242919921875,-36.30242919921875,-36.30242919921875,-37.82843017578125,-39.9671630859375,-47.46435546875,-53.3314208984375,-61.4412841796875]","[0,0,0,0,0,0,0,0,0,0,0,0,0,0,0,0,0,0,0,0,0,0,0,0,0,0]","[0,0,0,0,0,0,0,0,0,0,0,0,0,0,0,0,0,0,0,0,0,0,0,0,0,0]","[0,0,0,0,0,0,0,0,0,0,0,0,0,0,0,0,0,0,0,0,0,0,0,0,0,0]","[0.0010000000000047748,0.016699999988077252,0.02969999998808248,0.045699999988073614,0.06459999996422994,0.08599999999999852,0.09569999998807077,0.11280000001191581,0.13009999996423005,0.14709999996424017,0.16289999997616178,0.18609999996424165,0.19589999997616303,0.21230000001192195,0.23239999997615257,0.24680000001191615,0.26389999997616087,0.28600000000000136,0.29639999997615973,0.31230000001191627,0.329399999976161,0.3465999999642406,0.36249999999999716,0.38400000000000034,0.3971999999880751,0.41339999997614996]",,0,0,0,0,1,,,,
,,A262731241,2023-04-24_13h36.17.968,GoFitts,2022.2.4,MacIntel,59.99520038,,,,,,,,,,,,,,,,,,"[83.64132579485731,-92.89310318467426]","[-101.12712429686842,73.47315653655916]",71.5,250,1,"[77.3350830078125,78.0826416015625,78.0826416015625,78.59130859375,78.59130859375,78.59130859375,78.59130859375,78.59130859375,78.59130859375,80.1173095703125,82.4063720703125,83.4237060546875,84.441162109375,84.9498291015625,84.9498291015625,84.9498291015625,84.9498291015625,84.9498291015625,84.186767578125,81.897705078125,76.09716796875,59.0635986328125,27.2662353515625,2.7371826171875,-18.0013427734375,-57.4957275390625,-82.643798828125]","[-61.4412841796875,-65.21002197265625,-66.48175048828125,-67.75341796875,-72.0308837890625,-76.646484375,-80.519287109375,-84.9007568359375,-85.91815185546875,-87.698486328125,-90.241943359375,-91.25927734375,-92.02227783203125,-92.276611328125,-92.276611328125,-92.276611328125,-92.276611328125,-92.276611328125,-92.02227783203125,-90.24188232421875,-84.815185546875,-61.3720703125,-21.6546630859375,8.77423095703125,31.48907470703125,65.910888671875,86.362548828125]","[0,0,0,0,0,0,0,0,0,0,0,0,0,0,0,0,0,0,0,0,0,0,0,0,0,0,0]","[0,0,0,0,0,0,0,0,0,0,0,0,0,0,0,0,0,0,0,0,0,0,0,0,0,0,0]","[0,0,0,0,0,0,0,0,0,0,0,0,0,0,0,0,0,0,0,0,0,0,0,0,0,0,0]","[0.00039999997615325356,0.021000000000000796,0.03360000002383856,0.04880000001190865,0.07239999997615598,0.08210000002384277,0.09949999999999193,0.12210000002383481,0.13299999999999557,0.14969999998807282,0.17199999999999704,0.1834999999999951,0.1986000000238306,0.22160000002384095,0.23310000002383902,0.24860000002384197,0.26849999999998886,0.28300000000000125,0.29939999997615985,0.32030000001191183,0.33339999997615166,0.3491999999880733,0.36839999997614825,0.3848000000119214,0.3990000000000009,0.41569999998807816,0.43360000002383003]",,1,0,1,0,1,,,,
,,A262731241,2023-04-24_13h36.17.968,GoFitts,2022.2.4,MacIntel,59.99520038,,,,,,,,,,,,,,,,,,"[-101.12712429686842,73.47315653655916]","[114.19318220532512,-50.84208038447502]",71.5,250,1,"[-82.643798828125,-95.6531982421875,-97.6878662109375,-98.9595947265625,-99.9769287109375,-100.7398681640625,-102.2659912109375,-103.2833251953125,-104.3006591796875,-104.3006591796875,-105.3179931640625,-106.843994140625,-107.845947265625,-109.0323486328125,-108.404296875,-107.6412353515625,-106.8782958984375,-106.115234375,-102.21630859375,-88.9703369140625,-57.0821533203125,-27.56689453125,-0.554443359375,20.9527587890625,37.5440673828125,47.3184814453125,64.669921875,76.6739501953125,86.7781982421875]","[86.362548828125,94.7218017578125,96.247802734375,97.77386474609375,99.0455322265625,100.31719970703125,102.09759521484375,102.3519287109375,102.860595703125,102.860595703125,102.860595703125,102.60626220703125,99.8548583984375,90.3634033203125,79.24188232421875,77.97021484375,77.20721435546875,76.69854736328125,75.34228515625,71.083251953125,63.079833984375,54.7786865234375,46.712646484375,34.64599609375,21.34283447265625,8.5811767578125,-14.19549560546875,-28.76275634765625,-40.404541015625]","[0,0,0,0,0,0,0,0,0,0,0,0,0,0,0,0,0,0,0,0,0,0,0,0,0,0,0,0,0]","[0,0,0,0,0,0,0,0,0,0,0,0,0,0,0,0,0,0,0,0,0,0,0,0,0,0,0,0,0]","[0,0,0,0,0,0,0,0,0,0,0,0,0,0,0,0,0,0,0,0,0,0,0,0,0,0,0,0,0]","[0.0003000000119186552,0.015200000047684625,0.03360000002385277,0.04840000003576961,0.06499999999999773,0.08270000004769429,0.09960000002384106,0.11610000002384879,0.13790000003577063,0.1482000000476944,0.16480000001192252,0.18730000001193048,0.19990000003576824,0.21480000001191968,0.23780000001193002,0.24960000002384675,0.2653000000119192,0.2820000000000107,0.299500000000009,0.3154000000357655,0.3323000000119265,0.3498000000119248,0.36520000004769315,0.38160000002385175,0.39970000004768735,0.4153000000119249,0.43900000000000716,0.44830000001192616,0.46520000004768747]",,2,0,2,0,1,,,,
,,A262731241,2023-04-24_13h36.17.968,GoFitts,2022.2.4,MacIntel,59.99520038,,,,,,,,,,,,,,,,,,"[114.19318220532512,-50.84208038447502]","[-122.26845009172571,25.988961352219913]",71.5,250,1,"[86.7781982421875,96.136474609375,101.3258056640625,102.851806640625,110.9422607421875,113.0809326171875,116.341064453125,118.1214599609375,118.630126953125,118.630126953125,118.630126953125,118.1214599609375,117.61279296875,116.0867919921875,115.578125,112.7811279296875,111.255126953125,109.72900390625,102.082275390625,85.518310546875,65.2625732421875,47.0107421875,20.258544921875,8.134033203125,-10.117919921875,-26.659912109375,-34.3050537109375,-47.551025390625,-67.054443359375,-86.557861328125,-107.1826171875]","[-40.404541015625,-49.7628173828125,-54.578369140625,-56.61309814453125,-63.95587158203125,-65.7208251953125,-68.23333740234375,-69.5050048828125,-69.75933837890625,-69.75933837890625,-69.75933837890625,-69.25067138671875,-68.996337890625,-67.72467041015625,-67.72467041015625,-64.92767333984375,-62.63861083984375,-61.62127685546875,-56.545654296875,-45.44451904296875,-33.56597900390625,-26.42779541015625,-20.91485595703125,-18.6524658203125,-14.67706298828125,-6.043701171875,-1.4962158203125,4.0394287109375,8.952880859375,13.82867431640625,19.16607666015625]","[0,0,0,0,0,0,0,0,0,0,0,0,0,0,0,0,0,0,0,0,0,0,0,0,0,0,0,0,0,0,0]","[0,0,0,0,0,0,0,0,0,0,0,0,0,0,0,0,0,0,0,0,0,0,0,0,0,0,0,0,0,0,0]","[0,0,0,0,0,0,0,0,0,0,0,0,0,0,0,0,0,0,0,0,0,0,0,0,0,0,0,0,0,0,0]","[0.0003000000119186552,0.01719999998807964,0.034899999976147456,0.05019999998808089,0.07319999998807702,0.08409999996423778,0.10009999996422891,0.11619999998806918,0.13349999999999795,0.14919999998807043,0.16689999997615246,0.18439999997615075,0.20009999996423744,0.22280000001191524,0.23380000001191092,0.24939999997614848,0.27319999998807987,0.2844999999999942,0.29949999999999477,0.3164999999999907,0.33430000001192184,0.3499999999999943,0.37309999996423926,0.3836999999880817,0.3996999999880728,0.42369999998807373,0.43369999998807884,0.4498000000119191,0.46819999998807305,0.48630000001192286,0.500800000011921]",,3,0,3,0,1,,,,
,,A262731241,2023-04-24_13h36.17.968,GoFitts,2022.2.4,MacIntel,59.99520038,,,,,,,,,,,,,,,,,,"[-122.26845009172571,25.988961352219913]","[125,0]",71.5,250,1,"[-107.1826171875,-109.0670166015625,-111.205810546875,-111.96875,-113.7491455078125,-114.7664794921875,-116.0382080078125,-117.3099365234375,-117.818603515625,-117.818603515625,-117.818603515625,-117.818603515625,-117.818603515625,-117.818603515625,-117.818603515625,-116.546875,-102.1795654296875,-76.418701171875,-43.14892578125,21.14794921875,40.91162109375,75.4329833984375,102.4453125]","[19.16607666015625,20.42236328125,20.9310302734375,21.69403076171875,22.96575927734375,23.728759765625,24.74609375,25.5091552734375,26.017822265625,26.017822265625,26.017822265625,26.017822265625,26.017822265625,26.017822265625,26.017822265625,25.76348876953125,24.44537353515625,23.5230712890625,15.88824462890625,0.790283203125,-0.19793701171875,-0.19793701171875,-0.19793701171875]","[0,0,0,0,0,0,0,0,0,0,0,0,0,0,0,0,0,0,0,0,0,0,0]","[0,0,0,0,0,0,0,0,0,0,0,0,0,0,0,0,0,0,0,0,0,0,0]","[0,0,0,0,0,0,0,0,0,0,0,0,0,0,0,0,0,0,0,0,0,0,0]","[0.0003999999761674644,0.015399999976168033,0.03230000001192934,0.04889999997615746,0.0660000000000025,0.08289999997616349,0.09850000000000136,0.11630000001193253,0.13339999997616303,0.14849999999999852,0.16949999999999932,0.1821999999880859,0.19880000001192855,0.21709999996424756,0.2318999999761644,0.2493000000119281,0.2675000000000125,0.2826999999880826,0.29869999998808794,0.3235000000000099,0.3323000000119265,0.3491999999880875,0.3661999999880834]",,4,0,4,0,1,,,,
,,A262731241,2023-04-24_13h36.17.968,GoFitts,2022.2.4,MacIntel,59.99520038,,,,,,,,,,,,,,,,,,"[125,0]","[-122.26845009172571,-25.98896135221988]",71.5,250,1,"[102.4453125,119.3155517578125,121.454345703125,121.454345703125,121.454345703125,121.454345703125,121.454345703125,121.454345703125,122.4716796875,122.9803466796875,123.2347412109375,123.489013671875,123.489013671875,123.489013671875,123.489013671875,123.489013671875,123.489013671875,122.9803466796875,112.3675537109375,101.4945068359375,83.2425537109375,57.61181640625,34.2237548828125,2.2054443359375,-49.0560302734375,-58.6776123046875,-69.420654296875,-83.7879638671875,-87.7908935546875,-89.4208984375,-89.9295654296875,-90.1839599609375,-91.81396484375,-95.0740966796875]","[-0.19793701171875,-0.19793701171875,-0.19793701171875,-0.19793701171875,-0.19793701171875,-0.19793701171875,-0.19793701171875,-0.19793701171875,-0.70660400390625,-0.70660400390625,-0.9609375,-1.21527099609375,-1.21527099609375,-1.21527099609375,-1.21527099609375,-1.21527099609375,-1.21527099609375,-1.21527099609375,-1.21527099609375,-3.38983154296875,-8.17791748046875,-14.74169921875,-19.369140625,-27.8531494140625,-39.4683837890625,-41.379638671875,-41.972900390625,-44.01580810546875,-44.8634033203125,-45.2371826171875,-45.2371826171875,-45.49151611328125,-45.3720703125,-46.11962890625]","[0,0,0,0,0,0,0,0,0,0,0,0,0,0,0,0,0,0,0,0,0,0,0,0,0,0,0,0,0,0,0,0,0,0]","[0,0,0,0,0,0,0,0,0,0,0,0,0,0,0,0,0,0,0,0,0,0,0,0,0,0,0,0,0,0,0,0,0,0]","[0,0,0,0,0,0,0,0,0,0,0,0,0,0,0,0,0,0,0,0,0,0,0,0,0,0,0,0,0,0,0,0,0,0]","[0.0006999999880861196,0.014299999952314124,0.03149999999999409,0.04819999998808555,0.06550000000000011,0.08050000000000068,0.10259999996424085,0.11549999999999727,0.13100000000000023,0.1506999999880776,0.16489999997615712,0.18069999998807873,0.20100000000000762,0.21569999998807532,0.23119999998807828,0.25159999996424176,0.26509999996423517,0.28189999997616155,0.3025999999642437,0.31479999995231367,0.3311999999880868,0.3487999999523197,0.3647999999523108,0.3813999999761535,0.42629999995232026,0.4350000000000023,0.44839999997616076,0.46769999998808487,0.48159999996423153,0.4977999999523206,0.5151999999880843,0.5313999999761592,0.5481999999880856,0.5648999999761628]",,5,0,5,0,1,,,,
,,A262731241,2023-04-24_13h36.17.968,GoFitts,2022.2.4,MacIntel,59.99520038,,,,,,,,,,,,,,,,,,"[-122.26845009172571,-25.98896135221988]","[114.19318220532512,50.84208038447502]",71.5,250,1,"[-95.0740966796875,-97.825439453125,-99.201171875,-99.7098388671875,-99.7098388671875,-99.7098388671875,-99.7098388671875,-99.9642333984375,-99.9642333984375,-99.7098388671875,-99.201171875,-99.201171875,-99.201171875,-99.201171875,-99.201171875,-99.201171875,-99.201171875,-99.201171875,-99.201171875,-96.6585693359375,-79.6580810546875,-47.6397705078125,-6.8609619140625,58.6873779296875,79.7025146484375,119.2298583984375]","[-46.11962890625,-46.74774169921875,-47.0020751953125,-47.25640869140625,-47.25640869140625,-47.25640869140625,-47.25640869140625,-46.49334716796875,-44.4586181640625,-43.4412841796875,-41.91522216796875,-39.267822265625,-38.25042724609375,-37.74176025390625,-37.74176025390625,-37.74176025390625,-37.74176025390625,-37.74176025390625,-37.74176025390625,-34.94476318359375,-27.33245849609375,-17.08624267578125,-5.15625,15.990478515625,23.00347900390625,32.88531494140625]","[0,0,0,0,0,0,0,0,0,0,0,0,0,0,0,0,0,0,0,0,0,0,0,0,0,0]","[0,0,0,0,0,0,0,0,0,0,0,0,0,0,0,0,0,0,0,0,0,0,0,0,0,0]","[0,0,0,0,0,0,0,0,0,0,0,0,0,0,0,0,0,0,0,0,0,0,0,0,0,0]","[0.0003000000119186552,0.01719999998807964,0.03289999997615212,0.04930000001192525,0.06569999998808385,0.083099999964233,0.1004999999999967,0.11609999996423426,0.1366999999880818,0.14999999999999147,0.16559999996422903,0.18809999996423699,0.1996999999880842,0.21599999999999397,0.23639999997615746,0.24980000001191627,0.2656999999880725,0.2849999999999966,0.29959999996422937,0.31589999997615337,0.3371999999880728,0.35030000001191297,0.36609999996423426,0.38939999997616326,0.40030000001192434,0.41569999998807816]",,6,0,6,0,1,,,,
,,A262731241,2023-04-24_13h36.17.968,GoFitts,2022.2.4,MacIntel,59.99520038,,,,,,,,,,,,,,,,,,"[114.19318220532512,50.84208038447502]","[-101.12712429686844,-73.47315653655913]",71.5,250,1,"[119.2298583984375,144.600341796875,145.7216796875,146.739013671875,147.5020751953125,148.0107421875,148.0107421875,148.0107421875,148.0107421875,148.0107421875,148.0107421875,148.0107421875,148.0107421875,148.0107421875,148.0107421875,148.0107421875,148.2650146484375,148.0107421875,140.5135498046875,123.51318359375,100.09619140625,72.425537109375,40.4072265625,10.891845703125,-17.07177734375,-38.0931396484375,-40.994140625,-45.4796142578125,-50.982421875,-56.8494873046875,-61.380615234375,-63.415283203125,-65.5540771484375,-72.4564208984375]","[32.88531494140625,38.39898681640625,38.77276611328125,39.027099609375,39.79010009765625,40.04443359375,40.04443359375,40.04443359375,40.04443359375,40.04443359375,40.04443359375,40.04443359375,40.04443359375,40.04443359375,40.04443359375,40.04443359375,40.29876708984375,40.5531005859375,39.95989990234375,32.1845703125,17.80303955078125,3.04541015625,-8.2421875,-20.16485595703125,-36.72100830078125,-49.04376220703125,-51.57098388671875,-54.1875,-58.19512939453125,-61.31561279296875,-65.09906005859375,-66.6251220703125,-67.76190185546875,-72.37921142578125]","[0,0,0,0,0,0,0,0,0,0,0,0,0,0,0,0,0,0,0,0,0,0,0,0,0,0,0,0,0,0,0,0,0,0]","[0,0,0,0,0,0,0,0,0,0,0,0,0,0,0,0,0,0,0,0,0,0,0,0,0,0,0,0,0,0,0,0,0,0]","[0,0,0,0,0,0,0,0,0,0,0,0,0,0,0,0,0,0,0,0,0,0,0,0,0,0,0,0,0,0,0,0,0,0]","[0.0003000000119186552,0.025099999964240283,0.034000000000006025,0.04959999996424358,0.06939999997615587,0.08459999996424017,0.0993000000119224,0.12080000001192559,0.13309999996424438,0.15030000001192434,0.16839999997615962,0.1839999999999975,0.20000000000000284,0.21819999998808726,0.23319999998808782,0.2495999999642322,0.2674999999999983,0.284599999964243,0.3008000000119182,0.32080000001192843,0.3340000000000032,0.34959999996424074,0.3675000000000068,0.384300000011919,0.40039999997615894,0.42439999997615985,0.43419999998808123,0.4503000000119215,0.4730999999642336,0.48409999996424347,0.500800000011921,0.516899999976161,0.5335999999642382,0.5505999999642341]",,7,0,7,0,1,,,,
,,A262731241,2023-04-24_13h36.17.968,GoFitts,2022.2.4,MacIntel,59.99520038,,,,,,,,,,,,,,,,,,"[-101.12712429686844,-73.47315653655913]","[83.64132579485728,92.89310318467427]",71.5,250,1,"[-72.4564208984375,-85.504150390625,-98.0252685546875,-104.446533203125,-104.700927734375,-104.700927734375,-104.700927734375,-104.700927734375,-104.700927734375,-104.700927734375,-104.700927734375,-104.446533203125,-103.68359375,-101.6488037109375,-97.13720703125,-81.2982177734375,-41.274169921875,-14.3778076171875,20.4478759765625,43.8648681640625,60.807373046875,72.382568359375,75.150390625,76.526123046875]","[-72.37921142578125,-80.35272216796875,-87.338134765625,-91.33050537109375,-91.8392333984375,-91.8392333984375,-91.8392333984375,-91.8392333984375,-91.8392333984375,-91.8392333984375,-91.8392333984375,-92.09356689453125,-91.8392333984375,-90.8218994140625,-87.8704833984375,-76.7694091796875,-49.52447509765625,-30.5814208984375,-6.721435546875,9.5047607421875,24.696533203125,43.696044921875,53.317626953125,59.56329345703125]","[0,0,0,0,0,0,0,0,0,0,0,0,0,0,0,0,0,0,0,0,0,0,0,0]","[0,0,0,0,0,0,0,0,0,0,0,0,0,0,0,0,0,0,0,0,0,0,0,0]","[0,0,0,0,0,0,0,0,0,0,0,0,0,0,0,0,0,0,0,0,0,0,0,0]","[0.0003999999761674644,0.016399999976158597,0.03309999996423585,0.05009999996424597,0.0660000000000025,0.08409999996423778,0.0987999999523197,0.11650000000000205,0.1326999999880769,0.1490999999642355,0.16949999999999932,0.1828999999761578,0.19979999995231879,0.22050000000000125,0.23329999995232242,0.2493999999761627,0.27300000000001035,0.28239999997616394,0.2992999999523249,0.3155000000000001,0.3333999999761659,0.3500000000000085,0.3657999999523156,0.3830999999642444]",,8,0,8,0,1,,,,
,,A262731241,2023-04-24_13h36.17.968,GoFitts,2022.2.4,MacIntel,59.99520038,,,,,,,,,,,,,,,,,,"[83.64132579485728,92.89310318467427]","[-62.50000000000006,-108.2531754730548]",71.5,250,1,"[76.526123046875,77.1541748046875,77.1541748046875,77.1541748046875,78.2755126953125,78.6492919921875,78.9036865234375,79.157958984375,79.412353515625,79.412353515625,79.412353515625,79.412353515625,79.412353515625,79.412353515625,79.412353515625,79.412353515625,79.157958984375,68.93994140625,55.5748291015625,34.8441162109375,7.3773193359375,-2.5335693359375,-20.291015625,-35.8643798828125,-41.0050048828125,-44.12548828125,-48.0787353515625,-48.8262939453125,-50.979736328125]","[59.56329345703125,63.43603515625,66.6961669921875,71.181640625,75.6671142578125,78.92718505859375,81.67864990234375,82.69598388671875,84.2220458984375,85.2393798828125,86.86944580078125,87.37811279296875,87.37811279296875,87.37811279296875,87.37811279296875,87.37811279296875,87.6324462890625,76.601806640625,60.5166015625,34.1787109375,-1.48486328125,-11.39569091796875,-31.800048828125,-51.0855712890625,-58.8624267578125,-64.72955322265625,-70.8712158203125,-74.23529052734375,-82.47528076171875]","[0,0,0,0,0,0,0,0,0,0,0,0,0,0,0,0,0,0,0,0,0,0,0,0,0,0,0,0,0]","[0,0,0,0,0,0,0,0,0,0,0,0,0,0,0,0,0,0,0,0,0,0,0,0,0,0,0,0,0]","[0,0,0,0,0,0,0,0,0,0,0,0,0,0,0,0,0,0,0,0,0,0,0,0,0,0,0,0,0]","[0.0004000000357677891,0.016400000035773132,0.03390000003577143,0.050200000047695426,0.06610000002385163,0.08260000002384515,0.10010000002384345,0.11570000004769554,0.13280000001192604,0.15050000000000807,0.16660000002384834,0.18780000001193287,0.19990000003576824,0.21650000000001057,0.23720000004769304,0.2499000000357654,0.26550000000000296,0.2885000000000133,0.30000000000001137,0.3160000000000025,0.33900000000001285,0.3491000000238529,0.36590000003576506,0.38860000002383543,0.3999000000357782,0.4165000000000063,0.4388000000119163,0.44949999999999335,0.4660000000000011]",,9,0,9,0,1,,,,
,,A262731241,2023-04-24_13h36.17.968,GoFitts,2022.2.4,MacIntel,59.99520038,,,,,,,,,,,,,,,,,,"[-62.50000000000006,-108.2531754730548]","[38.62712429686843,118.88206453689419]",71.5,250,1,"[-50.979736328125,-55.3955078125,-56.713623046875,-58.5281982421875,-59.9039306640625,-60.41259765625,-60.41259765625,-60.9212646484375,-60.9212646484375,-60.9212646484375,-60.9212646484375,-60.9212646484375,-60.9212646484375,-60.9212646484375,-59.530029296875,-55.6376953125,-45.489501953125,-37.9249267578125,-22.0621337890625,-7.304443359375,3.4354248046875,12.1337890625,17.4061279296875,21.4920654296875,25.4462890625,27.38037109375,28.501708984375,30.655029296875,31.6220703125]","[-82.47528076171875,-99.2154541015625,-105.212646484375,-111.58843994140625,-114.8485107421875,-115.86590576171875,-117.4959716796875,-119.53070068359375,-119.53070068359375,-119.53070068359375,-119.53070068359375,-119.53070068359375,-119.53070068359375,-119.7850341796875,-117.3919677734375,-109.7646484375,-93.09259033203125,-78.0888671875,-49.203369140625,-13.2315673828125,6.64801025390625,20.42059326171875,31.690185546875,44.93609619140625,60.554931640625,68.66473388671875,72.02886962890625,80.268798828125,88.5087890625]","[0,0,0,0,0,0,0,0,0,0,0,0,0,0,0,0,0,0,0,0,0,0,0,0,0,0,0,0,0]","[0,0,0,0,0,0,0,0,0,0,0,0,0,0,0,0,0,0,0,0,0,0,0,0,0,0,0,0,0]","[0,0,0,0,0,0,0,0,0,0,0,0,0,0,0,0,0,0,0,0,0,0,0,0,0,0,0,0,0]","[0.0004000000357677891,0.025199999988075206,0.03350000000000364,0.04980000001194185,0.07400000000001228,0.08290000003577802,0.09919999998808748,0.12250000000000227,0.13340000003577757,0.14919999998809885,0.16960000002384845,0.18350000000000932,0.19950000000000045,0.21750000000000114,0.2336999999880902,0.24950000000001182,0.2664000000357589,0.2833000000119341,0.29980000001194185,0.3170000000000073,0.33330000001191706,0.34969999998807566,0.3668000000119207,0.3836999999880959,0.40049999999999386,0.4235000000000184,0.4334000000357605,0.44950000000000045,0.4671000000238621]",,10,0,10,0,1,,,,
,,A262731241,2023-04-24_13h36.17.968,GoFitts,2022.2.4,MacIntel,59.99520038,,,,,,,,,,,,,,,,,,"[38.62712429686843,118.88206453689419]","[-13.066057908456779,-124.31523692103416]",71.5,250,1,"[31.6220703125,31.6220703125,31.6220703125,31.6220703125,31.6220703125,31.6220703125,31.6220703125,31.6220703125,31.6220703125,31.6220703125,31.6220703125,31.6220703125,31.6220703125,31.6220703125,30.1812744140625,23.0203857421875,14.0789794921875,1.4481201171875,-8.930419921875,-14.9951171875,-19.8709716796875,-23.6707763671875,-25.6048583984375,-25.6048583984375,-25.6048583984375]","[88.5087890625,94.2457275390625,96.9971923828125,98.0145263671875,98.523193359375,99.794921875,100.812255859375,102.33831787109375,104.373046875,104.8817138671875,105.13604736328125,105.13604736328125,105.13604736328125,105.13604736328125,99.88165283203125,85.38421630859375,58.37188720703125,33.2042236328125,3.8189697265625,-19.43896484375,-38.9423828125,-59.567138671875,-67.80712890625,-77.298583984375,-97.793212890625]","[0,0,0,0,0,0,0,0,0,0,0,0,0,0,0,0,0,0,0,0,0,0,0,0,0]","[0,0,0,0,0,0,0,0,0,0,0,0,0,0,0,0,0,0,0,0,0,0,0,0,0]","[0,0,0,0,0,0,0,0,0,0,0,0,0,0,0,0,0,0,0,0,0,0,0,0,0]","[0.0003999999761390427,0.016299999952309463,0.03259999996421925,0.04909999996422698,0.06609999996422289,0.08289999997614927,0.09889999997614041,0.11699999999999022,0.1327999999523115,0.1495999999642379,0.16619999998806634,0.18279999995229446,0.20959999996424017,0.21869999998807543,0.2330000000000041,0.24939999997613427,0.26609999996423994,0.28249999999999886,0.29949999999999477,0.316199999988072,0.33219999998806315,0.3494999999999777,0.3663999999761529,0.38299999999998136,0.4053999999761402]",,11,0,11,0,1,,,,
,,A262731241,2023-04-24_13h36.17.968,GoFitts,2022.2.4,MacIntel,59.99520038,,,,,,,,,,,,,,,,,,"[-13.066057908456779,-124.31523692103416]","[-13.066057908456667,124.31523692103417]",71.5,250,1,"[-25.6048583984375,-24.8800048828125,-23.1881103515625,-21.8472900390625,-21.8472900390625,-21.8472900390625,-21.21923828125,-20.96484375,-20.96484375,-20.96484375,-20.96484375,-20.96484375,-20.96484375,-20.96484375,-18.921875,-15.078125,-12.358154296875,-8.809814453125,-8.809814453125,-8.809814453125,-7.850830078125,-6.53271484375,-6.53271484375,-5.9046630859375,-5.9046630859375,-4.9376220703125,-4.5638427734375,-4.5638427734375,-4.5638427734375,-4.5638427734375,-4.5638427734375]","[-97.793212890625,-103.79046630859375,-113.28192138671875,-123.76458740234375,-126.00732421875,-136.62017822265625,-144.1173095703125,-145.64337158203125,-146.66070556640625,-146.66070556640625,-146.66070556640625,-146.66070556640625,-146.66070556640625,-146.4063720703125,-138.77911376953125,-121.7786865234375,-94.766357421875,-69.00543212890625,-34.6142578125,-8.7232666015625,25.79803466796875,56.30462646484375,62.17169189453125,64.923095703125,70.04742431640625,75.78436279296875,80.26983642578125,83.021240234375,85.772705078125,89.54144287109375,95.787109375]","[0,0,0,0,0,0,0,0,0,0,0,0,0,0,0,0,0,0,0,0,0,0,0,0,0,0,0,0,0,0,0]","[0,0,0,0,0,0,0,0,0,0,0,0,0,0,0,0,0,0,0,0,0,0,0,0,0,0,0,0,0,0,0]","[0,0,0,0,0,0,0,0,0,0,0,0,0,0,0,0,0,0,0,0,0,0,0,0,0,0,0,0,0,0,0]","[0.0003000000119186552,0.010100000023840039,0.026699999988068157,0.051100000023836856,0.060000000000002274,0.07749999999998636,0.10060000002383163,0.11040000003575301,0.12660000002384209,0.14349999999998886,0.1599999999999966,0.1764999999999759,0.19669999998805565,0.21060000002381685,0.22680000001190592,0.2448000000119066,0.260699999988077,0.27710000002383595,0.29640000003576006,0.3100000000000023,0.32680000001190024,0.35249999999999204,0.3626999999880809,0.37699999999998113,0.39390000003575665,0.41090000003575256,0.4264000000357555,0.44430000001190706,0.4609999999999843,0.4773000000119225,0.5001999999880695]",,12,0,12,0,1,,,,
,,A262731241,2023-04-24_13h36.17.968,GoFitts,2022.2.4,MacIntel,59.99520038,,,,,,,,,,,,,,,,,,"[-13.066057908456667,124.31523692103417]","[38.6271242968684,-118.8820645368942]",71.5,250,1,"[-4.5638427734375,-4.5638427734375,-5.6851806640625,-6.1939697265625,-6.1939697265625,-6.1939697265625,-6.1939697265625,-6.1939697265625,-6.1939697265625,-6.1939697265625,-6.1939697265625,-6.1939697265625,-6.1939697265625,-6.4482421875,-6.4482421875,-7.9857177734375,-8.79833984375,-9.5233154296875,-8.7105712890625,-1.5723876953125,2.1396484375,3.7347412109375,5.88818359375,11.8853759765625,16.783935546875,20.9365234375,21.9034423828125,22.9053955078125,24.4005126953125,25.5218505859375,26.6431884765625]","[95.787109375,102.90570068359375,106.77850341796875,109.68023681640625,109.68023681640625,109.68023681640625,109.68023681640625,109.68023681640625,109.9345703125,109.9345703125,109.9345703125,109.9345703125,109.9345703125,109.4259033203125,98.6829833984375,80.4310302734375,59.6761474609375,45.1787109375,28.17828369140625,5.05047607421875,-10.69842529296875,-15.82275390625,-24.06268310546875,-35.332275390625,-49.8297119140625,-64.06689453125,-69.9339599609375,-73.8067626953125,-80.66510009765625,-84.02923583984375,-89.02337646484375]","[0,0,0,0,0,0,0,0,0,0,0,0,0,0,0,0,0,0,0,0,0,0,0,0,0,0,0,0,0,0,0]","[0,0,0,0,0,0,0,0,0,0,0,0,0,0,0,0,0,0,0,0,0,0,0,0,0,0,0,0,0,0,0]","[0,0,0,0,0,0,0,0,0,0,0,0,0,0,0,0,0,0,0,0,0,0,0,0,0,0,0,0,0,0,0]","[0.0003000000119186552,0.009600000023851862,0.02600000000001046,0.0508000000119182,0.06010000002385141,0.07630000001191206,0.09469999998808021,0.11000000000001364,0.1401999999880843,0.17060000002385323,0.19180000001190933,0.19930000001193093,0.21000000000000796,0.22730000001192252,0.242999999999995,0.25969999998807225,0.2769999999999868,0.29460000002384845,0.31030000001192093,0.3271999999880677,0.34780000001191524,0.3603000000119323,0.37649999999999295,0.3953000000119289,0.4105000000000132,0.4329999999999927,0.44410000002383754,0.45980000001191,0.48140000003576233,0.4935000000000116,0.5131999999880748]",,13,0,13,0,1,,,,
,,A262731241,2023-04-24_13h36.17.968,GoFitts,2022.2.4,MacIntel,59.99520038,,,,,,,,,,,,,,,,,,"[38.6271242968684,-118.8820645368942]","[-62.49999999999997,108.25317547305484]",71.5,250,1,"[26.6431884765625,26.8974609375,27.4061279296875,27.4061279296875,27.4061279296875,27.4061279296875,27.4061279296875,27.4061279296875,27.4061279296875,27.4061279296875,27.4061279296875,26.8974609375,25.2056884765625,-3.4437255859375,-22.6514892578125,-32.9046630859375,-40.328857421875,-50.103271484375]","[-89.02337646484375,-91.05810546875,-92.58416748046875,-93.60150146484375,-94.618896484375,-98.17962646484375,-100.318359375,-101.33575439453125,-101.33575439453125,-101.33575439453125,-101.33575439453125,-101.0814208984375,-92.332763671875,2.34063720703125,32.96771240234375,47.534912109375,62.55902099609375,76.0455322265625]","[0,0,0,0,0,0,0,0,0,0,0,0,0,0,0,0,0,0]","[0,0,0,0,0,0,0,0,0,0,0,0,0,0,0,0,0,0]","[0,0,0,0,0,0,0,0,0,0,0,0,0,0,0,0,0,0]","[0.0003999999761674644,0.013300000011923885,0.030000000000001137,0.046399999976159734,0.06269999998809794,0.095100000023848,0.10800000000000409,0.1185000000000116,0.12930000001193775,0.15149999999999864,0.16289999997616178,0.17969999998808817,0.20160000002385914,0.25180000001194003,0.2703999999761777,0.28300000000001546,0.29650000000000887,0.31310000002386573]",,14,0,14,0,1,,,,
,,A262731241,2023-04-24_13h36.17.968,GoFitts,2022.2.4,MacIntel,59.99520038,,,,,,,,,,,,,,,,,,,,,,1,,,,,,,,,,,,,1,0,0,1
,,A262731241,2023-04-24_13h36.17.968,GoFitts,2022.2.4,MacIntel,59.99520038,,,,,,,,,,,,,,,,return,2.0761,"[-22.6334228515625,-10.316162109375]","[-283.15594803123156,205.72483830236564]",20,700,2,"[-22.6334228515625,-22.6334228515625,-22.6334228515625,-22.6334228515625,-22.6334228515625,-22.6334228515625,-22.6334228515625,-22.6334228515625,-22.6334228515625,-22.6334228515625,-22.6334228515625,-22.6334228515625,-22.6334228515625,-22.6334228515625,-22.6334228515625,-22.6334228515625,-21.1383056640625,-21.1383056640625,-21.1383056640625,-20.629638671875,-20.629638671875,-20.629638671875,-20.629638671875,-21.1383056640625,-24.1605224609375,-43.666259765625,-75.8865966796875,-110.4542236328125,-138.7100830078125,-160.922607421875,-178.67529296875,-186.0003662109375,-189.260498046875,-193.1331787109375,-204.99755859375,-214.489013671875,-220.139892578125,-233.62646484375,-250.9427490234375,-277.2027587890625,-293.4783935546875,-298.987060546875,-299.4957275390625,-300.2587890625,-300.2587890625,-298.135498046875,-297.387939453125,-296.7598876953125,-295.7425537109375,-295.4881591796875,-295.4881591796875,-295.23388671875,-293.962158203125,-290.08935546875]","[-10.316162109375,-10.316162109375,-10.316162109375,-10.316162109375,-10.316162109375,-10.316162109375,-10.316162109375,-10.316162109375,-10.316162109375,-10.316162109375,-10.316162109375,-10.316162109375,-10.316162109375,-10.316162109375,-10.316162109375,-10.316162109375,-5.8306884765625,-3.69195556640625,-3.69195556640625,-2.928955078125,-1.91156005859375,-0.639892578125,0.88616943359375,2.66656494140625,10.07763671875,25.77935791015625,56.9635009765625,79.71295166015625,98.5257568359375,113.64154052734375,124.993408203125,132.0640869140625,133.69415283203125,135.443603515625,138.91510009765625,141.88116455078125,145.43145751953125,155.93072509765625,170.1092529296875,187.615966796875,195.30352783203125,197.89007568359375,198.39874267578125,199.1617431640625,200.79180908203125,206.29461669921875,209.04608154296875,210.67608642578125,212.2021484375,212.45648193359375,212.45648193359375,212.7108154296875,212.2021484375,209.82452392578125]","[0,0,0,0,0,0,0,0,0,0,0,0,0,0,0,0,0,0,0,0,0,0,0,0,0,0,0,0,0,0,0,0,0,0,0,0,0,0,0,0,0,0,0,0,0,0,0,0,0,0,0,0,0,0]","[0,0,0,0,0,0,0,0,0,0,0,0,0,0,0,0,0,0,0,0,0,0,0,0,0,0,0,0,0,0,0,0,0,0,0,0,0,0,0,0,0,0,0,0,0,0,0,0,0,0,0,0,0,0]","[0,0,0,0,0,0,0,0,0,0,0,0,0,0,0,0,0,0,0,0,0,0,0,0,0,0,0,0,0,0,0,0,0,0,0,0,0,0,0,0,0,0,0,0,0,0,0,0,0,0,0,0,0,0]","[0.0011999999880742962,0.013099999964254039,0.030799999952307644,0.0455999999642529,0.06559999996423471,0.07900000000000773,0.09559999996423585,0.1122999999523131,0.12899999999999068,0.1448999999761611,0.16249999999999432,0.17799999999999727,0.198799999952314,0.21179999995231924,0.22800000000000864,0.24829999995230878,0.26279999995230696,0.2782999999523099,0.2950000000000159,0.31219999998808134,0.32800000000000296,0.34550000000001546,0.3626999999880809,0.3780000000000143,0.3958999999761659,0.41200000000000614,0.4280999999642461,0.44559999996423016,0.4631999999880918,0.478099999964229,0.4952999999523229,0.5113999999761631,0.5289999999999964,0.5457999999523224,0.5613999999761745,0.5788999999761586,0.5953999999761663,0.6113999999761575,0.6287999999523208,0.6466999999880727,0.6614999999999895,0.6785000000000139,0.6970000000000027,0.7117999999523192,0.7287999999523151,0.7516999999880909,0.763099999964254,0.7779999999999916,0.797599999964234,0.811599999964244,0.8290000000000077,0.8500999999642431,0.8625000000000114,0.8777999999523161]",,0,0,0,0,1,,,,
,,A262731241,2023-04-24_13h36.17.968,GoFitts,2022.2.4,MacIntel,59.99520038,,,,,,,,,,,,,,,,,,"[-283.15594803123156,205.72483830236564]","[319.74091017491037,-142.35782507653005]",20,700,2,"[-290.08935546875,-283.3612060546875,-282.34375,-281.8350830078125,-281.8350830078125,-281.8350830078125,-281.326416015625,-279.037353515625,-278.02001953125,-274.7598876953125,-256.3756103515625,-222.076416015625,-181.5877685546875,-142.4810791015625,-129.10498046875,-121.58984375,-101.490966796875,-90.9869384765625,-68.7744140625,-22.804443359375,3.87646484375,48.06591796875,108.474365234375,163.585693359375,204.364501953125,232.7442626953125,237.886474609375,240.279541015625,242.672607421875,242.9268798828125,243.435546875,249.387939453125,258.811279296875,271.3323974609375,280.6256103515625,282.406005859375,282.9146728515625,283.42333984375,285.4580078125,289.4803466796875,296.2086181640625,297.2259521484375,299.2607421875,300.278076171875,300.278076171875,301.041015625,301.041015625,301.041015625,301.041015625,302.567138671875,304.0931396484375,304.8560791015625,305.36474609375,305.619140625,305.619140625,305.8734130859375,306.636474609375,314.151611328125]","[209.82452392578125,207.95562744140625,207.95562744140625,207.95562744140625,207.95562744140625,207.95562744140625,207.95562744140625,206.17523193359375,205.66656494140625,203.7822265625,191.789306640625,171.1572265625,146.89031982421875,120.9755859375,113.92510986328125,109.0689697265625,95.27447509765625,88.27178955078125,73.156005859375,44.3590087890625,29.53631591796875,5.95928955078125,-24.23321533203125,-47.558837890625,-61.4970703125,-74.311279296875,-77.98101806640625,-80.254638671875,-84.27777099609375,-85.040771484375,-86.05810546875,-91.38232421875,-97.9061279296875,-104.89154052734375,-111.17474365234375,-112.4464111328125,-112.70074462890625,-113.46380615234375,-115.75286865234375,-120.8966064453125,-125.00823974609375,-125.771240234375,-127.04296875,-127.80596923828125,-127.80596923828125,-128.31463623046875,-128.31463623046875,-128.31463623046875,-128.82330322265625,-131.87542724609375,-133.40142822265625,-134.67315673828125,-135.69049072265625,-135.94482421875,-135.94482421875,-136.19915771484375,-136.4534912109375,-141.3096923828125]","[0,0,0,0,0,0,0,0,0,0,0,0,0,0,0,0,0,0,0,0,0,0,0,0,0,0,0,0,0,0,0,0,0,0,0,0,0,0,0,0,0,0,0,0,0,0,0,0,0,0,0,0,0,0,0,0,0,0]","[0,0,0,0,0,0,0,0,0,0,0,0,0,0,0,0,0,0,0,0,0,0,0,0,0,0,0,0,0,0,0,0,0,0,0,0,0,0,0,0,0,0,0,0,0,0,0,0,0,0,0,0,0,0,0,0,0,0]","[0,0,0,0,0,0,0,0,0,0,0,0,0,0,0,0,0,0,0,0,0,0,0,0,0,0,0,0,0,0,0,0,0,0,0,0,0,0,0,0,0,0,0,0,0,0,0,0,0,0,0,0,0,0,0,0,0,0]","[0.0003999999761674644,0.023500000000012733,0.034000000000020236,0.051199999988085665,0.07460000002384959,0.08430000001192184,0.0998000000119248,0.12239999997615314,0.1343999999761536,0.14969999998808703,0.16849999999999454,0.1833000000119398,0.20000000000001705,0.2236000000238505,0.23430000001192752,0.24980000001193048,0.2740000000000009,0.28410000002384095,0.2996000000238439,0.32330000001192616,0.33319999998809635,0.34950000000000614,0.3689999999999998,0.38289999997616064,0.3995000000000175,0.42319999998809976,0.43310000002384186,0.45000000000001705,0.47389999997616883,0.48339999997617156,0.5006000000238373,0.5233000000119148,0.5331000000238362,0.5494999999999948,0.5666999999880886,0.5833000000119171,0.5996000000238553,0.6168999999761695,0.6343999999761536,0.6503999999761731,0.6748000000119418,0.6836999999880788,0.6995000000000005,0.7175000000000011,0.7331000000238532,0.749600000023861,0.7701000000238594,0.7828000000119175,0.7996000000238439,0.8278000000119334,0.8426000000238503,0.8513000000119177,0.866500000000002,0.8841000000238637,0.9001999999880752,0.923100000023851,0.9358000000119375,0.9503999999761561]",,1,0,1,0,1,,,,
,,A262731241,2023-04-24_13h36.17.968,GoFitts,2022.2.4,MacIntel,59.99520038,,,,,,,,,,,,,,,,,,"[319.74091017491037,-142.35782507653005]","[-342.351660256832,72.76909178621575]",20,700,2,"[314.151611328125,322.17529296875,324.82275390625,325.0770263671875,325.0770263671875,325.0770263671875,325.0770263671875,324.568359375,322.803466796875,318.9306640625,303.4420166015625,293.2938232421875,277.1060791015625,247.0986328125,236.0953369140625,211.8031005859375,173.393310546875,148.7537841796875,109.2265625,48.68408203125,26.547607421875,8.295654296875,-5.9676513671875,-6.9849853515625,-10.2451171875,-29.48828125,-50.373291015625,-85.1578369140625,-116.7857666015625,-141.295166015625,-164.5531005859375,-185.3079833984375,-202.17822265625,-204.82568359375,-207.47314453125,-210.1204833984375,-218.3604736328125,-230.224853515625,-238.4647216796875,-240.8577880859375,-245.9820556640625,-261.7310791015625,-281.2344970703125,-310.4896240234375,-322.6141357421875,-333.3570556640625,-337.2298583984375]","[-141.3096923828125,-146.674560546875,-148.18511962890625,-148.439453125,-148.439453125,-148.439453125,-148.439453125,-147.9307861328125,-146.5550537109375,-144.0579833984375,-135.95123291015625,-129.42742919921875,-119.38970947265625,-102.63531494140625,-97.5714111328125,-83.14288330078125,-60.22509765625,-48.86431884765625,-37.006103515625,-23.12371826171875,-18.7679443359375,-9.27960205078125,-3.91949462890625,-3.4107666015625,-3.4107666015625,-1.81060791015625,5.47418212890625,20.9632568359375,38.197265625,45.21563720703125,49.52960205078125,49.52960205078125,50.27716064453125,51.0401611328125,52.43133544921875,53.568115234375,55.3477783203125,57.25909423828125,57.25909423828125,58.0220947265625,59.243408203125,62.91162109375,66.16217041015625,66.16217041015625,66.16217041015625,66.16217041015625,66.16217041015625]","[0,0,0,0,0,0,0,0,0,0,0,0,0,0,0,0,0,0,0,0,0,0,0,0,0,0,0,0,0,0,0,0,0,0,0,0,0,0,0,0,0,0,0,0,0,0,0]","[0,0,0,0,0,0,0,0,0,0,0,0,0,0,0,0,0,0,0,0,0,0,0,0,0,0,0,0,0,0,0,0,0,0,0,0,0,0,0,0,0,0,0,0,0,0,0]","[0,0,0,0,0,0,0,0,0,0,0,0,0,0,0,0,0,0,0,0,0,0,0,0,0,0,0,0,0,0,0,0,0,0,0,0,0,0,0,0,0,0,0,0,0,0,0]","[0.0003000000119186552,0.016999999999995907,0.03359999996425245,0.049199999988076115,0.07159999996423494,0.08219999998809158,0.09900000000001796,0.11909999996424858,0.1331999999880793,0.14869999998808225,0.17259999996423403,0.18230000001193503,0.1991999999880818,0.22309999996423358,0.23230000001191797,0.24909999996424403,0.2726999999880775,0.28249999999999886,0.30000000000001137,0.32289999997615837,0.33369999998808453,0.3491999999880875,0.37280000001192093,0.38239999997617247,0.4000000000000057,0.4223000000119157,0.43369999998807884,0.44880000001191434,0.4671999999880825,0.48289999997615496,0.4993000000119139,0.5159999999999911,0.5323999999761497,0.5493999999761741,0.5673000000119259,0.5836999999880845,0.599000000000018,0.6165999999642509,0.6330000000000098,0.6493000000119196,0.6659999999999968,0.683800000011928,0.7001999999880866,0.7231999999880827,0.732899999976155,0.7491999999880932,0.7659999999999911]",,2,0,2,0,1,,,,
,,A262731241,2023-04-24_13h36.17.968,GoFitts,2022.2.4,MacIntel,59.99520038,,,,,,,,,,,,,,,,,,"[-342.351660256832,72.76909178621575]","[350,0]",20,700,2,"[-337.2298583984375,-337.738525390625,-338.7559814453125,-339.2646484375,-339.2646484375,-339.7733154296875,-344.15478515625,-344.9178466796875,-344.9178466796875,-341.9119873046875,-332.2904052734375,-310.2840576171875,-261.005126953125,-241.241455078125,-202.9656982421875,-149.9322509765625,-116.5322265625,-65.7415771484375,11.0701904296875,35.8397216796875,81.62451171875,140.9154052734375,173.0638427734375,210.088134765625,238.35205078125,259.10693359375,268.46826171875,271.2197265625,277.46533203125,289.4598388671875,306.460205078125,318.4547119140625,325.339111328125,327.3739013671875,335.0010986328125,355.7559814453125]","[66.16217041015625,66.16217041015625,66.16217041015625,66.16217041015625,66.16217041015625,66.16217041015625,66.90972900390625,67.41845703125,67.41845703125,67.41845703125,67.41845703125,67.41845703125,67.41845703125,67.41845703125,70.3829345703125,70.3829345703125,64.25439453125,51.8021240234375,32.07476806640625,25.88238525390625,14.689208984375,10.73651123046875,10.73651123046875,10.73651123046875,8.9388427734375,6.67645263671875,6.083251953125,6.083251953125,6.083251953125,5.3583984375,-0.0667724609375,-3.296142578125,-5.36505126953125,-5.36505126953125,-5.36505126953125,-5.36505126953125]","[0,0,0,0,0,0,0,0,0,0,0,0,0,0,0,0,0,0,0,0,0,0,0,0,0,0,0,0,0,0,0,0,0,0,0,0]","[0,0,0,0,0,0,0,0,0,0,0,0,0,0,0,0,0,0,0,0,0,0,0,0,0,0,0,0,0,0,0,0,0,0,0,0]","[0,0,0,0,0,0,0,0,0,0,0,0,0,0,0,0,0,0,0,0,0,0,0,0,0,0,0,0,0,0,0,0,0,0,0,0]","[0.0003999999761390427,0.01780000001190274,0.03319999998808498,0.05580000001191365,0.06680000001190933,0.08330000001191706,0.103999999999985,0.1168000000119207,0.1331000000238305,0.15630000001192457,0.16749999999998977,0.18310000002384186,0.20699999999999363,0.21680000001191502,0.23289999997615496,0.2563000000119189,0.26730000001191456,0.2826999999880684,0.30699999999998795,0.31689999997615814,0.3334999999999866,0.3568000000119298,0.36789999997614586,0.38399999999998613,0.40330000001191024,0.4178000000119084,0.43410000002384663,0.44969999998807,0.46760000002385027,0.48330000001192275,0.4994999999999834,0.5173999999761634,0.5341999999880613,0.5516999999880738,0.5668999999761581,0.5831000000238475]",,3,0,3,0,1,,,,
,,A262731241,2023-04-24_13h36.17.968,GoFitts,2022.2.4,MacIntel,59.99520038,,,,,,,,,,,,,,,,,,"[350,0]","[-342.351660256832,-72.76909178621567]",20,700,2,"[355.7559814453125,391.398681640625,410.902099609375,416.156494140625,416.156494140625,416.156494140625,416.156494140625,416.156494140625,416.156494140625,416.156494140625,416.156494140625,415.6478271484375,408.659423828125,380.65576171875,362.273681640625,344.634521484375,342.091064453125,341.5823974609375,339.4437255859375,321.4520263671875,305.572998046875,278.5606689453125,242.787841796875,191.9970703125,124.93701171875,44.1104736328125,-39.0888671875,-87.3765869140625,-118.1434326171875,-135.143798828125,-142.002197265625,-147.12646484375,-158.99072265625,-168.6123046875,-189.2371826171875,-203.734619140625,-214.4775390625,-218.9630126953125,-225.951416015625,-236.6944580078125,-247.4373779296875,-260.55322265625,-266.928955078125,-273.3046875,-294.0596923828125,-326.0780029296875,-360.4691162109375,-371.212158203125,-373.9635009765625,-374.47216796875,-375.2352294921875,-375.2352294921875,-375.489501953125,-375.489501953125,-375.489501953125,-376.9847412109375,-376.9847412109375,-376.9847412109375,-376.9847412109375,-375.96728515625,-368.9788818359375,-352.1085205078125]","[-5.36505126953125,-5.36505126953125,-5.36505126953125,-5.36505126953125,-5.36505126953125,-5.36505126953125,-5.36505126953125,-5.36505126953125,-5.36505126953125,-5.36505126953125,-5.36505126953125,-5.36505126953125,-5.36505126953125,-5.36505126953125,-1.86370849609375,2.9276123046875,3.436279296875,3.9449462890625,3.9449462890625,1.13323974609375,-3.86798095703125,-9.2139892578125,-16.94390869140625,-23.147705078125,-32.8931884765625,-50.6072998046875,-72.19122314453125,-83.43682861328125,-88.15826416015625,-89.56414794921875,-91.2786865234375,-92.873779296875,-95.24664306640625,-96.56475830078125,-96.56475830078125,-96.56475830078125,-96.56475830078125,-97.31231689453125,-97.31231689453125,-97.31231689453125,-97.31231689453125,-97.31231689453125,-96.8035888671875,-95.3311767578125,-90.32373046875,-84.67987060546875,-84.67987060546875,-84.67987060546875,-84.67987060546875,-84.67987060546875,-84.17120361328125,-84.17120361328125,-83.9168701171875,-83.9168701171875,-82.64520263671875,-79.63946533203125,-79.3851318359375,-78.87640380859375,-78.87640380859375,-78.36773681640625,-77.0269775390625,-72.8094482421875]","[0,0,0,0,0,0,0,0,0,0,0,0,0,0,0,0,0,0,0,0,0,0,0,0,0,0,0,0,0,0,0,0,0,0,0,0,0,0,0,0,0,0,0,0,0,0,0,0,0,0,0,0,0,0,0,0,0,0,0,0,0,0]","[0,0,0,0,0,0,0,0,0,0,0,0,0,0,0,0,0,0,0,0,0,0,0,0,0,0,0,0,0,0,0,0,0,0,0,0,0,0,0,0,0,0,0,0,0,0,0,0,0,0,0,0,0,0,0,0,0,0,0,0,0,0]","[0,0,0,0,0,0,0,0,0,0,0,0,0,0,0,0,0,0,0,0,0,0,0,0,0,0,0,0,0,0,0,0,0,0,0,0,0,0,0,0,0,0,0,0,0,0,0,0,0,0,0,0,0,0,0,0,0,0,0,0,0,0]","[0.0004999999999881766,0.01710000002381662,0.03449999999997999,0.050200000047681215,0.06760000002381616,0.08380000001190524,0.0993000000119082,0.12049999999999272,0.13410000002383526,0.14940000003574028,0.16899999999998272,0.1839000000357487,0.19950000000000045,0.22149999999999181,0.23280000001190615,0.2501000000238207,0.273200000047666,0.28410000002384095,0.29940000003574596,0.32390000003576347,0.3334999999999866,0.34960000002382685,0.3669999999999902,0.38360000002381867,0.40020000004767553,0.41630000001191547,0.43420000004766734,0.4499000000357398,0.4679000000357405,0.4841000000238296,0.500900000035756,0.5169999999999959,0.5352000000476664,0.5499000000357626,0.5673000000118975,0.584200000047673,0.5999999999999943,0.6182000000476648,0.6338000000119166,0.6502000000476755,0.6661000000238175,0.6833000000119114,0.7004000000357564,0.7171000000238337,0.7341000000238296,0.7502000000476698,0.7674000000357637,0.782999999999987,0.7996000000238155,0.8173000000118975,0.8334999999999866,0.8499000000357455,0.8712000000476792,0.882900000035761,0.8996000000238382,0.9219000000357482,0.9337000000476792,0.9496000000238212,0.971600000023841,0.9833000000118943,1.0001000000238207,1.0207000000476683]",,4,0,4,0,1,,,,
,,A262731241,2023-04-24_13h36.17.968,GoFitts,2022.2.4,MacIntel,59.99520038,,,,,,,,,,,,,,,,,,"[-342.351660256832,-72.76909178621567]","[319.7409101749103,142.35782507653005]",20,700,2,"[-352.1085205078125,-335.108154296875,-316.856201171875,-297.613037109375,-294.1187744140625,-293.1014404296875,-292.84716796875,-292.84716796875,-292.84716796875,-292.84716796875,-292.84716796875,-292.84716796875,-292.84716796875,-292.84716796875,-292.84716796875,-292.84716796875,-292.84716796875,-292.84716796875,-287.083984375,-263.826171875,-207.2957763671875,-153.552490234375,-53.95361328125,120.2454833984375,202.558837890625,287.139892578125,352.688232421875,356.1824951171875,356.1824951171875,356.9454345703125,356.9454345703125,356.9454345703125,356.436767578125,356.436767578125,356.436767578125,355.9281005859375,355.9281005859375,356.436767578125,357.4541015625,357.70849609375,357.70849609375,357.70849609375,356.078369140625,339.0780029296875,312.4559326171875,307.710205078125,301.9732666015625,300.34326171875,298.817138671875,297.7998046875,296.782470703125,296.782470703125,296.782470703125,296.782470703125,296.782470703125,296.782470703125,296.782470703125,296.782470703125,296.782470703125,296.782470703125,296.782470703125,296.782470703125,296.782470703125,296.528076171875,296.782470703125,297.7998046875,299.3258056640625,301.360595703125,303.753662109375,306.5050048828125,307.7767333984375,309.302734375,312.5628662109375]","[-72.8094482421875,-70.45928955078125,-67.2965087890625,-62.61737060546875,-62.24359130859375,-61.4805908203125,-61.22625732421875,-61.22625732421875,-61.22625732421875,-61.22625732421875,-61.22625732421875,-61.22625732421875,-61.22625732421875,-61.22625732421875,-61.22625732421875,-61.22625732421875,-61.22625732421875,-61.22625732421875,-60.37872314453125,-49.987548828125,-21.182373046875,-2.55517578125,23.46435546875,68.44677734375,91.31512451171875,114.67999267578125,131.9241943359375,133.484375,133.484375,134.50177001953125,135.51910400390625,137.5538330078125,138.57122802734375,138.8255615234375,138.8255615234375,139.58856201171875,139.8428955078125,141.11456298828125,142.640625,143.1492919921875,143.1492919921875,143.1492919921875,143.40362548828125,140.2408447265625,132.86053466796875,132.26727294921875,131.674072265625,131.674072265625,131.674072265625,131.674072265625,131.674072265625,131.674072265625,131.674072265625,131.674072265625,131.674072265625,131.674072265625,131.674072265625,131.674072265625,131.674072265625,131.674072265625,131.674072265625,131.674072265625,131.674072265625,131.92840576171875,132.69140625,133.963134765625,134.98046875,135.997802734375,137.50836181640625,139.25787353515625,140.27520751953125,140.78387451171875,141.66632080078125]","[0,0,0,0,0,0,0,0,0,0,0,0,0,0,0,0,0,0,0,0,0,0,0,0,0,0,0,0,0,0,0,0,0,0,0,0,0,0,0,0,0,0,0,0,0,0,0,0,0,0,0,0,0,0,0,0,0,0,0,0,0,0,0,0,0,0,0,0,0,0,0,0,0]","[0,0,0,0,0,0,0,0,0,0,0,0,0,0,0,0,0,0,0,0,0,0,0,0,0,0,0,0,0,0,0,0,0,0,0,0,0,0,0,0,0,0,0,0,0,0,0,0,0,0,0,0,0,0,0,0,0,0,0,0,0,0,0,0,0,0,0,0,0,0,0,0,0]","[0,0,0,0,0,0,0,0,0,0,0,0,0,0,0,0,0,0,0,0,0,0,0,0,0,0,0,0,0,0,0,0,0,0,0,0,0,0,0,0,0,0,0,0,0,0,0,0,0,0,0,0,0,0,0,0,0,0,0,0,0,0,0,0,0,0,0,0,0,0,0,0,0]","[0.0006000000238373104,0.012800000011935708,0.02920000004769463,0.05320000004769554,0.06200000000001182,0.07880000001190979,0.11670000004767189,0.1289000000357703,0.15160000002384777,0.16190000003575733,0.17830000001191593,0.1963000000119166,0.213100000023843,0.22849999999999682,0.2464999999999975,0.26240000003576824,0.27830000001191024,0.2967000000476787,0.31320000004768644,0.32900000000000773,0.35010000002384345,0.3631000000238487,0.3784000000357537,0.4029999999999916,0.41260000002384345,0.4288000000119325,0.4532000000476728,0.4633000000119125,0.47930000001193207,0.5020000000000095,0.5133000000119239,0.5289999999999964,0.5529999999999973,0.5622000000476817,0.5788000000119098,0.599700000047676,0.6133000000119182,0.6284000000357537,0.6458000000119171,0.6634999999999991,0.6789000000357532,0.6959000000357776,0.7126000000238548,0.7294000000357528,0.7546000000238564,0.7634999999999934,0.7786000000238289,0.7956000000238532,0.8124000000357512,0.8290000000000077,0.8520000000000039,0.8619000000357744,0.8791000000238398,0.8999000000357569,0.9130000000000109,0.929000000000002,0.9488000000119143,0.9624000000357569,0.9789000000357646,0.9992000000476935,1.0124999999999886,1.028600000023829,1.048100000023851,1.0626000000238491,1.0790000000000077,1.1001000000238434,1.1133000000119182,1.1289000000357703,1.146700000047673,1.1623000000119248,1.1793000000119207,1.1963000000119166,1.2119000000357687]",,5,0,5,0,1,,,,
,,A262731241,2023-04-24_13h36.17.968,GoFitts,2022.2.4,MacIntel,59.99520038,,,,,,,,,,,,,,,,,,"[319.7409101749103,142.35782507653005]","[-283.1559480312317,-205.72483830236555]",20,700,2,"[312.5628662109375,322.5809326171875,336.7923583984375,349.3134765625,352.0648193359375,352.0648193359375,352.0648193359375,352.0648193359375,352.0648193359375,352.0648193359375,352.0648193359375,352.0648193359375,350.1805419921875,342.0931396484375,327.7939453125,309.5396728515625,288.7847900390625,257.0267333984375,237.3931884765625,199.1173095703125,139.213623046875,77.7197265625,0.26220703125,-50.950439453125,-92.666748046875,-129.663818359375,-154.3631591796875,-161.9432373046875,-164.4403076171875,-170.900634765625,-173.2734375,-186.325927734375,-202.2503662109375,-208.224853515625,-216.5283203125,-227.1607666015625,-230.0828857421875,-234.9390869140625,-238.4381103515625,-243.6485595703125,-248.2447509765625,-251.74365234375,-254.121337890625,-255.88623046875,-261.8443603515625,-263.8636474609375,-265.6439208984375,-266.9156494140625,-268.1873779296875,-269.2047119140625,-271.4937744140625,-272.5111083984375,-276.8529052734375]","[141.66632080078125,146.25762939453125,156.03204345703125,161.6993408203125,162.8206787109375,162.8206787109375,162.8206787109375,162.8206787109375,162.8206787109375,162.8206787109375,162.8206787109375,162.8206787109375,161.17523193359375,154.7919921875,145.83026123046875,133.389892578125,125.95074462890625,117.57354736328125,112.2275390625,99.43170166015625,75.90521240234375,48.94061279296875,18.81085205078125,-1.03466796875,-24.43310546875,-47.4403076171875,-64.462158203125,-70.94366455078125,-74.81646728515625,-85.9573974609375,-90.703125,-106.83056640625,-128.00469970703125,-138.67950439453125,-149.88250732421875,-164.9747314453125,-168.99554443359375,-176.51068115234375,-181.50482177734375,-187.81402587890625,-193.2227783203125,-196.34796142578125,-200.22076416015625,-203.4808349609375,-210.91143798828125,-213.30450439453125,-214.576171875,-215.339111328125,-216.1021728515625,-216.61083984375,-216.61083984375,-215.593505859375,-210.4390869140625]","[0,0,0,0,0,0,0,0,0,0,0,0,0,0,0,0,0,0,0,0,0,0,0,0,0,0,0,0,0,0,0,0,0,0,0,0,0,0,0,0,0,0,0,0,0,0,0,0,0,0,0,0,0]","[0,0,0,0,0,0,0,0,0,0,0,0,0,0,0,0,0,0,0,0,0,0,0,0,0,0,0,0,0,0,0,0,0,0,0,0,0,0,0,0,0,0,0,0,0,0,0,0,0,0,0,0,0]","[0,0,0,0,0,0,0,0,0,0,0,0,0,0,0,0,0,0,0,0,0,0,0,0,0,0,0,0,0,0,0,0,0,0,0,0,0,0,0,0,0,0,0,0,0,0,0,0,0,0,0,0,0]","[0.00029999995231833054,0.01650000000000773,0.033399999976154504,0.05129999995230605,0.06669999998808862,0.08959999996423562,0.10149999999998727,0.11639999997615291,0.13819999998807475,0.14979999995230742,0.16679999995230332,0.18489999997615314,0.20069999998807475,0.21669999998806588,0.23349999999999227,0.2510000000000048,0.2663999999761586,0.29119999998806634,0.2996999999880643,0.31629999995232083,0.33579999995231447,0.35089999997614996,0.3667999999523204,0.38309999996423016,0.4001999999880752,0.4165999999642338,0.43429999995231583,0.4510999999642422,0.46699999999998454,0.489699999988062,0.5006999999880861,0.5165999999642281,0.5412999999523151,0.5503999999761504,0.5671999999880768,0.5911999999880777,0.5999999999999943,0.6169999999999902,0.6338999999761654,0.6510999999642308,0.6677999999523081,0.6838999999761484,0.7008999999761443,0.7170999999642333,0.7338999999761597,0.7510999999642252,0.7667999999523261,0.7851999999880661,0.8004999999999995,0.8164999999999907,0.839299999952317,0.8506999999880804,0.866500000000002]",,6,0,6,0,1,,,,
