身分證字號,date,expName,psychopyVersion,OS,frameRate,from,to,w,a,id,sequence_loop.thisN,enter_time,leave_time,mouse.x,mouse.y,mouse.leftButton,mouse.midButton,mouse.rightButton,mouse.time,trial_loop.thisRepN,trial_loop.thisTrialN,trial_loop.thisN,trial_loop.thisIndex,trial_loop.ran,sequence_loop.thisRepN,sequence_loop.thisTrialN,sequence_loop.thisIndex,sequence_loop.ran
A999999999,2024-09-12_12h32.12.766,GoFitts,2023.2.3,MacIntel,30.03003003,,,,,,,,,,,,,,,,,,,,,,,
A999999999,2024-09-12_12h32.12.766,GoFitts,2023.2.3,MacIntel,30.03003003,,,,,,,,,,,,,,,,,,,,,,,
A999999999,2024-09-12_12h32.12.766,GoFitts,2023.2.3,MacIntel,30.03003003,"[59.29296875,-57.46484375]","[-48.852310828661224,-464.798689654844]",48,934.7178616,5.32,0,2.2957,1.6952,"[59.29296875,59.29296875,59.29296875,59.29296875,59.29296875,59.29296875,59.29296875,59.29296875,59.29296875,59.29296875,59.29296875,59.29296875,59.29296875,59.29296875,59.29296875,59.29296875,59.29296875,59.29296875,35.1796875,-10.7109375,-37.00390625,-55.76171875,-64.51953125,-68.35546875,-69.6953125,-73.81640625,-76.015625,-76.015625,-75.375,-71.1796875,-66.98828125,-61.12109375,-58.30859375,-55.265625,-54.36328125,-54.05078125,-54.05078125,-54.05078125,-54.05078125,-54.05078125,-54.05078125,-54.05078125,-54.05078125,-54.05078125,-54.05078125,-54.05078125,-54.05078125,-54.05078125,-54.05078125,-54.05078125,-54.05078125,-54.05078125,-40.5234375,-23.73828125,-14.85546875,-10.7890625,-10.7890625,-10.7890625,-10.7890625,-10.7890625,-10.7890625,-10.7890625,-10.7890625,-11.89453125,-21.97265625,-33.46875,-40.58203125,-48.5546875,-56.28515625,-59.60546875,-61.08984375,-62.6640625,-63.046875,-63.046875,-62.359375,-61.078125,-60.55859375,-60.55859375,-60.55859375,-60.55859375,-60.55859375,-60.55859375,-60.55859375,-60.55859375,-60.55859375,-60.55859375]","[-57.46484375,-57.46484375,-57.46484375,-57.46484375,-57.46484375,-57.46484375,-57.46484375,-57.46484375,-57.46484375,-57.46484375,-57.46484375,-57.46484375,-57.46484375,-57.46484375,-57.46484375,-57.46484375,-57.46484375,-57.46484375,-89.23046875,-183.5625,-267.875,-335.81640625,-369.26953125,-388.6875,-399.18359375,-405.29296875,-407.4765625,-407.85546875,-407.85546875,-407.85546875,-409.94921875,-420.25390625,-427.5,-435.58984375,-437.77734375,-438.53515625,-439.60546875,-441.12109375,-443.29296875,-444.80859375,-445.9453125,-446.2578125,-446.2578125,-446.2578125,-446.2578125,-446.2578125,-446.2578125,-446.2578125,-446.2578125,-446.2578125,-446.2578125,-434.34375,-382.1796875,-239.89453125,-108.2890625,-22.2109375,10.40625,10.40625,10.40625,10.40625,10.40625,10.40625,10.40625,2.46484375,-40.6953125,-128.921875,-266.57421875,-364.2421875,-419.1953125,-444.94140625,-453.2421875,-457.03515625,-459.22265625,-460.265625,-461.33203125,-464.19140625,-468.38671875,-469.8984375,-470.65625,-470.65625,-470.65625,-470.65625,-470.65625,-470.65625,-470.65625,-470.65625]","[0,0,0,0,0,0,0,0,0,0,0,0,0,0,0,0,0,0,0,0,0,0,0,0,0,0,0,0,0,0,0,0,0,0,0,0,0,0,0,0,0,0,0,0,0,0,0,0,0,0,0,0,0,0,0,0,0,0,0,0,0,0,0,0,0,0,0,0,0,0,0,0,0,0,0,0,0,0,0,0,0,0,0,0,0,0]","[0,0,0,0,0,0,0,0,0,0,0,0,0,0,0,0,0,0,0,0,0,0,0,0,0,0,0,0,0,0,0,0,0,0,0,0,0,0,0,0,0,0,0,0,0,0,0,0,0,0,0,0,0,0,0,0,0,0,0,0,0,0,0,0,0,0,0,0,0,0,0,0,0,0,0,0,0,0,0,0,0,0,0,0,0,0]","[0,0,0,0,0,0,0,0,0,0,0,0,0,0,0,0,0,0,0,0,0,0,0,0,0,0,0,0,0,0,0,0,0,0,0,0,0,0,0,0,0,0,0,0,0,0,0,0,0,0,0,0,0,0,0,0,0,0,0,0,0,0,0,0,0,0,0,0,0,0,0,0,0,0,0,0,0,0,0,0,0,0,0,0,0,0]","[0.00030000001192220793,0.027499999999999858,0.060800000011923316,0.09450000000000003,0.1275999999940396,0.16109999999403968,0.19400000000000261,0.22780000001192136,0.2610999999940411,0.29409999999404235,0.32769999998808075,0.36119999998808083,0.39430000001192056,0.4276999999880786,0.4611999999880787,0.4944000000059603,0.52769999998808,0.5615999999940406,0.5946999999880802,0.628099999994042,0.6618000000119224,0.6941999999880792,0.7274000000059608,0.7614000000059633,0.7939000000059622,0.8280999999940413,0.8614000000059612,0.8949999999999996,0.9280999999940391,0.9606999999880799,0.995000000000001,1.032099999994042,1.0605999999940394,1.0948000000119222,1.1279000000059618,1.1613000000119236,1.1945999999940398,1.2280999999940398,1.260900000005961,1.2945000000000029,1.3281999999880796,1.3613000000119229,1.3943000000119206,1.4275999999940403,1.461000000000002,1.4934000000059626,1.5268000000119208,1.561,1.5940999999940395,1.6276999999880815,1.6610000000000014,1.6953000000119225,1.7280000000000015,1.7608000000119226,1.7949000000059634,1.8280999999940413,1.8610000000000007,1.8944000000059624,1.9278000000119206,1.961000000000002,1.994300000011922,2.027000000000001,2.0600999999940406,2.0948000000119222,2.127900000005962,2.161400000005962,2.1946999999880816,2.22809999999404,2.2608000000119226,2.2956999999880807,2.327199999988082,2.361199999988081,2.394599999994039,2.428199999988081,2.4604999999999997,2.49419999998808,2.5280000000000022,2.5614000000059605,2.5948000000119222,2.6278000000119235,2.6610000000000014,2.6941999999880792,2.727599999994041,2.7603000000119238,2.7943000000119227,2.828500000000002]",0,0,0,0,1,,,,
A999999999,2024-09-12_12h32.12.766,GoFitts,2023.2.3,MacIntel,30.03003003,"[-48.852310828661224,-464.798689654844]","[-48.852310828660805,464.79868965484405]",48,934.7178616,5.32,0,0.9637,0.3975,"[-60.55859375,-60.55859375,-60.55859375,-60.55859375,-60.55859375,-60.55859375,-60.55859375,-60.55859375,-60.55859375,-60.55859375,-60.55859375,-60.55859375,-60.55859375,-60.55859375,-60.55859375,-60.55859375,-66.8359375,-75.18359375,-84.0234375,-88.7578125,-92.0625,-100.70703125,-112.734375,-116.7578125,-116.7578125,-105.07421875,-82.33203125,-70.2265625,-65.07421875,-63.26953125,-62.3671875,-57.49609375,-52.05859375,-49.87109375,-49.1796875,-49.1796875,-49.1796875,-49.1796875,-49.1796875,-49.1796875,-49.1796875,-49.1796875,-49.1796875,-49.1796875,-49.1796875,-49.1796875]","[-470.65625,-470.65625,-470.65625,-470.65625,-470.65625,-470.65625,-470.65625,-470.65625,-470.65625,-470.65625,-470.65625,-470.16796875,-434.921875,-250.796875,-14.31640625,158.5859375,275.06640625,324.67578125,351.46875,363.515625,368.68359375,377.99609375,390.984375,399.30078125,405.40625,416.015625,431.92578125,441.45703125,445.4296875,448.3046875,451.171875,456.59375,460.04296875,461.3359375,461.3359375,461.3359375,461.3359375,461.3359375,461.3359375,461.3359375,461.3359375,461.3359375,461.3359375,461.3359375,461.3359375,461.3359375]","[0,0,0,0,0,0,0,0,0,0,0,0,0,0,0,0,0,0,0,0,0,0,0,0,0,0,0,0,0,0,0,0,0,0,0,0,0,0,0,0,0,0,0,0,0,0]","[0,0,0,0,0,0,0,0,0,0,0,0,0,0,0,0,0,0,0,0,0,0,0,0,0,0,0,0,0,0,0,0,0,0,0,0,0,0,0,0,0,0,0,0,0,0]","[0,0,0,0,0,0,0,0,0,0,0,0,0,0,0,0,0,0,0,0,0,0,0,0,0,0,0,0,0,0,0,0,0,0,0,0,0,0,0,0,0,0,0,0,0,0]","[0,0.0312999999821173,0.06350000000000122,0.0966999999880791,0.13019999998807918,0.16359999999404096,0.19659999999403865,0.23009999999403874,0.2630000000000017,0.2970000000000006,0.3301999999880785,0.3644000000059613,0.39769999998808103,0.4305000000000021,0.4640000000000022,0.49719999998808007,0.5305999999940383,0.5629000000059605,0.5972999999821198,0.6304000000059595,0.6639000000059596,0.6966999999880805,0.7307999999821178,0.7644000000059599,0.7974000000059611,0.8309000000059612,0.8639000000059625,0.8965999999940415,0.9299000000059614,0.9637999999821183,0.9967999999821195,1.0301999999880778,1.0639000000059617,1.0970999999940396,1.1311999999880804,1.162900000005962,1.1967999999821188,1.22979999998212,1.2634000000059622,1.2962999999821179,1.3300999999940402,1.363500000000002,1.3967999999821181,1.4299999999999997,1.46369999998808,1.4969000000059616]",1,0,1,0,1,,,,
A999999999,2024-09-12_12h32.12.766,GoFitts,2023.2.3,MacIntel,30.03003003,"[-48.852310828660805,464.79868965484405]","[144.42185208337426,-444.48475656536084]",48,934.7178616,5.32,0,0.9662,0.1657,"[-49.1796875,-49.1796875,-49.1796875,-54.6875,-65.171875,-87.9921875,-108.9609375,-126.48046875,-138.99609375,-146.0703125,-151.2421875,-157.36328125,-159.56640625,-159.56640625,-132.32421875,-72.54296875,28.328125,138.26171875,147.421875,147.421875,147.421875,147.421875,147.421875,147.421875,147.421875,144.171875,138.50390625,134.42578125,134.42578125,136.47265625,137.140625,137.140625,137.140625,137.40234375,137.40234375,137.66796875,138.046875,138.046875,138.046875,138.046875,138.046875,138.046875,138.046875,138.046875,138.046875,138.046875]","[461.3359375,461.3359375,461.3359375,461.3359375,461.3359375,459.27734375,457.21875,454.4921875,453.01171875,452.34375,451.8203125,451.15234375,450.25,436.140625,375.31640625,242.828125,11.984375,-305.33984375,-337.41015625,-337.41015625,-337.41015625,-337.41015625,-337.41015625,-337.41015625,-338.17578125,-351.15234375,-364.375,-379.5,-405.98828125,-430.85546875,-440.703125,-442.21484375,-442.52734375,-442.52734375,-442.52734375,-442.80078125,-442.80078125,-442.80078125,-442.80078125,-442.80078125,-442.80078125,-442.80078125,-442.80078125,-442.80078125,-442.80078125,-442.80078125]","[0,0,0,0,0,0,0,0,0,0,0,0,0,0,0,0,0,0,0,0,0,0,0,0,0,0,0,0,0,0,0,0,0,0,0,0,0,0,0,0,0,0,0,0,0,0]","[0,0,0,0,0,0,0,0,0,0,0,0,0,0,0,0,0,0,0,0,0,0,0,0,0,0,0,0,0,0,0,0,0,0,0,0,0,0,0,0,0,0,0,0,0,0]","[0,0,0,0,0,0,0,0,0,0,0,0,0,0,0,0,0,0,0,0,0,0,0,0,0,0,0,0,0,0,0,0,0,0,0,0,0,0,0,0,0,0,0,0,0,0]","[0.0000999999940418661,0.031500000000001194,0.06469999998807907,0.09859999999403968,0.13219999998808163,0.16569999998808171,0.1985999999940411,0.23200000000000287,0.26509999999404243,0.2985999999940425,0.3310999999940414,0.365000000000002,0.39809999999404155,0.43130000001192315,0.4650000000000034,0.49849999999999994,0.5320999999940419,0.5655000000000001,0.5985000000000014,0.6315000000000026,0.6648000000119225,0.6980999999940423,0.7314000000059622,0.7644000000059634,0.7986999999880808,0.8318000000119241,0.8653000000119242,0.8986999999880823,0.9319000000059638,0.9661999999880813,0.9984000000059616,1.032,1.064099999994042,1.0985999999940397,1.1315000000000026,1.1654000000059632,1.1986999999880794,1.2315999999940423,1.264800000011924,1.298199999988082,1.3315999999940402,1.3648000000119218,1.3981999999880799,1.4315000000000033,1.4649000000059615,1.4984000000059616]",2,0,2,0,1,,,,
A999999999,2024-09-12_12h32.12.766,GoFitts,2023.2.3,MacIntel,30.03003003,"[144.42185208337426,-444.48475656536084]","[-233.6794653891094,404.74470673947064]",48,934.7178616,5.32,0,0.7656,0.399,"[138.046875,138.046875,138.046875,138.046875,138.046875,138.046875,138.046875,138.046875,138.046875,138.046875,138.046875,138.046875,120.3984375,41.89453125,-44.93359375,-84.48828125,-115.43359375,-137.21875,-146.55859375,-150.7421875,-161.03125,-182.88671875,-204.41015625,-221.87109375,-225.9921875,-226.7578125,-226.7578125,-226.7578125,-226.7578125,-226.7578125,-226.7578125,-226.7578125,-226.7578125,-226.7578125,-226.7578125,-226.7578125,-226.7578125,-226.7578125,-226.7578125,-226.7578125]","[-442.80078125,-442.80078125,-442.80078125,-442.80078125,-442.80078125,-442.80078125,-442.80078125,-442.80078125,-442.80078125,-442.80078125,-442.80078125,-442.80078125,-373.90234375,-132.3125,143.0859375,244.984375,298,319.93359375,327.64453125,331.30859375,340.26171875,361.015625,388.16796875,407.8203125,413.56640625,413.94921875,414.265625,414.265625,414.265625,414.265625,414.265625,414.265625,414.265625,414.265625,414.265625,414.265625,414.265625,414.265625,414.265625,414.265625]","[0,0,0,0,0,0,0,0,0,0,0,0,0,0,0,0,0,0,0,0,0,0,0,0,0,0,0,0,0,0,0,0,0,0,0,0,0,0,0,0]","[0,0,0,0,0,0,0,0,0,0,0,0,0,0,0,0,0,0,0,0,0,0,0,0,0,0,0,0,0,0,0,0,0,0,0,0,0,0,0,0]","[0,0,0,0,0,0,0,0,0,0,0,0,0,0,0,0,0,0,0,0,0,0,0,0,0,0,0,0,0,0,0,0,0,0,0,0,0,0,0,0]","[0.00010000002384202844,0.031300000011921014,0.06470000001788279,0.09799999999999898,0.13149999999999906,0.1641000000238435,0.19780000001192022,0.23140000000596217,0.2647000000178821,0.29810000002384385,0.3315000000000019,0.364300000011923,0.3990000000000009,0.431800000011922,0.4651000000238419,0.49830000001191976,0.5318000000119198,0.5649000000059594,0.5984000000059595,0.63080000001192,0.6651000000238412,0.6983000000119226,0.7317000000178808,0.7656000000238414,0.7986000000238427,0.832300000011923,0.8649000000059601,0.8981000000238417,0.9314000000059615,0.9647000000178814,0.9979000000059628,1.0314000000059593,1.064600000023841,1.097999999999999,1.131499999999999,1.1646000000238423,1.197900000005962,1.2310000000000016,1.2645000000000017,1.2982000000178822]",3,0,3,0,1,,,,
A999999999,2024-09-12_12h32.12.766,GoFitts,2023.2.3,MacIntel,30.03003003,"[-233.6794653891094,404.74470673947064]","[312.72416473885744,-347.31537104848104]",48,934.7178616,5.32,0,0.7661,0.3655,"[-226.7578125,-226.7578125,-226.7578125,-226.7578125,-226.7578125,-226.7578125,-226.7578125,-226.7578125,-226.7578125,-226.7578125,-218.38671875,-164.46484375,25.3046875,171.07421875,226.44921875,226.44921875,226.44921875,226.44921875,226.44921875,226.44921875,247.56640625,271.99609375,292.828125,297.94921875,300.67578125,301.34375,301.34375,301.34375,301.34375,301.72265625,301.72265625,301.98046875,302.64453125,302.64453125,302.64453125,302.64453125,302.64453125,302.64453125,302.64453125,302.64453125]","[414.265625,414.265625,414.265625,414.265625,414.265625,414.265625,414.265625,414.265625,414.265625,414.265625,410.95703125,376.30859375,177.66015625,-30.00390625,-128.71484375,-128.71484375,-128.71484375,-128.71484375,-128.71484375,-128.71484375,-166.984375,-233.5859375,-302.34375,-339.9375,-354.76953125,-358.58203125,-359.71484375,-359.98828125,-359.98828125,-360.24609375,-360.24609375,-360.53125,-360.53125,-360.53125,-360.53125,-360.53125,-360.53125,-360.53125,-360.53125,-360.53125]","[0,0,0,0,0,0,0,0,0,0,0,0,0,0,0,0,0,0,0,0,0,0,0,0,0,0,0,0,0,0,0,0,0,0,0,0,0,0,0,0]","[0,0,0,0,0,0,0,0,0,0,0,0,0,0,0,0,0,0,0,0,0,0,0,0,0,0,0,0,0,0,0,0,0,0,0,0,0,0,0,0]","[0,0,0,0,0,0,0,0,0,0,0,0,0,0,0,0,0,0,0,0,0,0,0,0,0,0,0,0,0,0,0,0,0,0,0,0,0,0,0,0]","[0,0.03159999999403951,0.0648000000119211,0.09819999998807916,0.13140000000596075,0.16480000001192252,0.1983000000119226,0.23140000000596217,0.2648000000119204,0.29819999998807845,0.33169999998807853,0.36559999999403914,0.3990000000000009,0.4323000000119208,0.4650999999940417,0.4980999999940394,0.5315999999940395,0.564900000005963,0.5980999999940408,0.6314000000059607,0.6653000000119214,0.6984000000059609,0.7316999999880807,0.7661999999880784,0.7988000000119229,0.832099999994039,0.8650999999940403,0.8986999999880787,0.9311999999880811,0.9650999999940417,0.9983000000119233,1.032,1.0650999999940396,1.0981999999880792,1.1314000000059607,1.1650000000000027,1.197900000005962,1.2313000000119203,1.2638000000119227,1.2981999999880784]",4,0,4,0,1,,,,
A999999999,2024-09-12_12h32.12.766,GoFitts,2023.2.3,MacIntel,30.03003003,"[312.72416473885744,-347.31537104848104]","[-378.1013174724838,274.706687038616]",48,934.7178616,5.32,0,0.699,0.2975,"[302.64453125,302.64453125,302.64453125,302.64453125,302.64453125,302.64453125,302.64453125,302.64453125,292.66796875,207.08203125,78.91015625,-19.9140625,-109.33203125,-182.56640625,-224.80859375,-260.109375,-284.26171875,-299.98046875,-319.3359375,-347.02734375,-367.9921875,-380.0546875,-386.453125,-389.3203125,-390.61328125,-390.99609375,-391.76171875,-391.76171875,-392.14453125,-392.14453125,-392.14453125,-392.14453125,-392.14453125,-392.14453125,-392.14453125,-392.14453125,-392.14453125,-392.14453125]","[-360.53125,-360.53125,-360.53125,-360.53125,-360.53125,-360.53125,-360.53125,-360.53125,-344.56640625,-220.15234375,-72.44921875,38.99609375,120.00390625,167.125,186.921875,203.32421875,215.05859375,224.35546875,235.90625,246.8515625,251.9375,256.68359375,261.74609375,264.61328125,266.81640625,269.6875,271.21875,271.53125,271.8203125,271.8203125,271.8203125,271.8203125,271.8203125,271.8203125,271.8203125,271.8203125,271.8203125,271.8203125]","[0,0,0,0,0,0,0,0,0,0,0,0,0,0,0,0,0,0,0,0,0,0,0,0,0,0,0,0,0,0,0,0,0,0,0,0,0,0]","[0,0,0,0,0,0,0,0,0,0,0,0,0,0,0,0,0,0,0,0,0,0,0,0,0,0,0,0,0,0,0,0,0,0,0,0,0,0]","[0,0,0,0,0,0,0,0,0,0,0,0,0,0,0,0,0,0,0,0,0,0,0,0,0,0,0,0,0,0,0,0,0,0,0,0,0,0]","[0,0.03109999999403712,0.06439999997615686,0.09769999998807677,0.13109999999403854,0.16459999999403863,0.19789999997615837,0.23119999998807828,0.26489999997615854,0.29749999999999943,0.33109999999403783,0.3647999999821181,0.3983999999761565,0.4320999999940369,0.46499999999999986,0.4983999999761579,0.5316999999880778,0.5640000000000001,0.597899999976157,0.6315999999940374,0.6648999999761571,0.6989999999999981,0.7316999999880771,0.7647999999821167,0.7982999999821168,0.8314999999999984,0.8640000000000008,0.8985999999940368,0.9318999999761566,0.9644999999999975,0.9979999999999976,1.031199999988079,1.0645999999940372,1.097899999976157,1.1311999999880769,1.1645000000000003,1.1980000000000004,1.2313999999761585]",5,0,5,0,1,,,,
A999999999,2024-09-12_12h32.12.766,GoFitts,2023.2.3,MacIntel,30.03003003,"[-378.1013174724838,274.706687038616]","[426.95362830114476,-190.09200261622806]",48,934.7178616,5.32,0,0.7324,0.2985,"[-392.14453125,-392.14453125,-392.14453125,-392.14453125,-392.14453125,-392.14453125,-392.14453125,-392.14453125,-390.89453125,-348.3359375,-271.63671875,-73.16796875,123.4296875,221.1484375,281.484375,307.5859375,322.8359375,337.58203125,349.046875,357.31640625,372.11328125,395.296875,417.953125,428.7421875,431.59375,432.3515625,432.3515625,432.3515625,432.3515625,432.3515625,432.3515625,432.3515625,432.3515625,432.3515625,432.3515625,432.3515625,432.3515625,432.3515625,432.3515625]","[271.8203125,271.8203125,271.8203125,271.8203125,271.8203125,271.8203125,271.8203125,271.8203125,271.8203125,261.90234375,232.9140625,145.21484375,27.84765625,-50.96484375,-102.00390625,-125.30859375,-139.59765625,-149.8359375,-159.67578125,-171.19921875,-185.99609375,-197.90625,-203.1015625,-203.1015625,-203.1015625,-203.1015625,-203.1015625,-203.1015625,-203.1015625,-203.1015625,-203.1015625,-203.1015625,-203.1015625,-203.1015625,-203.1015625,-203.1015625,-203.1015625,-203.1015625,-203.1015625]","[0,0,0,0,0,0,0,0,0,0,0,0,0,0,0,0,0,0,0,0,0,0,0,0,0,0,0,0,0,0,0,0,0,0,0,0,0,0,0]","[0,0,0,0,0,0,0,0,0,0,0,0,0,0,0,0,0,0,0,0,0,0,0,0,0,0,0,0,0,0,0,0,0,0,0,0,0,0,0]","[0,0,0,0,0,0,0,0,0,0,0,0,0,0,0,0,0,0,0,0,0,0,0,0,0,0,0,0,0,0,0,0,0,0,0,0,0,0,0]","[0,0.031900000005961715,0.06509999999403959,0.09800000000000253,0.1310999999940421,0.16470000001788065,0.19840000000596092,0.23199999999999932,0.26559999999404127,0.29850000000000065,0.33209999999403905,0.36520000001788233,0.3985999999940404,0.43200000000000216,0.46550000000000225,0.499300000011921,0.5325000000000024,0.565599999994042,0.5988000000119236,0.6310000000000002,0.6650000000000027,0.6983000000119226,0.7324000000059598,0.7654000000059611,0.798599999994039,0.8320000000000007,0.865000000000002,0.8984000000059602,0.931800000011922,0.9645999999940393,0.9983000000119233,1.0315999999940395,1.0647000000178828,1.0980000000000025,1.131599999994041,1.1650000000000027,1.1982000000178807,1.2315000000000005,1.265200000017881]",6,0,6,0,1,,,,
A999999999,2024-09-12_12h32.12.766,GoFitts,2023.2.3,MacIntel,30.03003003,"[426.95362830114476,-190.09200261622806]","[-457.14601682223173,97.16938551687966]",48,934.7178616,5.32,0,1.266,0.3981,"[432.3515625,432.3515625,432.3515625,432.3515625,432.3515625,432.3515625,432.3515625,432.3515625,432.3515625,432.3515625,432.3515625,423.97265625,379.1953125,247.44140625,143.98046875,0.11328125,-111.64453125,-209.29296875,-273.9453125,-325.9375,-350.0625,-384.3359375,-407.171875,-422.01171875,-433.75,-449.84375,-461.5859375,-469.59375,-476.671875,-479.546875,-480.3125,-480.3125,-480.3125,-480.3125,-480.3125,-480.3125,-479.93359375,-479.5546875,-479.2421875,-479.2421875,-479.2421875,-479.2421875,-479.2421875,-479.2421875,-479.2421875,-479.2421875,-479.2421875,-463.61328125,-453.125,-446.73828125,-444.55078125,-444.55078125,-444.55078125,-444.55078125,-444.55078125]","[-203.1015625,-203.1015625,-203.1015625,-203.1015625,-203.1015625,-203.1015625,-203.1015625,-203.1015625,-203.1015625,-203.1015625,-203.1015625,-199.53515625,-182.8515625,-139.9765625,-99.4921875,-31.75,20.37890625,57.1171875,80.2109375,97.85546875,105.06640625,113.90625,121.20703125,123.80078125,123.80078125,123.80078125,122.328125,119.6640625,117.13671875,116.234375,115.85546875,115.28515625,113.76953125,110.53125,109.015625,107.5,106.8125,106.125,105.8125,105.8125,105.8125,105.8125,105.8125,105.8125,105.8125,105.8125,105.8125,101.03515625,96.4609375,92.21875,90.55859375,90.55859375,90.296875,90.01171875,90.01171875]","[0,0,0,0,0,0,0,0,0,0,0,0,0,0,0,0,0,0,0,0,0,0,0,0,0,0,0,0,0,0,0,0,0,0,0,0,0,0,0,0,0,0,0,0,0,0,0,0,0,0,0,0,0,0,0]","[0,0,0,0,0,0,0,0,0,0,0,0,0,0,0,0,0,0,0,0,0,0,0,0,0,0,0,0,0,0,0,0,0,0,0,0,0,0,0,0,0,0,0,0,0,0,0,0,0,0,0,0,0,0,0]","[0,0,0,0,0,0,0,0,0,0,0,0,0,0,0,0,0,0,0,0,0,0,0,0,0,0,0,0,0,0,0,0,0,0,0,0,0,0,0,0,0,0,0,0,0,0,0,0,0,0,0,0,0,0,0]","[0,0.03080000001192218,0.06459999999404076,0.09809999999404084,0.13149999999999906,0.16480000001192252,0.1983000000119226,0.23150000000000048,0.2649000000059587,0.2980999999940366,0.3315999999940402,0.3651999999880786,0.398099999994038,0.4320999999940369,0.4648000000119197,0.4984000000059581,0.5320000000000036,0.5645000000000024,0.5985999999940432,0.6319000000059631,0.665099999994041,0.6985999999940375,0.7313000000119203,0.7651999999880772,0.79790000000596,0.8320000000000007,0.8654999999999973,0.8986999999880823,0.9318000000119184,0.9654999999999987,0.9986999999880766,1.0321999999880802,1.0655000000000001,1.0985999999940432,1.1319000000059631,1.165099999994041,1.198400000005961,1.2314000000059622,1.2659999999999982,1.297699999988076,1.3314999999999984,1.3648000000119183,1.3981999999880799,1.431400000005958,1.4648000000119197,1.4981999999880813,1.531599999994043,1.5649999999999977,1.5985000000000014,1.6313000000119189,1.6649999999999991,1.6980999999940423,1.7319999999999993,1.7651999999880772,1.7981999999880784]",7,0,7,0,1,,,,
A999999999,2024-09-12_12h32.12.766,GoFitts,2023.2.3,MacIntel,30.03003003,"[-457.14601682223173,97.16938551687966]","[467.358930778219,0]",48,934.7178616,5.32,0,1.2334,0.4326,"[-444.55078125,-444.55078125,-444.55078125,-444.55078125,-444.55078125,-444.55078125,-444.55078125,-444.55078125,-444.55078125,-444.55078125,-444.55078125,-444.55078125,-444.55078125,-423.8125,-346.5078125,-217.37890625,26.91796875,182.58203125,281.3671875,322.39453125,359.2109375,388.98828125,413.640625,446.78125,480.16015625,505.05078125,513.6328125,514.76953125,514.76953125,514.76953125,509.59375,503.5234375,502.296875,501.25,495.125,490.9140625,489.765625,489.44921875,489.44921875,489.44921875,489.44921875,489.44921875,489.44921875,489.44921875,489.44921875,489.44921875,489.44921875,489.44921875,489.44921875,489.44921875,489.44921875,489.44921875,489.44921875,489.44921875]","[90.01171875,90.01171875,90.01171875,90.01171875,90.01171875,90.01171875,90.01171875,90.01171875,90.01171875,90.01171875,90.01171875,90.01171875,90.01171875,90.01171875,100.6953125,102.6875,83.91015625,53.0703125,29.50390625,17.5234375,1.84765625,-11.3125,-18.7421875,-27.1875,-35.91015625,-42.36328125,-44.50390625,-44.8828125,-44.8828125,-44.625,-30.0703125,-17.2890625,-15.53515625,-15.24609375,-12.1796875,-10.07421875,-8.92578125,-8.92578125,-8.92578125,-8.92578125,-8.92578125,-8.92578125,-8.92578125,-8.92578125,-8.92578125,-8.92578125,-8.92578125,-8.92578125,-8.92578125,-8.92578125,-8.92578125,-8.92578125,-8.92578125,-8.92578125]","[0,0,0,0,0,0,0,0,0,0,0,0,0,0,0,0,0,0,0,0,0,0,0,0,0,0,0,0,0,0,0,0,0,0,0,0,0,0,0,0,0,0,0,0,0,0,0,0,0,0,0,0,0,0]","[0,0,0,0,0,0,0,0,0,0,0,0,0,0,0,0,0,0,0,0,0,0,0,0,0,0,0,0,0,0,0,0,0,0,0,0,0,0,0,0,0,0,0,0,0,0,0,0,0,0,0,0,0,0]","[0,0,0,0,0,0,0,0,0,0,0,0,0,0,0,0,0,0,0,0,0,0,0,0,0,0,0,0,0,0,0,0,0,0,0,0,0,0,0,0,0,0,0,0,0,0,0,0,0,0,0,0,0,0]","[0,0.03170000001788509,0.06510000002383975,0.09860000002384339,0.13180000001192127,0.164400000005962,0.19850000000000279,0.2318000000119227,0.2654000000059611,0.29840000000596234,0.3316000000238404,0.365100000023844,0.39860000002384055,0.43260000002383947,0.4654999999999987,0.4992000000178791,0.5324000000059641,0.5654000000059582,0.5991000000238458,0.6323000000119237,0.6655000000000015,0.698300000011919,0.7319999999999993,0.7649000000059587,0.798700000017881,0.8324000000059613,0.8655000000000044,0.8991000000238429,0.9318000000119184,0.9656000000238407,0.9988000000119186,1.0322000000178804,1.0653000000119235,1.09880000001192,1.1315000000000026,1.165300000011925,1.1985000000000028,1.2334000000059646,1.2652000000178845,1.2984000000059623,1.3320000000000007,1.365100000023844,1.3984000000059638,1.4311000000238394,1.4651000000238454,1.4985,1.5319000000059617,1.5647000000178792,1.5983000000119247,1.6317000000178794,1.6647000000178807,1.6985000000000028,1.7312000000178855,1.764700000017882]",8,0,8,0,1,,,,
A999999999,2024-09-12_12h32.12.766,GoFitts,2023.2.3,MacIntel,30.03003003,"[467.358930778219,0]","[-457.14601682223173,-97.16938551687953]",48,934.7178616,5.32,0,1.3334,0.2648,"[489.44921875,489.44921875,489.44921875,489.44921875,489.44921875,489.44921875,489.20703125,473.11328125,397.33984375,216.16796875,39.83203125,-107.01171875,-193.30859375,-243.40234375,-284.359375,-310.98828125,-331.96875,-347.22265625,-352.82421875,-367.15625,-390.04296875,-411.8984375,-427.40625,-439.390625,-450.59375,-456.96484375,-463.36328125,-469.09375,-472.10546875,-472.48828125,-472.8046875,-472.8046875,-472.8046875,-472.8046875,-472.8046875,-472.8046875,-472.8046875,-472.8046875,-472.8046875,-472.8046875,-467.9140625,-463.28515625,-461.76953125,-461.76953125,-461.76953125,-461.76953125,-461.76953125,-461.76953125,-461.76953125,-461.76953125,-461.76953125,-461.76953125,-461.76953125,-461.76953125,-461.76953125,-461.76953125,-461.76953125]","[-8.92578125,-8.92578125,-8.92578125,-8.92578125,-8.92578125,-8.92578125,-8.92578125,-7.96484375,5.83203125,29.83203125,44.28125,51.61328125,53.60546875,53.60546875,52.0625,42.05859375,32.203125,25.05859375,20,3.76171875,-20.5,-41.23828125,-59.23828125,-74.0859375,-88.8203125,-99.76171875,-108.1484375,-114.5234375,-117.5234375,-118.66015625,-118.66015625,-118.66015625,-118.66015625,-118.66015625,-118.66015625,-118.66015625,-118.66015625,-118.66015625,-118.66015625,-118.4140625,-113.5,-108.99609375,-107.84765625,-107.84765625,-107.84765625,-107.84765625,-107.84765625,-107.84765625,-107.84765625,-107.84765625,-107.84765625,-107.84765625,-107.84765625,-107.84765625,-107.84765625,-107.84765625,-107.84765625]","[0,0,0,0,0,0,0,0,0,0,0,0,0,0,0,0,0,0,0,0,0,0,0,0,0,0,0,0,0,0,0,0,0,0,0,0,0,0,0,0,0,0,0,0,0,0,0,0,0,0,0,0,0,0,0,0,0]","[0,0,0,0,0,0,0,0,0,0,0,0,0,0,0,0,0,0,0,0,0,0,0,0,0,0,0,0,0,0,0,0,0,0,0,0,0,0,0,0,0,0,0,0,0,0,0,0,0,0,0,0,0,0,0,0,0]","[0,0,0,0,0,0,0,0,0,0,0,0,0,0,0,0,0,0,0,0,0,0,0,0,0,0,0,0,0,0,0,0,0,0,0,0,0,0,0,0,0,0,0,0,0,0,0,0,0,0,0,0,0,0,0,0,0]","[0,0.031900000005961715,0.06530000001192349,0.09870000001787815,0.13210000002383993,0.16520000001788304,0.19930000001192383,0.2322000000178832,0.2649000000059587,0.2989000000059576,0.33200000000000074,0.36580000001192303,0.39890000000595904,0.43220000001787895,0.46580000001192445,0.49910000002384436,0.5327000000178828,0.5663000000119212,0.5990000000000038,0.6324000000059584,0.6657000000178783,0.6989000000059633,0.7324000000059598,0.765600000023845,0.7996000000238439,0.8327000000178799,0.865800000011923,0.8993000000119196,0.9339000000059627,0.9651000000238454,0.999300000011921,1.0320000000000036,1.0653000000119235,1.0986000000238434,1.131999999999998,1.1653000000119178,1.1989000000059633,1.2319000000059575,1.264800000011924,1.2988000000119229,1.3335000000000008,1.3657000000178812,1.3984000000059638,1.4309000000059626,1.465300000011922,1.498400000005958,1.5319000000059617,1.5655000000000001,1.59880000001192,1.6322000000178818,1.6653000000119178,1.6988000000119214,1.7322000000178832,1.7653000000119192,1.798700000017881,1.8320000000000007,1.8654999999999973]",9,0,9,0,1,,,,
A999999999,2024-09-12_12h32.12.766,GoFitts,2023.2.3,MacIntel,30.03003003,"[-457.14601682223173,-97.16938551687953]","[426.9536283011447,190.09200261622806]",48,934.7178616,5.32,0,1.0994,0.3322,"[-461.76953125,-461.76953125,-461.76953125,-461.76953125,-461.76953125,-461.76953125,-461.76953125,-461.76953125,-461.76953125,-455.99609375,-413.52734375,-351.9375,-270.6328125,-175.1015625,-55.49609375,9.1640625,64.62890625,101.30859375,129.88671875,153.98828125,170.359375,195.65625,222.94921875,248.6640625,271.45703125,290.86328125,305.40234375,327.7890625,346.92578125,363.00390625,375.9609375,383.95703125,396.86328125,414.05078125,425.83984375,427.64453125,427.64453125,427.64453125,427.64453125,427.89453125,427.89453125,427.89453125,427.89453125,427.89453125,427.89453125,427.89453125,427.89453125,427.89453125,427.89453125,427.89453125]","[-107.84765625,-107.84765625,-107.84765625,-107.84765625,-107.84765625,-107.84765625,-107.84765625,-107.84765625,-107.84765625,-107.84765625,-97.9296875,-80.0625,-57.96484375,-36.0625,-10.0546875,6.4296875,20.296875,32.26171875,43.734375,56.9765625,66.94140625,85.484375,100.7265625,113.15234375,124.4140625,131.109375,136.2890625,140.9453125,145.7421875,149.296875,153.36328125,157.37890625,167.05078125,179.48046875,191.14453125,194.30078125,194.68359375,194.68359375,194.68359375,194.68359375,194.68359375,194.68359375,194.68359375,194.68359375,194.68359375,194.68359375,194.68359375,194.68359375,194.68359375,194.68359375]","[0,0,0,0,0,0,0,0,0,0,0,0,0,0,0,0,0,0,0,0,0,0,0,0,0,0,0,0,0,0,0,0,0,0,0,0,0,0,0,0,0,0,0,0,0,0,0,0,0,0]","[0,0,0,0,0,0,0,0,0,0,0,0,0,0,0,0,0,0,0,0,0,0,0,0,0,0,0,0,0,0,0,0,0,0,0,0,0,0,0,0,0,0,0,0,0,0,0,0,0,0]","[0,0,0,0,0,0,0,0,0,0,0,0,0,0,0,0,0,0,0,0,0,0,0,0,0,0,0,0,0,0,0,0,0,0,0,0,0,0,0,0,0,0,0,0,0,0,0,0,0,0]","[0,0.031999999999996476,0.06380000001191632,0.09799999999999898,0.13120000001787702,0.16459999999403863,0.19790000000595853,0.2313000000119203,0.26459999999404005,0.2982000000178786,0.332499999999996,0.3649999999999949,0.3990000000000009,0.4320999999940369,0.4657000000178826,0.49870000001787673,0.5320999999940383,0.5649000000059559,0.5987000000178782,0.6320999999940398,0.6649999999999991,0.7004000000059563,0.7322000000178761,0.7654999999999959,0.7984999999999971,0.8322000000178775,0.8654999999999973,0.898900000005959,0.9320999999940369,0.9654999999999987,0.9988000000119186,1.0322000000178804,1.0654000000059582,1.099499999999999,1.131999999999998,1.1654000000059597,1.1987000000178796,1.2317000000178808,1.2659000000059564,1.2989000000059576,1.331800000011917,1.3647000000178764,1.3979000000059614,1.4315999999940345,1.465300000011922,1.4983000000119162,1.531700000017878,1.5650999999940396,1.5983000000119176,1.6318000000119213]",10,0,10,0,1,,,,
A999999999,2024-09-12_12h32.12.766,GoFitts,2023.2.3,MacIntel,30.03003003,"[426.9536283011447,190.09200261622806]","[-378.1013174724839,-274.7066870386159]",48,934.7178616,5.32,0,1.0991,0.3316,"[427.89453125,427.89453125,427.89453125,427.89453125,427.89453125,427.89453125,427.89453125,427.89453125,427.89453125,413.81640625,361.8828125,211.0703125,-17.1796875,-236.015625,-353.05078125,-423.42578125,-459.6171875,-477.83203125,-488.16015625,-496.19140625,-502.31640625,-504.13671875,-504.13671875,-497.125,-479.5625,-461.9609375,-445.98046875,-431.44140625,-418.44140625,-407.9375,-402.5,-401.36328125,-401.08984375,-400.4921875,-399.828125,-396.96875,-395.453125,-395.07421875,-395.07421875,-394.81640625,-394.81640625,-394.81640625,-394.81640625,-394.81640625,-394.81640625,-394.81640625,-394.81640625,-394.81640625,-394.81640625,-394.81640625]","[194.68359375,194.68359375,194.68359375,194.68359375,194.68359375,194.68359375,194.68359375,194.68359375,194.68359375,190.59375,168.65625,104.76953125,-6.2109375,-118.51171875,-186.0390625,-225.73046875,-244.73046875,-255.2578125,-261.9375,-266.61328125,-270.859375,-272.51953125,-274.03515625,-277.89453125,-282.37890625,-283.3359375,-283.3359375,-278.30078125,-273.41015625,-268.95703125,-267.90234375,-267.51953125,-267.51953125,-267.51953125,-266.84765625,-265.9375,-265.171875,-265.171875,-265.171875,-265.171875,-265.171875,-265.171875,-265.171875,-265.171875,-265.171875,-265.171875,-265.171875,-265.171875,-265.171875,-265.171875]","[0,0,0,0,0,0,0,0,0,0,0,0,0,0,0,0,0,0,0,0,0,0,0,0,0,0,0,0,0,0,0,0,0,0,0,0,0,0,0,0,0,0,0,0,0,0,0,0,0,0]","[0,0,0,0,0,0,0,0,0,0,0,0,0,0,0,0,0,0,0,0,0,0,0,0,0,0,0,0,0,0,0,0,0,0,0,0,0,0,0,0,0,0,0,0,0,0,0,0,0,0]","[0,0,0,0,0,0,0,0,0,0,0,0,0,0,0,0,0,0,0,0,0,0,0,0,0,0,0,0,0,0,0,0,0,0,0,0,0,0,0,0,0,0,0,0,0,0,0,0,0,0]","[0,0.03159999999404306,0.06440000000596058,0.09820000001788287,0.13150000000000261,0.16490000000595728,0.19830000001191905,0.2318000000119227,0.2647000000178821,0.29790000000595995,0.3315999999940402,0.3647000000178835,0.3984999999999985,0.4319000000059603,0.46540000000596393,0.4988000000119186,0.5314000000059593,0.5652000000178816,0.59880000001192,0.6317000000178794,0.665200000017883,0.6985999999940375,0.7318000000119227,0.7650999999940424,0.798599999994039,0.8320000000000007,0.8645999999940415,0.8994000000059614,0.9320999999940369,0.9654999999999987,0.9987000000178838,1.0320000000000036,1.0653000000119235,1.0990999999940385,1.1318000000119213,1.1653000000119178,1.1975999999940399,1.2319000000059575,1.2649000000059587,1.2989000000059576,1.3315999999940402,1.3649000000059601,1.398300000011922,1.4315999999940416,1.4649000000059615,1.498400000005958,1.531599999994043,1.564800000011921,1.597900000005957,1.6315999999940374]",11,0,11,0,1,,,,
A999999999,2024-09-12_12h32.12.766,GoFitts,2023.2.3,MacIntel,30.03003003,"[-378.1013174724839,-274.7066870386159]","[312.7241647388573,347.31537104848115]",48,934.7178616,5.32,0,1.6991,0.3652,"[-394.81640625,-394.81640625,-394.81640625,-394.81640625,-394.81640625,-394.81640625,-394.81640625,-394.81640625,-394.81640625,-384.99609375,-369.1484375,-342.890625,-327.625,-311.234375,-300.7734375,-281.33984375,-228.12890625,-122.5234375,40.125,137.67578125,183.72265625,204.234375,213.83203125,220.7109375,228.546875,240.69140625,240.69140625,240.69140625,240.69140625,240.69140625,240.69140625,240.69140625,240.69140625,251.328125,267.140625,284.203125,293.93359375,298.421875,300.08203125,302.16796875,305.74609375,307.83984375,307.83984375,307.83984375,307.83984375,307.83984375,307.83984375,307.83984375,307.83984375,307.83984375,307.83984375,308.5078125,308.5078125,308.5078125,308.5078125,308.5078125,308.5078125,308.5078125,308.7578125,308.7578125,308.7578125,308.7578125,308.7578125,308.7578125,308.7578125,308.7578125,308.7578125,308.7578125]","[-265.171875,-265.171875,-265.171875,-265.171875,-265.171875,-265.171875,-265.171875,-265.171875,-265.171875,-269.37890625,-280.4296875,-302.7890625,-317.38671875,-329.1484375,-334.37890625,-337.24609375,-318.8125,-228.89453125,-69.55859375,44.453125,106.19921875,133.79296875,147.33203125,157.19140625,167.3359375,180.015625,180.015625,180.015625,180.015625,180.015625,180.015625,180.015625,187.6875,213.42578125,235.71875,255.4375,265.4765625,270.12109375,271.94140625,276.41796875,282.54296875,286.7578125,290.296875,295.46875,304.71484375,309.2109375,310.359375,310.6484375,310.6484375,311.2890625,318.328125,327.60546875,334.94140625,337.14453125,337.43359375,337.7109375,337.7109375,337.7109375,337.7109375,337.7109375,337.7109375,337.7109375,337.7109375,337.7109375,337.7109375,337.7109375,337.7109375,337.7109375]","[0,0,0,0,0,0,0,0,0,0,0,0,0,0,0,0,0,0,0,0,0,0,0,0,0,0,0,0,0,0,0,0,0,0,0,0,0,0,0,0,0,0,0,0,0,0,0,0,0,0,0,0,0,0,0,0,0,0,0,0,0,0,0,0,0,0,0,0]","[0,0,0,0,0,0,0,0,0,0,0,0,0,0,0,0,0,0,0,0,0,0,0,0,0,0,0,0,0,0,0,0,0,0,0,0,0,0,0,0,0,0,0,0,0,0,0,0,0,0,0,0,0,0,0,0,0,0,0,0,0,0,0,0,0,0,0,0]","[0,0,0,0,0,0,0,0,0,0,0,0,0,0,0,0,0,0,0,0,0,0,0,0,0,0,0,0,0,0,0,0,0,0,0,0,0,0,0,0,0,0,0,0,0,0,0,0,0,0,0,0,0,0,0,0,0,0,0,0,0,0,0,0,0,0,0,0]","[0,0.03180000001191985,0.06530000001192349,0.0984000000059595,0.13190000000596314,0.16510000002384118,0.19840000000596092,0.2318000000119227,0.26520000001788446,0.29860000002384623,0.33200000000000074,0.36530000001192064,0.39820000001788713,0.4326000000238466,0.4657000000178826,0.4983000000119233,0.5322000000178804,0.5655000000000001,0.5991000000238458,0.6322000000178818,0.6656000000238436,0.6980000000000004,0.7321000000238413,0.7654000000059611,0.7980000000000018,0.8320000000000007,0.865000000000002,0.8983000000119219,0.9316000000238418,0.9651000000238454,0.9976000000238443,1.0316000000238432,1.0654000000059654,1.0984000000059595,1.1318000000119213,1.165200000017883,1.1979000000059656,1.2319999999999993,1.2651000000238426,1.2985000000000042,1.3316000000238475,1.3649000000059601,1.3979000000059614,1.4319000000059603,1.464700000017885,1.4981000000238467,1.5321000000238456,1.5654000000059654,1.5983000000119247,1.6323000000119237,1.6654000000059597,1.6991000000238472,1.731500000000004,1.7653000000119263,1.798700000017881,1.8321000000238428,1.8641000000238463,1.8984000000059638,1.931400000005965,1.9651000000238454,1.9984000000059652,2.031700000017885,2.065100000023847,2.0984000000059595,2.1318000000119213,2.165300000011925,2.1981000000238424,2.2319000000059646]",12,0,12,0,1,,,,
A999999999,2024-09-12_12h32.12.766,GoFitts,2023.2.3,MacIntel,30.03003003,"[312.7241647388573,347.31537104848115]","[-233.6794653891097,-404.74470673947053]",48,934.7178616,5.32,0,1.2656,0.3652,"[308.7578125,308.7578125,308.7578125,308.7578125,308.7578125,308.7578125,308.7578125,308.7578125,308.7578125,308.7578125,308.01953125,286.72265625,231.7421875,126.640625,49.203125,-14.6328125,-66.48828125,-101.5234375,-122.41015625,-140.13671875,-157.9765625,-165.015625,-172.97265625,-183.4296875,-195.43359375,-210.48828125,-226.6171875,-237.68359375,-243.046875,-246.921875,-252.03125,-255.15234375,-256.640625,-256.640625,-256.640625,-256.640625,-256.640625,-256.640625,-255.23828125,-254.546875,-253.09765625,-252.41015625,-252.41015625,-252.41015625,-252.41015625,-252.41015625,-252.41015625,-252.41015625,-252.41015625,-252.41015625,-252.41015625,-252.41015625,-252.41015625,-252.41015625,-252.41015625]","[337.7109375,337.7109375,337.7109375,337.7109375,337.7109375,337.7109375,337.7109375,337.7109375,337.7109375,337.7109375,337.22265625,314.98046875,256.32421875,146.25,56.01953125,-21.546875,-88.1171875,-132.19140625,-165.86328125,-190.78515625,-211.62890625,-222.5703125,-243.81640625,-275.3828125,-300.62109375,-323.0703125,-344.40625,-359.29296875,-367.6015625,-374.66015625,-385.140625,-396.89453125,-405.203125,-407.76953125,-409.28515625,-411.47265625,-412.98828125,-412.98828125,-412.98828125,-412.98828125,-412.98828125,-412.29296875,-412.29296875,-412.29296875,-412.29296875,-412.29296875,-412.29296875,-412.29296875,-412.29296875,-412.29296875,-412.29296875,-412.29296875,-412.29296875,-412.29296875,-412.29296875]","[0,0,0,0,0,0,0,0,0,0,0,0,0,0,0,0,0,0,0,0,0,0,0,0,0,0,0,0,0,0,0,0,0,0,0,0,0,0,0,0,0,0,0,0,0,0,0,0,0,0,0,0,0,0,0]","[0,0,0,0,0,0,0,0,0,0,0,0,0,0,0,0,0,0,0,0,0,0,0,0,0,0,0,0,0,0,0,0,0,0,0,0,0,0,0,0,0,0,0,0,0,0,0,0,0,0,0,0,0,0,0]","[0,0,0,0,0,0,0,0,0,0,0,0,0,0,0,0,0,0,0,0,0,0,0,0,0,0,0,0,0,0,0,0,0,0,0,0,0,0,0,0,0,0,0,0,0,0,0,0,0,0,0,0,0,0,0]","[0,0.031500000000001194,0.06479999998212094,0.09850000000000136,0.13150000000000261,0.16489999997616422,0.19819999998808413,0.23150000000000404,0.26500000000000057,0.2975999999940413,0.33179999998212395,0.3651999999880786,0.3985000000000056,0.43179999998211827,0.4650999999940453,0.4980999999940394,0.5316999999880849,0.5653999999761581,0.5975000000000037,0.6310999999940421,0.6652999999821247,0.6983999999761608,0.731399999976162,0.7648999999761585,0.7985000000000042,0.831799999982124,0.8647999999821181,0.8983999999761636,0.9316999999880835,0.9646999999880848,0.9985999999940418,1.0317999999821197,1.0650999999940396,1.0977999999821222,1.131799999982121,1.1650000000000063,1.1990000000000052,1.230699999988083,1.2656999999880796,1.2976999999880832,1.3307999999821192,1.36489999997616,1.3981999999880799,1.4314999999999998,1.4647999999821195,1.4980000000000047,1.5315000000000012,1.5648999999761628,1.5985000000000014,1.6306999999880816,1.6650000000000063,1.697399999976163,1.731500000000004,1.7647999999821238,1.7982999999821203]",13,0,13,0,1,,,,
A999999999,2024-09-12_12h32.12.766,GoFitts,2023.2.3,MacIntel,30.03003003,"[-233.6794653891097,-404.74470673947053]","[144.42185208337438,444.4847565653608]",48,934.7178616,5.32,0,1.2657,0.3987,"[-252.41015625,-252.41015625,-252.41015625,-252.41015625,-252.41015625,-252.41015625,-252.41015625,-252.41015625,-252.41015625,-252.41015625,-252.41015625,-252.41015625,-216.0859375,-76.9140625,54.41796875,144.87109375,200.078125,217.0625,226.2578125,230.11328125,232.7265625,235.10546875,237.625,238.52734375,237.8515625,224.26171875,207.640625,199.59375,197.578125,195.99609375,190.83203125,184.70703125,181.83203125,181.44921875,180.37109375,176.16796875,167.73046875,160.21875,158.015625,157.69921875,157.69921875,157.69921875,156.40625,153.2421875,150.3671875,149.984375,149.984375,149.984375,149.984375,149.984375,149.984375,149.984375,149.984375,149.984375,149.984375]","[-412.29296875,-412.29296875,-412.29296875,-412.29296875,-412.29296875,-412.29296875,-412.29296875,-412.29296875,-412.29296875,-412.29296875,-412.29296875,-412.05078125,-370.7109375,-165.0078125,112.91015625,347.93359375,491.92578125,540,540,540,540,540,540,540,540,534.8359375,518.5234375,503.41015625,495.11328125,489.96875,486.015625,482.4375,480.25390625,479.9453125,479.1875,476.5703125,470.14453125,464.51171875,462.32421875,461.56640625,461.1875,461.1875,459.125,454.921875,451.015625,449.87890625,449.87890625,449.87890625,449.87890625,449.87890625,449.87890625,449.87890625,449.87890625,449.87890625,449.87890625]","[0,0,0,0,0,0,0,0,0,0,0,0,0,0,0,0,0,0,0,0,0,0,0,0,0,0,0,0,0,0,0,0,0,0,0,0,0,0,0,0,0,0,0,0,0,0,0,0,0,0,0,0,0,0,0]","[0,0,0,0,0,0,0,0,0,0,0,0,0,0,0,0,0,0,0,0,0,0,0,0,0,0,0,0,0,0,0,0,0,0,0,0,0,0,0,0,0,0,0,0,0,0,0,0,0,0,0,0,0,0,0]","[0,0,0,0,0,0,0,0,0,0,0,0,0,0,0,0,0,0,0,0,0,0,0,0,0,0,0,0,0,0,0,0,0,0,0,0,0,0,0,0,0,0,0,0,0,0,0,0,0,0,0,0,0,0,0]","[0,0.03100000000000591,0.06490000000596297,0.09759999999404556,0.13169999998807924,0.165099999994041,0.19840000000596092,0.23100000000000165,0.26509999999404243,0.29769999998808316,0.3316999999880821,0.36530000001192775,0.3990000000000009,0.4321999999880859,0.4650999999940453,0.49900000000000233,0.5324000000059641,0.565599999994042,0.5986999999880851,0.6319000000059631,0.6653000000119249,0.6984000000059609,0.7320000000000064,0.7646999999880819,0.7986999999880808,0.8313000000119217,0.8645000000000067,0.8988000000119243,0.932099999994044,0.9654000000059639,0.9988000000119257,1.0315000000000012,1.0650000000000048,1.0984000000059666,1.1315999999940445,1.1646999999880805,1.1981999999880841,1.2309000000059669,1.2658000000119216,1.2988000000119229,1.3320000000000007,1.3640999999940462,1.3979000000059614,1.4314999999999998,1.4655000000000058,1.4989000000059605,1.531800000011927,1.5643000000119258,1.5985000000000014,1.6309000000059655,1.6651999999880829,1.6983000000119262,1.7319000000059646,1.7650000000000006,1.798599999994046]",14,0,14,0,1,,,,
A999999999,2024-09-12_12h32.12.766,GoFitts,2023.2.3,MacIntel,30.03003003,,,,,,0,,,,,,,,,,,,,,0,0,0,1
A999999999,2024-09-12_12h32.12.766,GoFitts,2023.2.3,MacIntel,30.03003003,"[-38.63671875,127.921875]","[-136.020597762624,235.59458620075443]",42,544.0823911,4.75,1,1.0979,0.5316,"[-38.63671875,-38.63671875,-38.63671875,-38.63671875,-38.63671875,-38.63671875,-38.63671875,-38.63671875,-38.63671875,-38.63671875,-38.63671875,-38.63671875,-38.63671875,-38.63671875,-38.63671875,-38.63671875,-59.0234375,-91.98046875,-111.7109375,-116.828125,-119.50390625,-122.1875,-127.25390625,-131.44921875,-133.94140625,-136.5625,-138.5234375,-139.2890625,-139.2890625,-139.56640625,-139.56640625,-139.56640625,-139.56640625,-139.56640625,-139.56640625,-139.56640625,-139.56640625,-139.56640625,-139.56640625,-139.56640625,-139.56640625,-139.56640625,-139.56640625,-139.56640625,-139.56640625,-139.56640625,-139.56640625,-139.56640625,-139.56640625,-139.56640625]","[127.921875,127.921875,127.921875,127.921875,127.921875,127.921875,127.921875,127.921875,127.921875,127.921875,127.921875,127.921875,127.921875,127.921875,127.921875,127.921875,131.5234375,145.43359375,161.5625,170.01953125,178.296875,186.328125,193.39453125,197.58984375,201.13671875,205.33984375,208.203125,209.3515625,209.66796875,209.9453125,209.9453125,211.9609375,214.8359375,216.5859375,216.875,216.875,217.1328125,217.1328125,217.1328125,217.38671875,217.38671875,217.38671875,217.38671875,217.38671875,217.38671875,217.38671875,217.38671875,217.38671875,217.38671875,217.38671875]","[0,0,0,0,0,0,0,0,0,0,0,0,0,0,0,0,0,0,0,0,0,0,0,0,0,0,0,0,0,0,0,0,0,0,0,0,0,0,0,0,0,0,0,0,0,0,0,0,0,0]","[0,0,0,0,0,0,0,0,0,0,0,0,0,0,0,0,0,0,0,0,0,0,0,0,0,0,0,0,0,0,0,0,0,0,0,0,0,0,0,0,0,0,0,0,0,0,0,0,0,0]","[0,0,0,0,0,0,0,0,0,0,0,0,0,0,0,0,0,0,0,0,0,0,0,0,0,0,0,0,0,0,0,0,0,0,0,0,0,0,0,0,0,0,0,0,0,0,0,0,0,0]","[0,0.031099999994040672,0.06440000000596058,0.09719999998808504,0.1310999999940421,0.16390000000596672,0.19780000001192377,0.23080000001192502,0.2645000000000053,0.2978000000119252,0.3311999999880797,0.36459999999404147,0.3980999999940451,0.4305000000000021,0.4640999999940405,0.49780000001192093,0.531800000011927,0.5648000000119211,0.5980999999940408,0.6310999999940421,0.6645999999940457,0.6974000000059632,0.731500000000004,0.7646999999880819,0.7981999999880856,0.8309000000059612,0.8650999999940439,0.8984000000059638,0.931400000005965,0.9648000000119268,0.9979000000059628,1.0310999999940407,1.0645000000000024,1.0979000000059642,1.131300000011926,1.1636999999880828,1.1980000000000004,1.2305999999940411,1.2645000000000053,1.2974999999999994,1.3311999999880797,1.3644999999999996,1.3978000000119266,1.4310999999940393,1.4644000000059663,1.4979000000059628,1.531000000000006,1.5645000000000024,1.5978000000119224,1.6305999999940397]",0,0,0,0,1,,,,
A999999999,2024-09-12_12h32.12.766,GoFitts,2023.2.3,MacIntel,30.03003003,"[-136.020597762624,235.59458620075443]","[182.03109011639805,-202.16600677127212]",42,544.0823911,4.75,1,1.2666,0.3329,"[-139.56640625,-139.56640625,-139.56640625,-139.56640625,-139.56640625,-139.56640625,-139.56640625,-139.56640625,-139.56640625,-139.56640625,-125.4765625,-97.0078125,-48.6484375,-2.640625,35.3046875,58.2734375,85.34375,103.94140625,115.44921875,124.08984375,138.75,148.24609375,152.34375,153.859375,154.6171875,155.66015625,157.17578125,159.5078125,161.16796875,162.3046875,163.375,164.890625,166.40625,168.30078125,169.81640625,170.50390625,170.77734375,171.53515625,173.05078125,173.80859375,174.1171875,174.1171875,174.1171875,174.1171875,174.1171875,174.1171875,174.1171875,174.1171875,174.1171875,174.1171875,174.1171875,174.1171875,174.1171875,174.1171875,174.1171875]","[217.38671875,217.38671875,217.38671875,217.38671875,217.38671875,217.38671875,217.38671875,217.38671875,217.38671875,216.140625,184.86328125,123.44140625,50.953125,-10.85546875,-58.8046875,-81.625,-99.9375,-111.38671875,-119.640625,-129.23828125,-149.35546875,-161.43359375,-164.72265625,-165.48046875,-165.85546875,-166.8984375,-168.4140625,-171.2734375,-173.4609375,-174.59765625,-175.2890625,-176.046875,-177.5625,-179.45703125,-180.59375,-180.97265625,-180.97265625,-182.10546875,-183.62109375,-184.7578125,-184.7578125,-184.7578125,-184.7578125,-184.7578125,-184.7578125,-184.7578125,-184.7578125,-184.7578125,-184.7578125,-184.7578125,-184.7578125,-184.7578125,-184.7578125,-184.7578125,-184.7578125]","[0,0,0,0,0,0,0,0,0,0,0,0,0,0,0,0,0,0,0,0,0,0,0,0,0,0,0,0,0,0,0,0,0,0,0,0,0,0,0,0,0,0,0,0,0,0,0,0,0,0,0,0,0,0,0]","[0,0,0,0,0,0,0,0,0,0,0,0,0,0,0,0,0,0,0,0,0,0,0,0,0,0,0,0,0,0,0,0,0,0,0,0,0,0,0,0,0,0,0,0,0,0,0,0,0,0,0,0,0,0,0]","[0,0,0,0,0,0,0,0,0,0,0,0,0,0,0,0,0,0,0,0,0,0,0,0,0,0,0,0,0,0,0,0,0,0,0,0,0,0,0,0,0,0,0,0,0,0,0,0,0,0,0,0,0,0,0]","[0,0.03249999999999886,0.06590000000596064,0.09909999999403851,0.13250000000000028,0.1658000000119202,0.19840000000596092,0.23240000000595984,0.26599999999999824,0.2996999999880785,0.33290000000595654,0.3661999999880763,0.39940000000596143,0.4320999999940369,0.4660000000000011,0.499300000011921,0.5330000000000013,0.5664999999999978,0.5993000000119224,0.6329999999999956,0.6654000000059597,0.6993000000119167,0.7315999999940388,0.7661999999880749,0.7994999999999948,0.8330999999940403,0.8661999999880763,0.8994999999999962,0.9328000000119161,0.9661999999880777,0.9999000000059581,1.0330000000000013,1.0655999999940349,1.0996999999880757,1.1329000000059608,1.1655999999940363,1.1994000000059586,1.2328000000119204,1.2665999999940354,1.2991999999880761,1.3320000000000007,1.3659000000059578,1.398300000011922,1.4324000000059556,1.4658000000119173,1.499099999994037,1.5316999999880778,1.5659000000059606,1.5990999999940385,1.6325000000000003,1.6656999999880782,1.69909999999404,1.7319000000059575,1.7658000000119216,1.798599999994039]",1,0,1,0,1,,,,
A999999999,2024-09-12_12h32.12.766,GoFitts,2023.2.3,MacIntel,30.03003003,"[182.03109011639805,-202.16600677127212]","[-220.0859503500036,159.901802745754]",42,544.0823911,4.75,1,0.8999,0.332,"[174.1171875,174.1171875,174.1171875,174.1171875,174.1171875,174.1171875,174.1171875,174.1171875,174.1171875,174.1171875,152.34375,72.04296875,-6.73046875,-78.69140625,-135.6875,-173.46875,-196.74609375,-208.27734375,-216.73828125,-227.50390625,-232.578125,-235.7890625,-239.14453125,-241.9140625,-242.44140625,-242.44140625,-241.75390625,-238.2265625,-234.6953125,-233.1796875,-232.421875,-232.421875,-232.421875,-232.421875,-232.421875,-232.421875,-232.421875,-232.421875,-232.421875,-232.421875,-232.421875,-232.421875,-232.421875,-232.421875]","[-184.7578125,-184.7578125,-184.7578125,-184.7578125,-184.7578125,-184.7578125,-184.7578125,-184.7578125,-184.7578125,-184.7578125,-175.38671875,-126.80859375,-64.5078125,3.32421875,55.09375,84.84765625,101.51171875,109.79296875,115.58203125,123.38671875,129.796875,136.875,144.90625,150.05078125,152.25390625,153.3359375,154.02734375,154.5546875,154.5546875,154.5546875,154.5546875,154.5546875,154.5546875,154.5546875,154.5546875,154.5546875,154.5546875,154.5546875,154.5546875,154.5546875,154.5546875,154.5546875,154.5546875,154.5546875]","[0,0,0,0,0,0,0,0,0,0,0,0,0,0,0,0,0,0,0,0,0,0,0,0,0,0,0,0,0,0,0,0,0,0,0,0,0,0,0,0,0,0,0,0]","[0,0,0,0,0,0,0,0,0,0,0,0,0,0,0,0,0,0,0,0,0,0,0,0,0,0,0,0,0,0,0,0,0,0,0,0,0,0,0,0,0,0,0,0]","[0,0,0,0,0,0,0,0,0,0,0,0,0,0,0,0,0,0,0,0,0,0,0,0,0,0,0,0,0,0,0,0,0,0,0,0,0,0,0,0,0,0,0,0]","[0.0000999999940418661,0.03249999999999886,0.06580000001191877,0.0984000000059595,0.13150000000000261,0.1658000000119202,0.19840000000596092,0.23230000001192508,0.2656999999880796,0.29909999999404135,0.3320999999940426,0.3661999999880834,0.3988000000119243,0.4328000000119232,0.46540000000596393,0.49969999998808134,0.5324000000059641,0.5659000000059606,0.5989000000059619,0.6326999999880769,0.6660000000000039,0.6989999999999981,0.7316999999880807,0.7659000000059635,0.7993000000119252,0.8325999999940379,0.8659999999999997,0.8999000000059638,0.9319000000059603,0.9661999999880777,0.9994000000059629,1.0325999999940407,1.0656999999880767,1.0990000000000038,1.1324000000059584,1.1658000000119202,1.198300000011919,1.232300000011925,1.2655999999940377,1.2991999999880832,1.3324000000059613,1.365800000011923,1.399000000000001,1.4324999999999974]",2,0,2,0,1,,,,
A999999999,2024-09-12_12h32.12.766,GoFitts,2023.2.3,MacIntel,30.03003003,"[-220.0859503500036,159.901802745754]","[248.52199846375308,-110.6491226462668]",42,544.0823911,4.75,1,1.1996,0.3987,"[-232.421875,-232.421875,-232.421875,-232.421875,-232.421875,-232.421875,-232.421875,-232.421875,-232.421875,-232.421875,-228.44140625,-203.7890625,-156.3984375,-75.32421875,-1.51171875,59.67578125,97.40234375,118.4296875,140.375,164.50390625,186.3359375,204.78125,216.7578125,227.03125,238.78515625,250.5,258.515625,264.62109375,269.19921875,270.71484375,271.47265625,271.47265625,270.9453125,268.703125,266.07421875,263.5859375,262.0546875,261.765625,261.765625,261.765625,261.5078125,261.5078125,261.5078125,261.5078125,261.5078125,261.5078125,261.5078125,261.5078125,261.5078125,261.5078125,261.5078125,261.5078125,261.5078125]","[154.5546875,154.5546875,154.5546875,154.5546875,154.5546875,154.5546875,154.5546875,154.5546875,154.5546875,154.5546875,154.5546875,152.3515625,140.89453125,115.0546875,74.77734375,26.6875,-11.0390625,-32.87890625,-54.68359375,-80.18359375,-110.484375,-134.44921875,-149.2890625,-157.265625,-159.55859375,-159.55859375,-157.54296875,-155.67578125,-154.23828125,-152.70703125,-149.8359375,-144.6640625,-139.5,-134.35546875,-130.14453125,-126.60546875,-125.45703125,-125.07421875,-125.07421875,-125.07421875,-125.07421875,-124.78515625,-124.78515625,-124.78515625,-124.78515625,-124.78515625,-124.78515625,-124.78515625,-124.78515625,-124.78515625,-124.78515625,-124.78515625,-124.78515625]","[0,0,0,0,0,0,0,0,0,0,0,0,0,0,0,0,0,0,0,0,0,0,0,0,0,0,0,0,0,0,0,0,0,0,0,0,0,0,0,0,0,0,0,0,0,0,0,0,0,0,0,0,0]","[0,0,0,0,0,0,0,0,0,0,0,0,0,0,0,0,0,0,0,0,0,0,0,0,0,0,0,0,0,0,0,0,0,0,0,0,0,0,0,0,0,0,0,0,0,0,0,0,0,0,0,0,0]","[0,0,0,0,0,0,0,0,0,0,0,0,0,0,0,0,0,0,0,0,0,0,0,0,0,0,0,0,0,0,0,0,0,0,0,0,0,0,0,0,0,0,0,0,0,0,0,0,0,0,0,0,0]","[0,0.031900000005961715,0.06490000000595586,0.09740000000596183,0.13169999998807924,0.164400000005962,0.19849999999999568,0.23179999998211542,0.26509999999403533,0.2975999999940413,0.33200000000000074,0.3654000000059625,0.398799999982117,0.4324000000059556,0.46559999999404056,0.4989999999999952,0.5320999999940383,0.5650999999940396,0.5985999999940361,0.6312999999821187,0.6654000000059597,0.6986999999880794,0.7322999999821178,0.7654000000059611,0.7980999999940366,0.8314999999999984,0.8655999999940391,0.8986999999880751,0.9320999999940369,0.9654999999999987,0.9986999999880766,1.0312999999821173,1.0641999999880767,1.0984000000059595,1.1320999999940398,1.1655000000000015,1.1995999999940352,1.2320999999940412,1.2651999999880772,1.2984000000059623,1.3320000000000007,1.3654999999999973,1.3984000000059567,1.4309000000059555,1.4641999999880753,1.497599999994037,1.5319000000059617,1.5642999999821185,1.5985999999940361,1.631799999982114,1.6651999999880758,1.6986999999880794,1.7319999999999993]",3,0,3,0,1,,,,
A999999999,2024-09-12_12h32.12.766,GoFitts,2023.2.3,MacIntel,30.03003003,"[248.52199846375308,-110.6491226462668]","[-266.09644270377754,56.56054493373899]",42,544.0823911,4.75,1,0.9328,0.2988,"[261.5078125,261.5078125,261.5078125,261.5078125,261.5078125,261.5078125,261.5078125,261.5078125,256.47265625,221.00390625,165.10546875,97.46484375,41.87109375,-0.3203125,-27.5703125,-47.03515625,-59.546875,-71.31640625,-91.35546875,-109.57421875,-127.10546875,-153.8984375,-178.54296875,-197.6640625,-210.6171875,-221.12109375,-234.13671875,-243.4140625,-246.66015625,-250.20703125,-256.33203125,-261.48046875,-263.68359375,-264.37890625,-264.65625,-264.65625,-264.65625,-264.65625,-264.65625,-264.65625,-264.65625,-264.65625,-264.65625,-264.65625,-264.65625]","[-124.78515625,-124.78515625,-124.78515625,-124.78515625,-124.78515625,-124.78515625,-124.78515625,-124.78515625,-124.78515625,-112.03125,-88.859375,-63.609375,-41.984375,-25.69140625,-16.88671875,-9.2109375,-2.609375,1.32421875,4.20703125,9.01171875,16.35546875,26.4453125,36.0859375,43.73828125,47.78515625,51.56640625,55.64453125,57.8046875,58.5703125,58.5703125,58.5703125,58.5703125,58.5703125,58.19140625,58.19140625,58.19140625,58.19140625,58.19140625,58.19140625,58.19140625,58.19140625,58.19140625,58.19140625,58.19140625,58.19140625]","[0,0,0,0,0,0,0,0,0,0,0,0,0,0,0,0,0,0,0,0,0,0,0,0,0,0,0,0,0,0,0,0,0,0,0,0,0,0,0,0,0,0,0,0,0]","[0,0,0,0,0,0,0,0,0,0,0,0,0,0,0,0,0,0,0,0,0,0,0,0,0,0,0,0,0,0,0,0,0,0,0,0,0,0,0,0,0,0,0,0,0]","[0,0,0,0,0,0,0,0,0,0,0,0,0,0,0,0,0,0,0,0,0,0,0,0,0,0,0,0,0,0,0,0,0,0,0,0,0,0,0,0,0,0,0,0,0]","[0,0.031500000000001194,0.06450000000000244,0.0981999999880756,0.13169999998807924,0.16519999998807577,0.1980000000000004,0.23169999998808066,0.2651999999880772,0.2987999999821156,0.331699999988075,0.36440000000595774,0.39869999998807515,0.4321999999880788,0.4654000000059568,0.4979000000059628,0.5319999999999965,0.5652999999821162,0.5982999999821175,0.6319000000059631,0.6652999999821176,0.6984999999999957,0.7319999999999993,0.7650999999940353,0.7986999999880808,0.8320000000000007,0.8654000000059625,0.898799999982117,0.9327999999821159,0.9649999999999963,0.9984999999999999,1.0316999999880778,1.0651999999880815,1.0981999999880756,1.1319000000059631,1.1649000000059573,1.198400000005961,1.2306999999880759,1.2650000000000006,1.2974000000059576,1.331699999988075,1.3649000000059601,1.3981999999880799,1.4306999999880787,1.46519999998808]",4,0,4,0,1,,,,
A999999999,2024-09-12_12h32.12.766,GoFitts,2023.2.3,MacIntel,30.03003003,"[-266.09644270377754,56.56054493373899]","[272.0411955252481,0]",42,544.0823911,4.75,1,1.7661,0.3315,"[-264.65625,-264.65625,-264.65625,-264.65625,-264.65625,-264.65625,-264.65625,-264.65625,-264.65625,-259.1328125,-225.37890625,-133.859375,-59.58203125,2.05078125,52.12109375,99.375,131.17578125,157.63671875,186.48046875,222.22265625,245.31640625,264.47265625,277.4375,285.453125,290.03515625,292.22265625,293.359375,293.6328125,293.6328125,293.6328125,293.6328125,293.6328125,293.6328125,293.6328125,293.6328125,293.6328125,293.6328125,293.6328125,293.6328125,293.6328125,293.6328125,293.6328125,293.6328125,293.6328125,293.6328125,293.6328125,293.390625,292.6953125,292.6953125,292.6953125,292.6953125,292.6953125,292.6953125,285.609375,277.3125,275.109375,275.109375,275.109375,275.109375,275.109375,275.109375,275.109375,275.109375,275.109375,275.109375,275.109375,275.109375,275.109375,275.109375,275.109375]","[58.19140625,58.19140625,58.19140625,58.19140625,58.19140625,58.19140625,58.19140625,58.19140625,58.19140625,58.19140625,55.40234375,46.65625,41.29296875,36.3671875,30.5,23.39453125,17.4765625,10.8671875,5.0546875,0.0859375,-1.01171875,-2.92578125,-5.3515625,-8.0234375,-10.49609375,-11.3984375,-11.77734375,-11.77734375,-11.77734375,-11.77734375,-11.77734375,-11.77734375,-11.77734375,-11.77734375,-11.77734375,-11.77734375,-11.77734375,-11.77734375,-11.77734375,-11.77734375,-11.77734375,-11.77734375,-11.77734375,-11.77734375,-11.77734375,-11.77734375,-11.77734375,-11.77734375,-11.77734375,-11.77734375,-11.77734375,-11.77734375,-11.77734375,-10.9609375,-8.9453125,-8.5625,-8.5625,-8.5625,-8.5625,-8.5625,-8.5625,-8.5625,-8.5625,-8.5625,-8.5625,-8.5625,-8.5625,-8.5625,-8.5625,-8.5625]","[0,0,0,0,0,0,0,0,0,0,0,0,0,0,0,0,0,0,0,0,0,0,0,0,0,0,0,0,0,0,0,0,0,0,0,0,0,0,0,0,0,0,0,0,0,0,0,0,0,0,0,0,0,0,0,0,0,0,0,0,0,0,0,0,0,0,0,0,0,0]","[0,0,0,0,0,0,0,0,0,0,0,0,0,0,0,0,0,0,0,0,0,0,0,0,0,0,0,0,0,0,0,0,0,0,0,0,0,0,0,0,0,0,0,0,0,0,0,0,0,0,0,0,0,0,0,0,0,0,0,0,0,0,0,0,0,0,0,0,0,0]","[0,0,0,0,0,0,0,0,0,0,0,0,0,0,0,0,0,0,0,0,0,0,0,0,0,0,0,0,0,0,0,0,0,0,0,0,0,0,0,0,0,0,0,0,0,0,0,0,0,0,0,0,0,0,0,0,0,0,0,0,0,0,0,0,0,0,0,0,0,0]","[0,0.03080000001192218,0.06509999999403959,0.09830000001192474,0.13169999998807924,0.165099999994041,0.19850000000000279,0.2318000000119227,0.2651999999880772,0.2989000000059576,0.33149999999999835,0.3654000000059625,0.3985999999940404,0.43180000001191843,0.46440000000595916,0.49869999998807657,0.5316999999880778,0.5654000000059582,0.59880000001192,0.6321999999880816,0.6654000000059597,0.6994000000059586,0.7313000000119203,0.765500000000003,0.7986999999880808,0.8325000000000031,0.8654000000059625,0.8988000000119243,0.9318000000119184,0.9649000000059615,0.9984999999999999,1.0318000000119198,1.0641999999880767,1.0984000000059595,1.131999999999998,1.1646999999880805,1.198400000005961,1.2316999999880807,1.2650999999940424,1.2988000000119229,1.3318000000119241,1.3651999999880786,1.3984999999999985,1.4319000000059603,1.4650999999940382,1.4986999999880766,1.5315000000000012,1.5656999999880767,1.5975999999940385,1.6318000000119213,1.6651999999880829,1.6985999999940375,1.730699999988083,1.76609999999404,1.7988000000119229,1.8323000000119194,1.8650999999940368,1.8984999999999985,1.9315999999940416,1.96519999998808,1.9985,2.0319000000059617,2.0643000000119187,2.0985000000000014,2.1318000000119213,2.165099999994041,2.198500000000003,2.235199999988076,2.2649000000059587,2.298499999999997]",5,0,5,0,1,,,,
A999999999,2024-09-12_12h32.12.766,GoFitts,2023.2.3,MacIntel,30.03003003,"[272.0411955252481,0]","[-266.09644270377754,-56.560544933738925]",42,544.0823911,4.75,1,0.5666,0.3658,"[275.109375,275.109375,275.109375,275.109375,275.109375,275.109375,275.109375,275.109375,275.109375,275.109375,255.96875,168.9375,46.359375,-103.9375,-190.71484375,-226.61328125,-253.34765625,-270.98046875,-275.453125,-276.6015625,-276.6015625,-276.6015625,-276.6015625,-276.6015625,-276.6015625,-276.6015625,-276.6015625,-276.6015625,-276.6015625,-276.6015625,-276.6015625,-276.6015625,-276.6015625,-276.6015625]","[-8.5625,-8.5625,-8.5625,-8.5625,-8.5625,-8.5625,-8.5625,-8.5625,-8.5625,-8.5625,-6.375,2.7734375,2.7734375,-8.58984375,-28.5,-34.7265625,-38.16796875,-40.89453125,-41.41796875,-41.41796875,-41.68359375,-41.68359375,-41.94140625,-42.5859375,-44.7734375,-47.625,-48.76171875,-48.76171875,-48.76171875,-48.76171875,-48.76171875,-48.76171875,-48.76171875,-48.76171875]","[0,0,0,0,0,0,0,0,0,0,0,0,0,0,0,0,0,0,0,0,0,0,0,0,0,0,0,0,0,0,0,0,0,0]","[0,0,0,0,0,0,0,0,0,0,0,0,0,0,0,0,0,0,0,0,0,0,0,0,0,0,0,0,0,0,0,0,0,0]","[0,0,0,0,0,0,0,0,0,0,0,0,0,0,0,0,0,0,0,0,0,0,0,0,0,0,0,0,0,0,0,0,0,0]","[0,0.03209999999403834,0.06519999998808146,0.09869999998807799,0.13159999999403738,0.1653999999761595,0.1986999999880794,0.23209999999404118,0.26529999998211906,0.2987999999821227,0.33229999998211923,0.36579999998212287,0.3990999999940428,0.4323999999761625,0.46539999997615666,0.49900000000000233,0.5318999999761616,0.5667999999821163,0.598699999988078,0.6322999999821164,0.6656999999880782,0.6987999999821213,0.7322999999821178,0.7653999999761609,0.7988999999761575,0.8322999999821192,0.8657999999821229,0.898799999982117,0.9320999999940369,0.9653999999761567,0.9986999999880766,1.0320000000000036,1.0655000000000001,1.098699999988078]",6,0,6,0,1,,,,
A999999999,2024-09-12_12h32.12.766,GoFitts,2023.2.3,MacIntel,30.03003003,"[-266.09644270377754,-56.560544933738925]","[248.52199846375305,110.6491226462668]",42,544.0823911,4.75,1,1.0322,0.4327,"[-276.6015625,-276.6015625,-276.6015625,-276.6015625,-276.6015625,-276.6015625,-276.6015625,-276.6015625,-276.6015625,-276.6015625,-276.6015625,-276.6015625,-260.75,-230.015625,-166.24609375,-116.11328125,-79.078125,-52.76171875,-23.91796875,1.82421875,18.43359375,31.43359375,47.51171875,68.7265625,93.37890625,118.03125,140.73046875,159.88671875,179.03125,200.60546875,220.046875,237.578125,243.015625,244.15234375,244.15234375,244.15234375,244.15234375,244.15234375,244.15234375,244.15234375,244.15234375,244.15234375,244.15234375,244.15234375,244.15234375,244.15234375,244.15234375,244.15234375]","[-48.76171875,-48.76171875,-48.76171875,-48.76171875,-48.76171875,-48.76171875,-48.76171875,-48.76171875,-48.76171875,-48.76171875,-48.76171875,-48.76171875,-46.26171875,-33.23828125,-5.59375,16.546875,31.2109375,42.17578125,55.80078125,66.671875,75.93359375,82.44921875,87.91796875,91.890625,95.20703125,98.5234375,101.26171875,103.18359375,105.10546875,105.10546875,105.10546875,105.10546875,105.10546875,105.10546875,105.10546875,105.10546875,105.10546875,105.10546875,105.10546875,105.10546875,105.10546875,105.10546875,105.10546875,105.10546875,105.10546875,105.10546875,105.10546875,105.10546875]","[0,0,0,0,0,0,0,0,0,0,0,0,0,0,0,0,0,0,0,0,0,0,0,0,0,0,0,0,0,0,0,0,0,0,0,0,0,0,0,0,0,0,0,0,0,0,0,0]","[0,0,0,0,0,0,0,0,0,0,0,0,0,0,0,0,0,0,0,0,0,0,0,0,0,0,0,0,0,0,0,0,0,0,0,0,0,0,0,0,0,0,0,0,0,0,0,0]","[0,0,0,0,0,0,0,0,0,0,0,0,0,0,0,0,0,0,0,0,0,0,0,0,0,0,0,0,0,0,0,0,0,0,0,0,0,0,0,0,0,0,0,0,0,0,0,0]","[0,0.03160000002384322,0.06540000000595825,0.098100000023841,0.13210000002383993,0.16550000000000153,0.19850000000000279,0.23140000000596217,0.26520000001788446,0.298700000017881,0.33100000000000307,0.365100000023844,0.39940000000596143,0.43270000001788134,0.46530000001192207,0.49799999999999756,0.5321000000238385,0.5653000000119235,0.5991000000238387,0.6318000000119213,0.6659000000059621,0.6993000000119238,0.7321000000238413,0.7654000000059611,0.7989999999999995,0.8320000000000007,0.8659000000059578,0.8987000000178824,0.9324999999999974,0.9654999999999987,0.9990000000000023,1.0322000000178804,1.0656000000238421,1.0989999999999966,1.13210000002384,1.1654000000059597,1.1988000000119214,1.2319000000059575,1.265400000005961,1.2988000000119229,1.3321000000238428,1.3648000000119183,1.3987000000178824,1.4321000000238442,1.4654999999999987,1.4987000000178838,1.5321000000238385,1.564900000005963]",7,0,7,0,1,,,,
A999999999,2024-09-12_12h32.12.766,GoFitts,2023.2.3,MacIntel,30.03003003,"[248.52199846375305,110.6491226462668]","[-220.08595035000366,-159.90180274575394]",42,544.0823911,4.75,1,0.8331,0.3662,"[244.15234375,244.15234375,244.15234375,244.15234375,244.15234375,244.15234375,244.15234375,244.15234375,244.15234375,244.15234375,243.16796875,213.66015625,151.25,67.98828125,7.61328125,-33.44140625,-55.61328125,-72.25390625,-85.8515625,-99.44921875,-116.86328125,-127.8203125,-145.734375,-168.453125,-191.2890625,-207.375,-220.390625,-225.5625,-226.7109375,-227,-227,-227,-227,-227,-227,-227,-227,-227,-227,-227,-227,-227]","[105.10546875,105.10546875,105.10546875,105.10546875,105.10546875,105.10546875,105.10546875,105.10546875,105.10546875,105.10546875,105.10546875,85.3046875,43.56640625,-13.203125,-56.578125,-84.44921875,-97.25,-106.51171875,-114.2578125,-122.00390625,-132.61328125,-139.63671875,-147.29296875,-155.49609375,-162.78125,-168.23046875,-170.66796875,-171.3359375,-171.3359375,-171.3359375,-171.3359375,-171.3359375,-171.3359375,-171.3359375,-171.3359375,-171.3359375,-171.3359375,-171.3359375,-171.3359375,-171.3359375,-171.3359375,-171.3359375]","[0,0,0,0,0,0,0,0,0,0,0,0,0,0,0,0,0,0,0,0,0,0,0,0,0,0,0,0,0,0,0,0,0,0,0,0,0,0,0,0,0,0]","[0,0,0,0,0,0,0,0,0,0,0,0,0,0,0,0,0,0,0,0,0,0,0,0,0,0,0,0,0,0,0,0,0,0,0,0,0,0,0,0,0,0]","[0,0,0,0,0,0,0,0,0,0,0,0,0,0,0,0,0,0,0,0,0,0,0,0,0,0,0,0,0,0,0,0,0,0,0,0,0,0,0,0,0,0]","[0,0.032400000005957,0.06590000000596064,0.09909999999403851,0.13240000000595842,0.16590000000596206,0.19850000000000279,0.2325000000000017,0.26480000001191684,0.2989999999999995,0.3328000000119218,0.3661999999880763,0.39869999998807515,0.4316999999880764,0.4659000000059592,0.49940000000596285,0.5328000000119175,0.566400000005963,0.599499999999999,0.6323000000119237,0.6661999999880805,0.6994000000059586,0.7320999999940412,0.7660999999940401,0.7995000000000019,0.8330999999940403,0.8653000000119206,0.8993000000119196,0.9326999999880812,0.96519999998808,0.999199999988079,1.0324999999999989,1.0658000000119188,1.0990999999940385,1.1315999999940374,1.1658000000119202,1.19909999999404,1.2325000000000017,1.2658000000119216,1.2991999999880761,1.3324000000059613,1.3659000000059578]",8,0,8,0,1,,,,
A999999999,2024-09-12_12h32.12.766,GoFitts,2023.2.3,MacIntel,30.03003003,"[-220.08595035000366,-159.90180274575394]","[182.03109011639796,202.16600677127218]",42,544.0823911,4.75,1,0.7991,0.3323,"[-227,-227,-227,-227,-227,-227,-227,-227,-227,-208.7421875,-160.390625,-103.45703125,-50.8515625,-9.4375,20.1640625,41.03515625,64.2734375,79.9453125,93.34375,105.78125,122.35546875,137.21484375,150.76953125,160.5546875,163.41015625,164.546875,166.66796875,168.18359375,168.84765625,168.84765625,168.84765625,168.84765625,168.84765625,168.84765625,168.84765625,168.84765625,168.84765625,168.84765625,168.84765625,168.84765625,168.84765625]","[-171.3359375,-171.3359375,-171.3359375,-171.3359375,-171.3359375,-171.3359375,-171.3359375,-171.3359375,-171.3359375,-159.24609375,-117.4609375,-64.19140625,-16.5,17.70703125,42.328125,58.53125,79.58203125,96.90234375,112.23828125,127.57421875,150.7265625,170.0078125,185.640625,192.4921875,193.92578125,194.30859375,195.07421875,196.22265625,196.51171875,196.51171875,196.51171875,196.51171875,196.51171875,196.51171875,196.51171875,196.51171875,196.51171875,196.51171875,196.51171875,196.51171875,196.51171875]","[0,0,0,0,0,0,0,0,0,0,0,0,0,0,0,0,0,0,0,0,0,0,0,0,0,0,0,0,0,0,0,0,0,0,0,0,0,0,0,0,0]","[0,0,0,0,0,0,0,0,0,0,0,0,0,0,0,0,0,0,0,0,0,0,0,0,0,0,0,0,0,0,0,0,0,0,0,0,0,0,0,0,0]","[0,0,0,0,0,0,0,0,0,0,0,0,0,0,0,0,0,0,0,0,0,0,0,0,0,0,0,0,0,0,0,0,0,0,0,0,0,0,0,0,0]","[0,0.03179999998211969,0.06529999998212332,0.09859999999404323,0.13169999998807924,0.164400000005962,0.19850000000000279,0.23109999999404351,0.2647999999821238,0.29869999998808083,0.33229999998211923,0.365000000000002,0.39869999998808225,0.43179999998211827,0.46559999999404056,0.49900000000000233,0.5315000000000012,0.5655000000000001,0.598699999988078,0.6310000000000002,0.665099999994041,0.6981999999880841,0.7317999999821225,0.7644000000059634,0.7990999999940414,0.8310000000000031,0.8644999999999996,0.8987999999821241,0.9319000000059603,0.9649000000059615,0.9982999999821232,1.031599999994043,1.0650000000000048,1.0982999999821175,1.1316999999880792,1.164199999988078,1.198400000005961,1.2317999999821225,1.2650999999940424,1.2981999999880784,1.331900000005966]",9,0,9,0,1,,,,
A999999999,2024-09-12_12h32.12.766,GoFitts,2023.2.3,MacIntel,30.03003003,"[182.03109011639796,202.16600677127218]","[-136.02059776262416,-235.59458620075432]",42,544.0823911,4.75,1,1.0319,0.3322,"[168.84765625,168.84765625,168.84765625,168.84765625,168.84765625,168.84765625,168.84765625,168.84765625,168.84765625,168.84765625,165.67578125,153.171875,125.15234375,79.1484375,23.7734375,-26.00390625,-70.953125,-94.26953125,-114.29296875,-129.5546875,-146.46484375,-159.87890625,-167.421875,-169.765625,-170.1484375,-170.1484375,-170.1484375,-170.1484375,-170.1484375,-170.1484375,-162.64453125,-153.08984375,-150.90234375,-150.5234375,-150.5234375,-150.5234375,-150.5234375,-150.5234375,-150.5234375,-150.5234375,-150.5234375,-150.5234375,-150.5234375,-150.5234375,-150.5234375,-150.5234375,-150.5234375,-150.5234375]","[196.51171875,196.51171875,196.51171875,196.51171875,196.51171875,196.51171875,196.51171875,196.51171875,196.51171875,196.51171875,184.3671875,155.94921875,110.296875,48.5078125,-22.12109375,-80.63671875,-131.58984375,-156.140625,-176.1484375,-193.3125,-212.55859375,-228.828125,-237.68359375,-240.5390625,-242.0546875,-242.0546875,-242.31640625,-242.31640625,-242.31640625,-242.31640625,-241.5,-237.85546875,-236.9453125,-236.9453125,-236.9453125,-236.9453125,-236.9453125,-236.9453125,-236.9453125,-236.9453125,-236.9453125,-236.9453125,-236.9453125,-236.9453125,-236.9453125,-236.9453125,-236.9453125,-236.9453125]","[0,0,0,0,0,0,0,0,0,0,0,0,0,0,0,0,0,0,0,0,0,0,0,0,0,0,0,0,0,0,0,0,0,0,0,0,0,0,0,0,0,0,0,0,0,0,0,0]","[0,0,0,0,0,0,0,0,0,0,0,0,0,0,0,0,0,0,0,0,0,0,0,0,0,0,0,0,0,0,0,0,0,0,0,0,0,0,0,0,0,0,0,0,0,0,0,0]","[0,0,0,0,0,0,0,0,0,0,0,0,0,0,0,0,0,0,0,0,0,0,0,0,0,0,0,0,0,0,0,0,0,0,0,0,0,0,0,0,0,0,0,0,0,0,0,0]","[0,0.03140000000595933,0.06510000002383975,0.09749999999999659,0.13120000001787702,0.16420000001787827,0.1984000000059538,0.23070000001787605,0.2651000000238355,0.29760000002384146,0.33220000001787753,0.3654000000059554,0.3987000000178753,0.43199999999999505,0.4656000000238407,0.49890000000596046,0.5319999999999965,0.565600000023835,0.5987000000178782,0.631200000017877,0.6647000000178735,0.6984000000059609,0.7318000000119156,0.7652000000178845,0.7982000000178715,0.8316000000238404,0.8653000000119135,0.89820000001788,0.9314000000059508,0.9650000000000034,0.9988000000119115,1.0319000000059617,1.0651000000238326,1.0986000000238363,1.1313000000119189,1.164999999999992,1.198300000011912,1.2317000000178808,1.2653000000119192,1.297800000011918,1.3319000000059589,1.365100000023844,1.3984000000059638,1.4318000000119184,1.4651000000238383,1.498600000023842,1.531700000017878,1.5644000000059606]",10,0,10,0,1,,,,
A999999999,2024-09-12_12h32.12.766,GoFitts,2023.2.3,MacIntel,30.03003003,"[-136.02059776262416,-235.59458620075432]","[84.06535258737958,258.72655170501116]",42,544.0823911,4.75,1,0.7336,0.2328,"[-150.5234375,-150.5234375,-150.5234375,-150.5234375,-150.5234375,-150.5234375,-150.5234375,-131.64453125,-95.28125,-35.171875,10.0703125,34.4453125,48.390625,54.6484375,57.83203125,59.77734375,60.53515625,61.4375,63.2734375,68.29296875,75.66015625,80.52734375,83.19921875,85.58203125,86.10546875,86.10546875,86.10546875,86.10546875,86.10546875,86.10546875,86.10546875,86.4140625,86.4140625,86.4140625,86.4140625,86.4140625,86.4140625,86.4140625,86.4140625]","[-236.9453125,-236.9453125,-236.9453125,-236.9453125,-236.9453125,-236.9453125,-233.44921875,-202.12890625,-129.6796875,-7.90234375,76.33203125,122.640625,150.2578125,166.3359375,173.3828125,177.19921875,177.8984375,180.1015625,186.15625,200.7109375,218.34375,234.875,243.19921875,249.32421875,252.87109375,253.94921875,254.23828125,254.23828125,254.23828125,254.4921875,254.7578125,254.7578125,254.7578125,254.7578125,254.7578125,254.7578125,254.7578125,254.7578125,254.7578125]","[0,0,0,0,0,0,0,0,0,0,0,0,0,0,0,0,0,0,0,0,0,0,0,0,0,0,0,0,0,0,0,0,0,0,0,0,0,0,0]","[0,0,0,0,0,0,0,0,0,0,0,0,0,0,0,0,0,0,0,0,0,0,0,0,0,0,0,0,0,0,0,0,0,0,0,0,0,0,0]","[0,0,0,0,0,0,0,0,0,0,0,0,0,0,0,0,0,0,0,0,0,0,0,0,0,0,0,0,0,0,0,0,0,0,0,0,0,0,0]","[0,0.03249999999999886,0.06580000001191877,0.09910000002383867,0.1317000000178723,0.16580000001191308,0.19970000001787014,0.23290000000595512,0.26549999999998875,0.29949999999999477,0.3319000000059589,0.3659000000059507,0.3984999999999985,0.43270000001787423,0.465999999999994,0.4992000000178791,0.5326000000238338,0.5659999999999883,0.5984999999999872,0.6331000000238305,0.6653000000119107,0.6995000000000005,0.7336000000238414,0.7659999999999911,0.7989999999999924,0.8329000000059494,0.8659999999999997,0.8990000000000009,0.9314999999999998,0.965999999999994,0.9994000000059486,1.0327000000178685,1.0658000000119188,1.0991000000238387,1.1316000000238375,1.165800000011913,1.198300000011912,1.2324999999999875,1.2659000000059564]",11,0,11,0,1,,,,
A999999999,2024-09-12_12h32.12.766,GoFitts,2023.2.3,MacIntel,30.03003003,"[84.06535258737958,258.72655170501116]","[-28.43604811374964,-270.55092539202076]",42,544.0823911,4.75,1,1.1329,0.3652,"[86.4140625,86.4140625,86.4140625,86.4140625,86.4140625,86.4140625,86.4140625,86.4140625,86.4140625,86.4140625,86.4140625,80.97265625,57.8125,24.296875,-19.08203125,-65.01953125,-85.85546875,-92.28125,-92.9453125,-95.8125,-98.546875,-99.36328125,-99.36328125,-97.93359375,-90.88671875,-81.6328125,-74.58203125,-70.3828125,-66.1796875,-62.0078125,-57.81640625,-52.671875,-49.8203125,-49.0625,-48.7890625,-48.7890625,-47.7734375,-40.625,-38.4375,-37.6796875,-37.6796875,-37.6796875,-37.6796875,-37.6796875,-37.6796875,-37.6796875,-37.6796875,-37.6796875,-37.6796875,-37.6796875,-37.6796875]","[254.7578125,254.7578125,254.7578125,254.7578125,254.7578125,254.7578125,254.7578125,254.7578125,254.7578125,254.7578125,254.7578125,233.59375,145.9140625,26.4296875,-86.4765625,-174.3359375,-210.50390625,-225.62109375,-236.07421875,-253.625,-271.2265625,-279.53515625,-281.05078125,-283.08984375,-283.7578125,-283.7578125,-283.7578125,-282.703125,-281.12109375,-280.078125,-277.97265625,-276.39453125,-275.48828125,-275.10546875,-275.10546875,-275.10546875,-275.10546875,-274.578125,-274.05078125,-274.05078125,-274.05078125,-273.79296875,-273.79296875,-273.79296875,-273.79296875,-273.79296875,-273.79296875,-273.79296875,-273.79296875,-273.79296875,-273.79296875]","[0,0,0,0,0,0,0,0,0,0,0,0,0,0,0,0,0,0,0,0,0,0,0,0,0,0,0,0,0,0,0,0,0,0,0,0,0,0,0,0,0,0,0,0,0,0,0,0,0,0,0]","[0,0,0,0,0,0,0,0,0,0,0,0,0,0,0,0,0,0,0,0,0,0,0,0,0,0,0,0,0,0,0,0,0,0,0,0,0,0,0,0,0,0,0,0,0,0,0,0,0,0,0]","[0,0,0,0,0,0,0,0,0,0,0,0,0,0,0,0,0,0,0,0,0,0,0,0,0,0,0,0,0,0,0,0,0,0,0,0,0,0,0,0,0,0,0,0,0,0,0,0,0,0,0]","[0,0.031800000011926954,0.06430000001192582,0.0986999999880851,0.13180000001192127,0.165099999994041,0.19750000000000512,0.23180000001191559,0.26509999999403533,0.2985000000000042,0.3318000000119241,0.3651999999880786,0.3983000000119148,0.43159999999403453,0.46530000001192207,0.4985999999940418,0.5311999999880754,0.5654000000059654,0.5985999999940361,0.632000000000005,0.6656999999880782,0.699099999994047,0.732400000005967,0.7656999999880725,0.7988000000119229,0.8319000000059589,0.8653000000119278,0.8984000000059638,0.9319000000059674,0.9653000000119221,0.9983000000119233,1.0319000000059617,1.0645999999940443,1.0981999999880827,1.1329000000059608,1.1648000000119225,1.1973000000119214,1.231499999999997,1.2648000000119168,1.2980000000000018,1.3314000000059565,1.3649999999999949,1.3979999999999961,1.4315999999940345,1.4650000000000034,1.498400000005958,1.5316999999880778,1.5651999999880815,1.5983000000119176,1.6318000000119213,1.6651999999880758]",12,0,12,0,1,,,,
A999999999,2024-09-12_12h32.12.766,GoFitts,2023.2.3,MacIntel,30.03003003,"[-28.43604811374964,-270.55092539202076]","[-28.436048113749393,270.5509253920208]",42,544.0823911,4.75,1,0.7662,0.2988,"[-37.6796875,-37.6796875,-37.6796875,-37.6796875,-37.6796875,-37.6796875,-37.6796875,-37.6796875,-37.6796875,-37.6796875,-37.6796875,-37.6796875,-34.15625,-29.98828125,-27.78515625,-25.73046875,-25.73046875,-25.73046875,-25.73046875,-25.73046875,-25.73046875,-24.91796875,-24.91796875,-24.91796875,-24.91796875,-24.91796875,-24.91796875,-24.91796875,-24.91796875,-24.91796875,-24.91796875,-24.91796875,-24.91796875,-24.91796875,-24.91796875,-24.91796875,-24.91796875,-24.91796875,-24.91796875,-24.91796875]","[-273.79296875,-273.79296875,-273.79296875,-273.79296875,-273.79296875,-273.79296875,-273.79296875,-273.79296875,-262.3359375,-233.18359375,-135.5,-24.359375,73.80859375,112.30859375,140.93359375,161.90234375,181.07421875,195.62890625,204.87109375,215.39453125,229.94921875,241.70703125,248.74609375,254.87109375,259.0859375,264.359375,266.5625,267.640625,267.640625,267.640625,267.640625,267.640625,267.640625,267.640625,267.640625,267.640625,267.640625,267.640625,267.640625,267.640625]","[0,0,0,0,0,0,0,0,0,0,0,0,0,0,0,0,0,0,0,0,0,0,0,0,0,0,0,0,0,0,0,0,0,0,0,0,0,0,0,0]","[0,0,0,0,0,0,0,0,0,0,0,0,0,0,0,0,0,0,0,0,0,0,0,0,0,0,0,0,0,0,0,0,0,0,0,0,0,0,0,0]","[0,0,0,0,0,0,0,0,0,0,0,0,0,0,0,0,0,0,0,0,0,0,0,0,0,0,0,0,0,0,0,0,0,0,0,0,0,0,0,0]","[0,0.031800000011926954,0.06530000001193059,0.09850000000000136,0.13180000001192127,0.16520000001789015,0.19750000000000512,0.23190000000596456,0.26550000000000296,0.29890000000597183,0.3323000000119265,0.36570000001788117,0.3987000000178824,0.43209999999405113,0.4647000000178849,0.49870000001789094,0.5322000000178804,0.5655999999940491,0.59880000001192,0.6322000000178889,0.6655000000000086,0.6990000000000123,0.7323000000119322,0.7662000000178892,0.7990000000000066,0.8322000000178917,0.8655000000000115,0.8993000000119338,0.9319000000059674,0.9648000000119339,0.998500000000007,1.0320000000000107,1.0652000000178816,1.098099999994048,1.1319000000059702,1.1648000000119225,1.1985999999940447,1.2315000000000111,1.2652000000178845,1.2988000000119229]",13,0,13,0,1,,,,
A999999999,2024-09-12_12h32.12.766,GoFitts,2023.2.3,MacIntel,30.03003003,"[-28.436048113749393,270.5509253920208]","[84.06535258737951,-258.7265517050112]",42,544.0823911,4.75,1,1.2982,0.532,"[-24.91796875,-24.91796875,-24.91796875,-24.91796875,-24.91796875,-24.91796875,-24.91796875,-24.91796875,-24.91796875,-24.91796875,-24.91796875,-24.91796875,-24.91796875,-24.91796875,-24.91796875,-24.91796875,-16.56640625,2.9921875,41.55078125,58.05078125,67.49609375,68.87109375,69.97265625,70.9296875,70.9296875,71.59765625,71.59765625,72.40625,73.21484375,73.21484375,73.59375,74.1796875,75.390625,77.1015625,78.1484375,78.1484375,78.1484375,78.1484375,78.1484375,78.1484375,78.1484375,78.1484375,78.1484375,78.1484375,78.1484375,78.1484375,78.1484375,78.1484375,78.1484375,78.1484375,78.40234375,78.40234375,78.40234375,78.40234375,78.40234375,78.40234375]","[267.640625,267.640625,267.640625,267.640625,267.640625,267.640625,267.640625,267.640625,267.640625,267.640625,267.640625,267.640625,267.640625,267.640625,267.640625,267.640625,243.57421875,178.61328125,19.875,-85.82421875,-170.12109375,-207.63671875,-230.4375,-246.515625,-257.0234375,-263.1328125,-269.30859375,-282.29296875,-294.01171875,-296.8671875,-297.24609375,-297.24609375,-294.7578125,-289.59765625,-287.10546875,-286.40625,-286.40625,-284.328125,-280.796875,-278.2109375,-277.515625,-277.24609375,-277.24609375,-277.24609375,-277.24609375,-277.24609375,-276.6796875,-276.3671875,-276.078125,-276.078125,-275.0234375,-275.0234375,-275.0234375,-275.0234375,-275.0234375,-275.0234375]","[0,0,0,0,0,0,0,0,0,0,0,0,0,0,0,0,0,0,0,0,0,0,0,0,0,0,0,0,0,0,0,0,0,0,0,0,0,0,0,0,0,0,0,0,0,0,0,0,0,0,0,0,0,0,0,0]","[0,0,0,0,0,0,0,0,0,0,0,0,0,0,0,0,0,0,0,0,0,0,0,0,0,0,0,0,0,0,0,0,0,0,0,0,0,0,0,0,0,0,0,0,0,0,0,0,0,0,0,0,0,0,0,0]","[0,0,0,0,0,0,0,0,0,0,0,0,0,0,0,0,0,0,0,0,0,0,0,0,0,0,0,0,0,0,0,0,0,0,0,0,0,0,0,0,0,0,0,0,0,0,0,0,0,0,0,0,0,0,0,0]","[0,0.03159999999404306,0.06449999999999534,0.09829999998211747,0.13159999999403738,0.16490000000595728,0.19829999998211179,0.2315999999940317,0.2644999999999982,0.29840000000595523,0.3311999999880726,0.3649000000059601,0.3979000000059614,0.4314999999999998,0.4650000000000034,0.4984000000059581,0.5320999999940312,0.5651999999880815,0.5985000000000014,0.6307999999821163,0.665099999994041,0.6984999999999957,0.7316999999880807,0.7660999999940401,0.7980999999940366,0.8310000000000031,0.8652999999821134,0.8982999999821146,0.9314000000059508,0.9639000000059639,0.9984999999999928,1.0314000000059593,1.0644000000059606,1.0975999999940314,1.1316999999880721,1.1651999999880758,1.198199999988077,1.2310999999940435,1.2650000000000006,1.2981999999880713,1.3317999999821097,1.3650999999940296,1.3972999999821099,1.4314999999999998,1.4647999999821195,1.4981999999880742,1.5317999999821126,1.5641999999880767,1.5981999999880827,1.6304999999999978,1.6652999999821105,1.698199999988077,1.7310999999940435,1.7647999999821167,1.7980999999940366,1.8315999999940402]",14,0,14,0,1,,,,
A999999999,2024-09-12_12h32.12.766,GoFitts,2023.2.3,MacIntel,30.03003003,,,,,,1,,,,,,,,,,,,,,1,0,0,1
A999999999,2024-09-12_12h32.12.766,GoFitts,2023.2.3,MacIntel,30.03003003,"[-12.93359375,25.49609375]","[-319.1295161989447,-231.86116546030897]",20,788.9315513,6.32,2,1.5972,0.5316,"[-12.93359375,-12.93359375,-12.93359375,-12.93359375,-12.93359375,-12.93359375,-12.93359375,-12.93359375,-12.93359375,-12.93359375,-12.93359375,-12.93359375,-12.93359375,-12.93359375,-12.93359375,-12.93359375,-12.93359375,-16.078125,-64.57421875,-150.54296875,-189.8359375,-214.66796875,-235.3984375,-248.734375,-256.00390625,-259.16796875,-260.984375,-265.18359375,-268.05859375,-268.7578125,-269.41796875,-275.640625,-281.734375,-286.90625,-291.125,-294.5703125,-295.86328125,-297.15625,-300.01171875,-302.21484375,-302.59765625,-302.8671875,-302.8671875,-303.1796875,-305.31640625,-309.24609375,-310.77734375,-313.6484375,-316.5234375,-317.2890625,-317.6015625,-317.6015625,-317.6015625,-317.6015625,-317.6015625,-317.6015625,-317.6015625,-317.6015625,-317.6015625,-317.6015625,-317.6015625,-317.6015625,-317.6015625,-317.6015625]","[25.49609375,25.49609375,25.49609375,25.49609375,25.49609375,25.49609375,25.49609375,25.49609375,25.49609375,25.49609375,25.49609375,25.49609375,25.49609375,25.49609375,25.49609375,25.49609375,27.28125,23.44921875,-11.8515625,-69.22265625,-102.46484375,-130.15625,-151.97265625,-166.26953125,-174.19140625,-178.39453125,-181.24609375,-183.859375,-185.6640625,-186.35546875,-186.734375,-188.97265625,-192.01171875,-195.4453125,-199.6484375,-204.79296875,-206.98046875,-209.83984375,-212.6796875,-214.33984375,-214.71875,-214.71875,-214.71875,-215.2890625,-216.8828125,-219.2109375,-220.7265625,-222.53125,-224.3359375,-225.47265625,-225.7578125,-225.7578125,-225.7578125,-225.7578125,-225.7578125,-225.7578125,-225.7578125,-225.7578125,-225.7578125,-225.7578125,-225.7578125,-225.7578125,-225.7578125,-225.7578125]","[0,0,0,0,0,0,0,0,0,0,0,0,0,0,0,0,0,0,0,0,0,0,0,0,0,0,0,0,0,0,0,0,0,0,0,0,0,0,0,0,0,0,0,0,0,0,0,0,0,0,0,0,0,0,0,0,0,0,0,0,0,0,0,0]","[0,0,0,0,0,0,0,0,0,0,0,0,0,0,0,0,0,0,0,0,0,0,0,0,0,0,0,0,0,0,0,0,0,0,0,0,0,0,0,0,0,0,0,0,0,0,0,0,0,0,0,0,0,0,0,0,0,0,0,0,0,0,0,0]","[0,0,0,0,0,0,0,0,0,0,0,0,0,0,0,0,0,0,0,0,0,0,0,0,0,0,0,0,0,0,0,0,0,0,0,0,0,0,0,0,0,0,0,0,0,0,0,0,0,0,0,0,0,0,0,0,0,0,0,0,0,0,0,0]","[0,0.03100000000000591,0.06369999998810272,0.09769999998809453,0.1305999999940468,0.16450000000000387,0.19719999998810067,0.23119999998809249,0.2642999999821427,0.29769999998808316,0.3310000000000173,0.36440000000595774,0.3971999999880893,0.4311999999880811,0.4639000000059639,0.4976999999881002,0.531699999988092,0.5647999999821423,0.598099999994048,0.6314000000059821,0.6649000000059573,0.6976999999880888,0.7311999999880925,0.7637999999821261,0.7979000000059671,0.8311999999880868,0.8645999999940557,0.8977999999821407,0.9311999999880811,0.9637999999821147,0.997599999994037,1.0312999999821386,1.064699999988079,1.0979000000059784,1.1310999999940634,1.1645000000000039,1.1976999999880888,1.2311999999880925,1.263799999982126,1.2970999999940602,1.3310000000000173,1.3644000000059577,1.3970999999940545,1.430699999988093,1.4646999999880848,1.497799999982135,1.5312999999821386,1.5632999999821209,1.597199999988078,1.6307999999821163,1.6640999999940504,1.6972999999821354,1.7309000000059598,1.7644000000059634,1.797199999988095,1.8310000000000173,1.8644000000059577,1.8994000000059827,1.9302999999821395,1.9645000000000152,1.9970999999940489,2.0310999999940407,2.0637999999821375,2.0979000000059784]",0,0,0,0,1,,,,
A999999999,2024-09-12_12h32.12.766,GoFitts,2023.2.3,MacIntel,30.03003003,"[-319.1295161989447,-231.86116546030897]","[263.94912364750877,293.1452000011213]",20,788.9315513,6.32,2,1.3992,0.2988,"[-317.6015625,-317.6015625,-317.6015625,-317.6015625,-317.6015625,-317.6015625,-317.6015625,-317.6015625,-317.6015625,-259.74609375,-137.68359375,-13.0390625,80.87890625,165.91015625,229.9921875,266.22265625,290.04296875,306.77734375,324.01171875,339.1953125,346.140625,347.94921875,347.27734375,341.3046875,337.37109375,334.69140625,328.625,318.4453125,307.98046875,298.8828125,291.03515625,285.84375,281.72265625,276.6484375,270.57421875,267.26953125,266.88671875,266.50390625,266.50390625,266.1875,265.875,264.58203125,262.76953125,262.38671875,262.38671875,262.38671875,262.38671875,262.38671875,262.38671875,262.38671875,262.38671875,262.38671875,262.38671875,262.38671875,262.38671875,262.38671875,262.38671875,262.38671875,262.38671875]","[-225.7578125,-225.7578125,-225.7578125,-225.7578125,-225.7578125,-225.7578125,-225.7578125,-225.7578125,-225.7578125,-169.3828125,-44.55859375,93.6796875,189.42578125,274.62109375,335.0390625,366.3828125,388.96875,405.69921875,421.03125,433.5,438.9921875,439.51953125,436.5390625,422.0703125,410.31640625,401.0625,391.390625,380.265625,369.1484375,358.4375,348.3125,341.953125,335.84375,328.78125,319.09765625,312.90625,310.71875,309.203125,308.13671875,307.82421875,307.2421875,305.0546875,302.2109375,300.6953125,300.6953125,300.6953125,300.6953125,300.6953125,300.6953125,300.6953125,300.6953125,300.6953125,300.6953125,300.6953125,300.6953125,300.6953125,300.6953125,300.6953125,300.6953125]","[0,0,0,0,0,0,0,0,0,0,0,0,0,0,0,0,0,0,0,0,0,0,0,0,0,0,0,0,0,0,0,0,0,0,0,0,0,0,0,0,0,0,0,0,0,0,0,0,0,0,0,0,0,0,0,0,0,0,0]","[0,0,0,0,0,0,0,0,0,0,0,0,0,0,0,0,0,0,0,0,0,0,0,0,0,0,0,0,0,0,0,0,0,0,0,0,0,0,0,0,0,0,0,0,0,0,0,0,0,0,0,0,0,0,0,0,0,0,0]","[0,0,0,0,0,0,0,0,0,0,0,0,0,0,0,0,0,0,0,0,0,0,0,0,0,0,0,0,0,0,0,0,0,0,0,0,0,0,0,0,0,0,0,0,0,0,0,0,0,0,0,0,0,0,0,0,0,0,0]","[0.00010000002384913387,0.03170000001787798,0.06499999999999773,0.09790000000597843,0.13180000001193548,0.16510000002384118,0.19840000000596092,0.23170000001789504,0.2650000000000148,0.2988000000119371,0.33199999999999363,0.365200000017893,0.3988000000119314,0.43080000001191365,0.46460000002383595,0.4988000000119257,0.5322000000178946,0.5653000000119164,0.5979000000059784,0.6315000000000168,0.6647000000178878,0.6986000000238448,0.7321000000238485,0.7646000000238473,0.7982000000178857,0.8315000000000055,0.8654000000059625,0.8987000000178966,0.9319000000059532,0.9653000000119221,0.9987000000178909,1.0321000000238598,1.0651000000238469,1.098200000017897,1.1312000000178841,1.1657000000178925,1.197800000011938,1.2316000000238603,1.2652000000178987,1.298100000023851,1.3319000000059589,1.3653000000119278,1.3992000000178848,1.4319000000059532,1.4651000000238525,1.4983000000119375,1.5312000000178898,1.5649999999999977,1.5985000000000014,1.6318000000119355,1.6651000000238412,1.697800000011938,1.731700000017895,1.7644999999999982,1.7985000000000184,1.8317000000178894,1.8649000000059743,1.8983000000119148,1.9318000000119184]",1,0,1,0,1,,,,
A999999999,2024-09-12_12h32.12.766,GoFitts,2023.2.3,MacIntel,30.03003003,"[263.94912364750877,293.1452000011213]","[-197.2328878242581,-341.61738263514764]",20,788.9315513,6.32,2,0.7315,0.1312,"[262.38671875,262.38671875,262.38671875,262.38671875,246.54296875,190.296875,90.71875,-14.2890625,-92.828125,-154.671875,-183.96484375,-197.45703125,-205.921875,-213.41796875,-215.23828125,-215.62109375,-215.62109375,-215.62109375,-212.8046875,-209.65625,-207.46875,-206.33203125,-204.8828125,-203.3671875,-202.609375,-202.609375,-202.609375,-202.609375,-202.609375,-202.609375,-202.609375,-202.609375,-202.609375,-202.609375,-202.609375,-202.609375,-202.609375,-202.609375]","[300.6953125,300.6953125,300.6953125,300.6953125,274.11328125,195.51953125,62.9140625,-76.32421875,-177.76171875,-255.66015625,-285.3828125,-296.27734375,-302.72265625,-308.8671875,-310.52734375,-311.52734375,-315.890625,-333.66015625,-342.921875,-346.0703125,-347.20703125,-347.5859375,-347.5859375,-347.5859375,-347.5859375,-347.5859375,-347.5859375,-347.01953125,-346.703125,-346.703125,-346.703125,-346.703125,-346.703125,-346.703125,-346.703125,-346.703125,-346.703125,-346.703125]","[0,0,0,0,0,0,0,0,0,0,0,0,0,0,0,0,0,0,0,0,0,0,0,0,0,0,0,0,0,0,0,0,0,0,0,0,0,0]","[0,0,0,0,0,0,0,0,0,0,0,0,0,0,0,0,0,0,0,0,0,0,0,0,0,0,0,0,0,0,0,0,0,0,0,0,0,0]","[0,0,0,0,0,0,0,0,0,0,0,0,0,0,0,0,0,0,0,0,0,0,0,0,0,0,0,0,0,0,0,0,0,0,0,0,0,0]","[0,0.031099999994040672,0.06499999999999773,0.09780000001191524,0.13130000001191888,0.16420000001787116,0.19859999999403044,0.23140000000594796,0.2644999999999982,0.2980999999940366,0.3320999999940284,0.36480000001191115,0.3987000000178682,0.43130000001190183,0.46509999999403817,0.49840000000594387,0.5310999999940407,0.564700000017865,0.5983000000119034,0.6312000000178841,0.6652000000178759,0.6985999999940304,0.7314999999999827,0.7644999999999982,0.7978000000119039,0.8308000000119193,0.8649000000059459,0.89820000001788,0.9322000000178718,0.9649000000059402,0.9983000000119091,1.031499999999994,1.0650999999940325,1.0983000000119034,1.1317000000178723,1.1649000000059573,1.1983000000119262,1.2317000000178666]",2,0,2,0,1,,,,
A999999999,2024-09-12_12h32.12.766,GoFitts,2023.2.3,MacIntel,30.03003003,"[-197.2328878242581,-341.61738263514764]","[121.89662837468671,375.1592463859431]",20,788.9315513,6.32,2,2.0324,0.1985,"[-202.609375,-202.609375,-202.609375,-202.609375,-202.609375,-201.80859375,-185.37890625,-131.6015625,-66.2109375,-9.9453125,46.3515625,90.2734375,115.70703125,129.37890625,136.3046875,138.25,138.25,139.5859375,141.875,140.63671875,132.328125,128.1953125,126.18359375,125.41796875,125.03515625,124.5078125,123.453125,123.0703125,123.0703125,123.0703125,123.0703125,123.0703125,123.0703125,123.0703125,123.0703125,123.0703125,123.0703125,123.0703125,123.0703125,123.0703125,123.0703125,123.0703125,123.0703125,123.0703125,122.3046875,121.921875,121.921875,121.921875,121.921875,121.921875,121.921875,121.921875,121.921875,121.921875,121.921875,121.921875,121.921875,121.921875,121.921875,121.921875,121.921875,121.921875,121.921875,122.30078125,122.30078125,122.30078125,122.30078125,122.30078125,122.30078125,122.30078125,122.30078125,122.30078125,122.30078125,122.30078125,122.30078125,122.30078125,122.30078125,122.30078125]","[-346.703125,-346.703125,-346.703125,-346.703125,-346.703125,-342.484375,-318.17578125,-240.62890625,-130.08203125,-29.82421875,76.62890625,164.484375,215.85546875,244.7734375,259.6015625,263.42578125,264.5078125,270.625,290.5546875,319.3828125,348.8515625,370.1484375,378.46875,381.32421875,382.0234375,384.8984375,389.109375,391.59765625,392.296875,392.296875,392.296875,392.296875,391.73828125,391.46484375,391.46484375,391.46484375,391.46484375,391.46484375,391.46484375,391.46484375,391.46484375,391.46484375,391.46484375,390.84375,388.27734375,387.140625,386.828125,386.828125,386.828125,386.828125,386.828125,386.828125,386.828125,386.828125,386.828125,386.828125,386.828125,386.828125,386.828125,386.828125,386.828125,383.0625,379.53125,377.34375,376.65234375,376.65234375,376.65234375,376.3984375,376.3984375,376.3984375,376.3984375,376.3984375,376.3984375,376.3984375,376.3984375,376.3984375,376.3984375,376.3984375]","[0,0,0,0,0,0,0,0,0,0,0,0,0,0,0,0,0,0,0,0,0,0,0,0,0,0,0,0,0,0,0,0,0,0,0,0,0,0,0,0,0,0,0,0,0,0,0,0,0,0,0,0,0,0,0,0,0,0,0,0,0,0,0,0,0,0,0,0,0,0,0,0,0,0,0,0,0,0]","[0,0,0,0,0,0,0,0,0,0,0,0,0,0,0,0,0,0,0,0,0,0,0,0,0,0,0,0,0,0,0,0,0,0,0,0,0,0,0,0,0,0,0,0,0,0,0,0,0,0,0,0,0,0,0,0,0,0,0,0,0,0,0,0,0,0,0,0,0,0,0,0,0,0,0,0,0,0]","[0,0,0,0,0,0,0,0,0,0,0,0,0,0,0,0,0,0,0,0,0,0,0,0,0,0,0,0,0,0,0,0,0,0,0,0,0,0,0,0,0,0,0,0,0,0,0,0,0,0,0,0,0,0,0,0,0,0,0,0,0,0,0,0,0,0,0,0,0,0,0,0,0,0,0,0,0,0]","[0.00009999999406318238,0.031800000011941165,0.06469999998807907,0.09869999998809931,0.13209999999403976,0.1655999999940434,0.1985000000000241,0.23199999999999932,0.2654000000059682,0.2985999999940532,0.3318000000119241,0.36530000001192775,0.3990000000000009,0.4321999999880859,0.46569999998808953,0.4990999999940584,0.5324999999999989,0.5650999999940609,0.5990999999940527,0.6324000000059584,0.6654000000059739,0.6985000000000241,0.7315999999940459,0.7655999999940377,0.7983000000119205,0.8320999999940568,0.8656999999880952,0.8981999999880941,0.9321999999880859,0.9654000000059852,0.998699999988105,1.031900000005976,1.0656999999880838,1.0981999999880827,1.1319000000059702,1.1654000000059739,1.1980000000000075,1.2319999999999993,1.2654000000059682,1.298800000011937,1.3319000000059589,1.3650999999940439,1.3988000000119314,1.4313000000119303,1.4651999999881014,1.497800000011921,1.531900000005976,1.565099999994061,1.5984000000059666,1.6316999999880863,1.6650000000000205,1.698400000005961,1.7316999999880807,1.7650999999940495,1.7984000000059837,1.8320999999940568,1.8654000000059625,1.8985000000000127,1.9320000000000164,1.9654000000059852,1.9985999999940418,2.032400000005964,2.065699999988084,2.0986999999880993,2.1316999999880863,2.1650999999940552,2.1988000000119428,2.2325999999940507,2.265400000005968,2.298800000011937,2.3321999999880916,2.3654000000059625,2.3988000000119314,2.432099999994051,2.46550000000002,2.498699999988105,2.53219999998808,2.565699999988084]",3,0,3,0,1,,,,
A999999999,2024-09-12_12h32.12.766,GoFitts,2023.2.3,MacIntel,30.03003003,"[121.89662837468671,375.1592463859431]","[-41.23290134022263,-392.3048508558781]",20,788.9315513,6.32,2,1.0896,0.156,"[122.30078125,122.30078125,122.30078125,122.30078125,122.30078125,115.6875,94.76953125,64.91015625,36.54296875,-3.4296875,-45.9453125,-62.578125,-67.14453125,-67.14453125,-67.14453125,-66.1953125,-66.1953125,-63.84765625,-61.93359375,-60.02734375,-57.2109375,-55.44140625,-55.44140625,-55.44140625,-55.44140625,-55.44140625,-54.91796875,-53.3515625,-52.16015625,-50.96875,-50.96875,-50.96875,-50.2109375,-48.31640625,-47.1796875,-46.89453125,-46.5859375,-46.5859375,-46.5859375,-46.5859375,-46.5859375,-46.5859375,-46.5859375,-46.5859375,-46.5859375,-46.5859375,-46.5859375,-46.5859375,-46.5859375,-46.5859375]","[376.3984375,376.3984375,376.3984375,376.3984375,376.3984375,355.2890625,285.48828125,180.74609375,98.10546875,8.7109375,-62.95703125,-100.46484375,-125.41015625,-141.3515625,-158.94140625,-173.453125,-185.16015625,-211.9375,-239.2578125,-258.6640625,-271.17578125,-290.625,-315.86328125,-335.3125,-345.8046875,-352.859375,-358.9609375,-364.10546875,-369.2578125,-376.28515625,-382.3828125,-385.2421875,-386.7578125,-387.89453125,-388.65234375,-388.96484375,-388.96484375,-388.96484375,-388.96484375,-388.96484375,-388.96484375,-388.96484375,-388.96484375,-388.96484375,-388.96484375,-388.96484375,-388.96484375,-388.96484375,-388.96484375,-388.96484375]","[0,0,0,0,0,0,0,0,0,0,0,0,0,0,0,0,0,0,0,0,0,0,0,0,0,0,0,0,0,0,0,0,0,0,0,0,0,0,0,0,0,0,0,0,0,0,0,0,0,0]","[0,0,0,0,0,0,0,0,0,0,0,0,0,0,0,0,0,0,0,0,0,0,0,0,0,0,0,0,0,0,0,0,0,0,0,0,0,0,0,0,0,0,0,0,0,0,0,0,0,0]","[0,0,0,0,0,0,0,0,0,0,0,0,0,0,0,0,0,0,0,0,0,0,0,0,0,0,0,0,0,0,0,0,0,0,0,0,0,0,0,0,0,0,0,0,0,0,0,0,0,0]","[0,0.022099999994054542,0.05509999999404158,0.08820000001787776,0.12180000001191615,0.1560000000000059,0.18920000001787685,0.22259999999405977,0.2558000000119307,0.28830000001192957,0.3222000000178866,0.3555999999940411,0.3888000000119405,0.42250000000001364,0.45580000001191934,0.4900000000000091,0.5219000000059566,0.5552000000178907,0.5889999999999986,0.622200000017898,0.6557000000179016,0.6888000000119234,0.7217000000178757,0.7545000000000073,0.788700000017883,0.821900000005968,0.8550000000000182,0.88900000000001,0.9219000000059623,0.9558000000119193,0.989300000011923,1.021700000017887,1.0554000000059602,1.08959999999405,1.122200000017898,1.1559000000059712,1.1889000000059582,1.2222000000178923,1.2550999999940586,1.2888000000119177,1.321900000005968,1.3555999999940411,1.3887000000178773,1.4223000000119157,1.4550999999940473,1.489099999994039,1.5222000000178753,1.554900000005972,1.5884000000059757,1.6224000000059675]",4,0,4,0,1,,,,
A999999999,2024-09-12_12h32.12.766,GoFitts,2023.2.3,MacIntel,30.03003003,"[-41.23290134022263,-392.3048508558781]","[-41.23290134022227,392.3048508558781]",20,788.9315513,6.32,2,0.8326,0.1658,"[-46.5859375,-46.5859375,-46.5859375,-46.5859375,-46.5859375,-46.5859375,-41.09765625,-36.234375,-32.2578125,-29.0234375,-29.0234375,-30.71875,-35.0703125,-37.42578125,-37.42578125,-37.42578125,-37.42578125,-38.234375,-39.8671875,-40.53125,-41.203125,-41.875,-41.875,-41.49609375,-41.49609375,-41.49609375,-41.49609375,-41.49609375,-41.49609375,-41.49609375,-41.49609375,-41.49609375,-41.49609375,-41.49609375,-41.49609375,-41.49609375,-41.49609375,-41.49609375,-41.49609375,-41.49609375,-41.49609375,-41.49609375]","[-388.96484375,-388.96484375,-388.96484375,-388.96484375,-388.96484375,-361.6875,-280.4140625,-146.41796875,-42.37890625,16.1875,91.734375,162.69140625,215.234375,255.55078125,282.3046875,301.4765625,319.0859375,335.15625,348.171875,358.671875,365.73046875,371.85546875,375.68359375,379.22265625,381.13671875,383.33984375,386.21484375,389.0859375,390.90625,391.5390625,391.5390625,391.5390625,391.5390625,391.5390625,391.5390625,391.5390625,391.5390625,391.5390625,391.5390625,391.5390625,391.5390625,391.5390625]","[0,0,0,0,0,0,0,0,0,0,0,0,0,0,0,0,0,0,0,0,0,0,0,0,0,0,0,0,0,0,0,0,0,0,0,0,0,0,0,0,0,0]","[0,0,0,0,0,0,0,0,0,0,0,0,0,0,0,0,0,0,0,0,0,0,0,0,0,0,0,0,0,0,0,0,0,0,0,0,0,0,0,0,0,0]","[0,0,0,0,0,0,0,0,0,0,0,0,0,0,0,0,0,0,0,0,0,0,0,0,0,0,0,0,0,0,0,0,0,0,0,0,0,0,0,0,0,0]","[0,0.03160000002384322,0.06540000000595114,0.09870000001788526,0.13210000002385414,0.1658000000119273,0.19890000000597752,0.23199999999999932,0.26570000001788685,0.29860000002383913,0.3323000000119123,0.3663000000119325,0.39850000000001273,0.431400000005965,0.4656000000238407,0.49850000000000705,0.5324000000059641,0.5651000000238469,0.599000000000018,0.632000000000005,0.6659000000059621,0.6990000000000123,0.7325000000000159,0.7654000000059682,0.7989000000059718,0.8326000000238594,0.865200000017893,0.8986000000238334,0.932300000011935,0.964600000023836,0.9986000000238562,1.031900000005976,1.0653000000119164,1.098200000017897,1.1319000000059702,1.1648000000119225,1.1987000000178796,1.2316000000238603,1.2652000000178987,1.2986000000238391,1.3319999999999936,1.366500000000002]",5,0,5,0,1,,,,
