身分證字號,date,expName,psychopyVersion,OS,frameRate,from,to,w,a,id,sequence_loop.thisN,enter_time,mouse.x,mouse.y,mouse.leftButton,mouse.midButton,mouse.rightButton,mouse.time,trial_loop.thisRepN,trial_loop.thisTrialN,trial_loop.thisN,trial_loop.thisIndex,trial_loop.ran,leave_time,sequence_loop.thisRepN,sequence_loop.thisTrialN,sequence_loop.thisIndex,sequence_loop.ran
B123456789,2024-09-10_14h34.20.023,GoFitts,2023.2.3,Win32,75.18796992,,,,,,,,,,,,,,,,,,,,,,,
B123456789,2024-09-10_14h34.20.023,GoFitts,2023.2.3,Win32,75.18796992,,,,,,,,,,,,,,,,,,,,,,,
B123456789,2024-09-10_14h34.20.023,GoFitts,2023.2.3,Win32,75.18796992,"[16,-26]","[-172.68427197186776,-125.46246750520605]",45,426.8989976,4.32,0,0.59,"[16,16,16,16,16,16,16,16,16,16,16,16,16,16,16,16,16,16,16,16,16,16,16,16,16,15,15,12,8,1,-9,-23,-39,-55,-70,-85,-98,-110,-117,-123,-129,-134,-139,-145,-151,-155,-159,-163,-167,-170,-171,-172,-174,-174,-174,-174,-174,-174,-174,-174,-174,-174,-174,-174,-174,-174,-174,-174,-174,-174,-174,-174,-174,-174,-174,-174,-174,-174,-174,-174,-174,-174,-174]","[-26,-26,-26,-26,-26,-26,-26,-26,-26,-26,-26,-26,-26,-26,-26,-26,-26,-26,-26,-26,-26,-26,-26,-26,-26,-26,-26,-27,-30,-34,-39,-46,-54,-62,-71,-80,-87,-94,-99,-104,-108,-111,-114,-117,-120,-122,-125,-126,-128,-130,-130,-131,-132,-132,-132,-132,-132,-132,-132,-132,-132,-132,-132,-132,-132,-132,-132,-132,-132,-132,-132,-132,-132,-132,-132,-132,-132,-132,-132,-132,-132,-132,-132]","[0,0,0,0,0,0,0,0,0,0,0,0,0,0,0,0,0,0,0,0,0,0,0,0,0,0,0,0,0,0,0,0,0,0,0,0,0,0,0,0,0,0,0,0,0,0,0,0,0,0,0,0,0,0,0,0,0,0,0,0,0,0,0,0,0,0,0,0,0,0,0,0,0,0,0,0,0,0,0,0,0,0,0]","[0,0,0,0,0,0,0,0,0,0,0,0,0,0,0,0,0,0,0,0,0,0,0,0,0,0,0,0,0,0,0,0,0,0,0,0,0,0,0,0,0,0,0,0,0,0,0,0,0,0,0,0,0,0,0,0,0,0,0,0,0,0,0,0,0,0,0,0,0,0,0,0,0,0,0,0,0,0,0,0,0,0,0]","[0,0,0,0,0,0,0,0,0,0,0,0,0,0,0,0,0,0,0,0,0,0,0,0,0,0,0,0,0,0,0,0,0,0,0,0,0,0,0,0,0,0,0,0,0,0,0,0,0,0,0,0,0,0,0,0,0,0,0,0,0,0,0,0,0,0,0,0,0,0,0,0,0,0,0,0,0,0,0,0,0,0,0]","[0.0002000000011186387,0.015499999999999403,0.029300000000745285,0.04170000000111784,0.055200000001118354,0.0688000000007456,0.08149999999999835,0.09149999999999991,0.1085999999996261,0.12209999999962662,0.13540000000037367,0.14830000000074506,0.15840000000037335,0.1748000000007437,0.18440000000037315,0.20220000000111682,0.2115000000000009,0.22499999999999787,0.23840000000037165,0.2547000000011188,0.26830000000074605,0.2819000000003733,0.29509999999962844,0.3099999999999987,0.3212000000011166,0.3347000000011171,0.3504000000003735,0.36140000000037276,0.37450000000000117,0.3879999999999981,0.401800000000744,0.41459999999962704,0.4280000000000008,0.4414999999999978,0.4547000000011181,0.46799999999999997,0.4810999999996284,0.4944000000003719,0.5079000000003724,0.5212000000011159,0.534400000000371,0.5479000000003715,0.5610999999996267,0.5745000000000005,0.5899999999999999,0.6009999999999991,0.6144999999999996,0.6278000000007431,0.6413000000007436,0.6544999999999987,0.6677000000011155,0.6813000000007463,0.6948000000007433,0.7078000000007449,0.7215999999996257,0.7343000000007436,0.7447000000011172,0.7612000000011179,0.7747000000011184,0.784599999999628,0.7980999999996286,0.8144999999999989,0.8279999999999994,0.8412000000011162,0.8549000000003737,0.8644999999999996,0.8779000000003734,0.8944000000003705,0.9082000000011163,0.9214000000003715,0.9344999999999999,0.9447000000011165,0.958200000001117,0.9749999999999979,0.9883000000007449,0.9983000000007429,1.0150000000000006,1.0244999999999997,1.0380000000000003,1.054900000000373,1.0687000000011153,1.079300000000746,1.0915999999996266]",0,0,0,0,1,,,,,
B123456789,2024-09-10_14h34.20.023,GoFitts,2023.2.3,Win32,75.18796992,"[-172.68427197186776,-125.46246750520605]","[142.8255925605708,158.6238905356652]",45,426.8989976,4.32,0,0.588,"[-174,-174,-174,-174,-174,-174,-174,-174,-174,-174,-174,-174,-174,-174,-174,-174,-174,-173,-170,-163,-151,-133,-108,-85,-57,-26,0,25,41,54,64,71,76,81,86,90,95,99,104,108,112,115,118,121,124,127,129,130,132,132,133,133,133,133,133,133,133,133,133,133,133,133,133,133,133,133,133,133,133,133,133,133,133,133,133,133,133,133,133,133,133,133,133]","[-132,-132,-132,-132,-132,-132,-132,-132,-132,-132,-132,-132,-132,-132,-132,-132,-132,-132,-128,-120,-103,-82,-53,-26,3,31,54,75,88,99,107,112,117,122,125,129,133,135,138,141,143,145,147,148,150,151,152,154,154,154,154,154,154,154,154,154,154,154,154,154,154,154,154,154,154,154,154,154,154,154,154,154,154,154,154,154,154,154,154,154,154,154,154]","[0,0,0,0,0,0,0,0,0,0,0,0,0,0,0,0,0,0,0,0,0,0,0,0,0,0,0,0,0,0,0,0,0,0,0,0,0,0,0,0,0,0,0,0,0,0,0,0,0,0,0,0,0,0,0,0,0,0,0,0,0,0,0,0,0,0,0,0,0,0,0,0,0,0,0,0,0,0,0,0,0,0,0]","[0,0,0,0,0,0,0,0,0,0,0,0,0,0,0,0,0,0,0,0,0,0,0,0,0,0,0,0,0,0,0,0,0,0,0,0,0,0,0,0,0,0,0,0,0,0,0,0,0,0,0,0,0,0,0,0,0,0,0,0,0,0,0,0,0,0,0,0,0,0,0,0,0,0,0,0,0,0,0,0,0,0,0]","[0,0,0,0,0,0,0,0,0,0,0,0,0,0,0,0,0,0,0,0,0,0,0,0,0,0,0,0,0,0,0,0,0,0,0,0,0,0,0,0,0,0,0,0,0,0,0,0,0,0,0,0,0,0,0,0,0,0,0,0,0,0,0,0,0,0,0,0,0,0,0,0,0,0,0,0,0,0,0,0,0,0,0]","[0.000099999999626732,0.01470000000111682,0.028400000000374348,0.04120000000111901,0.05459999999962761,0.06480000000074426,0.08170000000111699,0.09490000000037213,0.10450000000000159,0.12100000000000222,0.1313000000007456,0.14759999999962758,0.15790000000037452,0.17470000000111696,0.1879000000003721,0.2010000000000005,0.21080000000074506,0.2283000000007469,0.24099999999999966,0.25450000000000017,0.26830000000074605,0.2810999999996291,0.2944000000003726,0.3079000000003731,0.32109999999962824,0.33420000000111827,0.3478000000007455,0.3609000000003739,0.37440000000037443,0.38770000000111793,0.4009999999999998,0.4144000000003736,0.4275999999996287,0.44099999999999895,0.45440000000037273,0.4677000000011198,0.4809000000003749,0.49430000000074514,0.5077000000011189,0.5217000000011183,0.5343000000007443,0.5475999999996297,0.5610999999996267,0.5749000000003726,0.588000000000001,0.6010999999996294,0.6144999999999996,0.627599999999628,0.6412000000011169,0.654599999999629,0.6685000000000016,0.6813000000007463,0.6947000000011165,0.708000000000002,0.7215999999996292,0.7345000000000006,0.7444000000003719,0.7579999999999991,0.775500000000001,0.7889000000003747,0.801400000000374,0.8112000000011186,0.8270999999996285,0.8394000000003743,0.8512000000011177,0.8644999999999996,0.881099999999627,0.894400000000374,0.904599999999629,0.921200000001118,0.9317000000011184,0.9450000000000003,0.9580999999996287,0.9725999999996269,0.9845000000000006,1.000400000000372,1.0110999999996295,1.0250000000000021,1.0417000000011178,1.0519999999999996,1.0645999999996292,1.078200000001118,1.0914000000003732]",1,0,1,0,1,0.2683,,,,
B123456789,2024-09-10_14h34.20.023,GoFitts,2023.2.3,Win32,75.18796992,"[142.8255925605708,158.6238905356652]","[-106.72474940114519,-184.85268838783935]",45,426.8989976,4.32,0,0.4973,"[133,133,133,133,133,133,133,133,133,133,133,133,133,130,125,118,108,93,76,58,39,12,6,-10,-23,-34,-45,-53,-61,-66,-71,-74,-76,-79,-81,-83,-85,-87,-88,-89,-90,-91,-92,-92,-92,-92,-92,-92,-93,-93,-93,-93,-93,-93,-93,-93,-93,-93,-93,-93,-93,-93,-93,-93,-93,-93,-93,-93,-93,-93,-93,-93,-93,-93,-93,-93]","[154,154,154,154,154,154,154,154,154,154,154,154,154,151,143,129,111,84,54,23,-8,-48,-57,-78,-94,-108,-122,-132,-141,-148,-154,-158,-162,-165,-168,-171,-173,-176,-177,-179,-180,-181,-181,-182,-182,-182,-182,-182,-182,-182,-182,-182,-182,-182,-182,-182,-182,-182,-182,-182,-182,-182,-182,-182,-182,-182,-182,-182,-182,-182,-182,-182,-182,-182,-182,-182]","[0,0,0,0,0,0,0,0,0,0,0,0,0,0,0,0,0,0,0,0,0,0,0,0,0,0,0,0,0,0,0,0,0,0,0,0,0,0,0,0,0,0,0,0,0,0,0,0,0,0,0,0,0,0,0,0,0,0,0,0,0,0,0,0,0,0,0,0,0,0,0,0,0,0,0,0]","[0,0,0,0,0,0,0,0,0,0,0,0,0,0,0,0,0,0,0,0,0,0,0,0,0,0,0,0,0,0,0,0,0,0,0,0,0,0,0,0,0,0,0,0,0,0,0,0,0,0,0,0,0,0,0,0,0,0,0,0,0,0,0,0,0,0,0,0,0,0,0,0,0,0,0,0]","[0,0,0,0,0,0,0,0,0,0,0,0,0,0,0,0,0,0,0,0,0,0,0,0,0,0,0,0,0,0,0,0,0,0,0,0,0,0,0,0,0,0,0,0,0,0,0,0,0,0,0,0,0,0,0,0,0,0,0,0,0,0,0,0,0,0,0,0,0,0,0,0,0,0,0,0]","[0,0.015499999999999403,0.02540000000037068,0.038999999999997925,0.05280000000074381,0.06870000000111887,0.07920000000111571,0.09209999999962548,0.10509999999962716,0.12230000000074526,0.13240000000037355,0.1454999999999984,0.15870000000111872,0.17220000000111568,0.18890000000037332,0.20199999999999818,0.21540000000037196,0.22840000000037364,0.2419000000003706,0.25509999999962574,0.26859999999962625,0.2883000000007456,0.29499999999999815,0.30849999999999866,0.3218000000007457,0.3353000000007462,0.34959999999962577,0.36180000000074486,0.37509999999962673,0.3885000000000005,0.401800000000744,0.4150999999996259,0.4285999999996264,0.44190000000037344,0.45520000000111693,0.4684999999999988,0.4827000000011168,0.49730000000074526,0.5084000000003712,0.521800000000745,0.5340999999996257,0.5483000000007436,0.5622000000011163,0.5754000000003714,0.5889000000003719,0.6020000000000003,0.6153000000007438,0.6289999999999978,0.6389000000003726,0.652000000000001,0.6650999999996259,0.6784000000003729,0.6919000000003734,0.705800000000746,0.7189000000003709,0.732099999999626,0.7492000000011174,0.7589000000003736,0.7717000000011183,0.7884999999999991,0.8027000000011171,0.8157000000011188,0.8253000000007447,0.8388000000007452,0.8520000000000003,0.8655000000000008,0.8792000000011164,0.8923000000007448,0.9059999999999988,0.9192000000011156,0.932500000000001,0.9502000000011179,0.9589999999999996,0.9758000000007456,0.9854999999999983,0.9988000000007453]",2,0,2,0,1,0.1888,,,,
B123456789,2024-09-10_14h34.20.023,GoFitts,2023.2.3,Win32,75.18796992,"[-106.72474940114519,-184.85268838783935]","[65.95952257072265,203.00253673585266]",45,426.8989976,4.32,0,0.3087,"[-93,-93,-93,-93,-93,-93,-93,-93,-93,-92,-86,-77,-66,-52,-39,-28,-16,-3,10,23,32,39,45,49,53,56,59,61,62,64,64,65,65,65,65,65,65,65,65,65,65,65,65,65,65,65,65,65,65,65,65,65,65,65,65,65,65,65,65,65,65,65]","[-182,-182,-182,-182,-182,-182,-182,-182,-182,-182,-165,-141,-108,-64,-15,26,65,100,129,154,169,182,190,196,200,204,208,210,212,215,215,216,216,216,216,216,216,216,216,216,216,216,216,216,216,216,216,216,216,216,216,216,216,216,216,216,216,216,216,216,216,216]","[0,0,0,0,0,0,0,0,0,0,0,0,0,0,0,0,0,0,0,0,0,0,0,0,0,0,0,0,0,0,0,0,0,0,0,0,0,0,0,0,0,0,0,0,0,0,0,0,0,0,0,0,0,0,0,0,0,0,0,0,0,0]","[0,0,0,0,0,0,0,0,0,0,0,0,0,0,0,0,0,0,0,0,0,0,0,0,0,0,0,0,0,0,0,0,0,0,0,0,0,0,0,0,0,0,0,0,0,0,0,0,0,0,0,0,0,0,0,0,0,0,0,0,0,0]","[0,0,0,0,0,0,0,0,0,0,0,0,0,0,0,0,0,0,0,0,0,0,0,0,0,0,0,0,0,0,0,0,0,0,0,0,0,0,0,0,0,0,0,0,0,0,0,0,0,0,0,0,0,0,0,0,0,0,0,0,0,0]","[0,0.015599999999626135,0.02540000000037068,0.03909999999962466,0.05230000000074497,0.07450000000000045,0.07869999999925525,0.09559999999962798,0.10919999999925523,0.11890000000037304,0.13530000000074338,0.14869999999925199,0.16180000000074557,0.17530000000074253,0.18859999999962795,0.20190000000037145,0.2154999999999987,0.22869999999925383,0.2419000000003706,0.2554000000003711,0.26859999999962625,0.2821999999992535,0.2953000000007435,0.30869999999925213,0.32180000000074216,0.3351999999992543,0.34859999999962454,0.3619999999999983,0.37530000000074537,0.38880000000074233,0.39830000000074506,0.41540000000037125,0.42849999999999966,0.44180000000074315,0.4551999999992553,0.4650999999996266,0.4819000000003726,0.4920999999996276,0.5085999999996247,0.5189000000003716,0.5353000000007455,0.5455999999996273,0.562300000000743,0.5754999999999981,0.5889000000003719,0.6021999999992538,0.6156999999992543,0.6251999999992535,0.6419000000003727,0.6555,0.6653000000007445,0.6820999999996253,0.6916999999992548,0.7085999999996275,0.7184999999999988,0.7319999999999993,0.7474999999999987,0.7626999999992528,0.7719000000003717,0.7885999999996258,0.7985999999996274,0.8119000000003709]",3,0,3,0,1,0.1353,,,,
B123456789,2024-09-10_14h34.20.023,GoFitts,2023.2.3,Win32,75.18796992,"[65.95952257072265,203.00253673585266]","[-22.311548095054395,-212.28020011426162]",45,426.8989976,4.32,0,0.6121,"[65,65,65,65,65,65,64,62,58,54,49,43,37,30,24,18,14,10,7,4,1,-1,-3,-4,-6,-7,-8,-8,-10,-10,-11,-11,-12,-13,-14,-15,-16,-16,-17,-18,-18,-18,-19,-19,-19,-19,-19,-19,-20,-20,-20,-20,-20,-20,-20,-20,-20,-20,-20,-20,-20,-20,-20,-20,-20,-20,-20,-20,-20,-20,-20,-20,-20,-20,-20,-20,-20,-20,-20,-20,-20,-20,-20,-20,-20]","[216,216,216,216,216,214,208,198,183,161,131,102,72,42,14,-14,-35,-57,-77,-92,-107,-119,-130,-138,-144,-149,-152,-156,-158,-161,-164,-166,-169,-171,-174,-177,-180,-182,-183,-185,-186,-187,-189,-189,-190,-190,-191,-191,-191,-191,-191,-191,-191,-191,-191,-191,-191,-191,-191,-191,-191,-191,-191,-191,-191,-191,-191,-191,-191,-191,-191,-191,-191,-191,-191,-191,-191,-191,-191,-191,-191,-191,-191,-191,-191]","[0,0,0,0,0,0,0,0,0,0,0,0,0,0,0,0,0,0,0,0,0,0,0,0,0,0,0,0,0,0,0,0,0,0,0,0,0,0,0,0,0,0,0,0,0,0,0,0,0,0,0,0,0,0,0,0,0,0,0,0,0,0,0,0,0,0,0,0,0,0,0,0,0,0,0,0,0,0,0,0,0,0,0,0,0]","[0,0,0,0,0,0,0,0,0,0,0,0,0,0,0,0,0,0,0,0,0,0,0,0,0,0,0,0,0,0,0,0,0,0,0,0,0,0,0,0,0,0,0,0,0,0,0,0,0,0,0,0,0,0,0,0,0,0,0,0,0,0,0,0,0,0,0,0,0,0,0,0,0,0,0,0,0,0,0,0,0,0,0,0,0]","[0,0,0,0,0,0,0,0,0,0,0,0,0,0,0,0,0,0,0,0,0,0,0,0,0,0,0,0,0,0,0,0,0,0,0,0,0,0,0,0,0,0,0,0,0,0,0,0,0,0,0,0,0,0,0,0,0,0,0,0,0,0,0,0,0,0,0,0,0,0,0,0,0,0,0,0,0,0,0,0,0,0,0,0,0]","[0,0.016400000000373893,0.03040000000037324,0.03890000000037119,0.055300000000745086,0.0690999999996258,0.08230000000074611,0.09559999999962798,0.10890000000037148,0.122599999999629,0.13569999999925386,0.1490000000000009,0.16250000000000142,0.17559999999962628,0.18900000000000006,0.2025999999996273,0.21559999999962898,0.2289999999999992,0.24249999999999972,0.2555000000000014,0.2688000000007449,0.28249999999999886,0.295699999999254,0.30890000000037077,0.32250000000000156,0.3355999999996264,0.34919999999925366,0.3623000000007437,0.3788000000007443,0.38899999999999935,0.4021999999992545,0.415699999999255,0.42880000000074503,0.44219999999925363,0.45190000000037145,0.46919999999925466,0.4829000000003738,0.4956999999992533,0.5093000000007457,0.5225000000000009,0.5358000000007443,0.5490999999996262,0.5623000000007465,0.5719000000003724,0.5919999999999987,0.5985999999996281,0.6121999999992553,0.628900000000371,0.6389000000003726,0.6555999999996267,0.6690000000000005,0.6786999999992567,0.6923000000007455,0.7055999999996274,0.7226999999992536,0.7359000000003739,0.7455999999996266,0.7624000000003726,0.7761999999992533,0.7890000000000015,0.8026999999992555,0.8158000000007455,0.8294000000003727,0.8428000000007465,0.8524999999999991,0.8694000000003719,0.8826999999992537,0.8926999999992553,0.9091999999992559,0.9230999999996286,0.932500000000001,0.9463000000007433,0.9626999999992556,0.9725000000000001,0.9894999999999996,1.0025000000000013,1.0204000000003717,1.025500000000001,1.0425000000000004,1.0524000000003717,1.0698000000007433,1.078900000000374,1.0959000000003734,1.1058000000007446,1.1224999999999987]",4,0,4,0,1,0.1226,,,,
B123456789,2024-09-10_14h34.20.023,GoFitts,2023.2.3,Win32,75.18796992,"[-22.311548095054395,-212.28020011426162]","[-22.311548095054203,212.28020011426165]",45,426.8989976,4.32,0,0.3295,"[-20,-20,-20,-17,-15,-13,-13,-12,-13,-15,-18,-20,-22,-22,-22,-23,-23,-23,-23,-23,-23,-23,-23,-23,-23,-23,-23,-23,-23,-23,-23,-23,-23,-23,-23,-23,-23,-23,-23,-23,-23,-23,-23,-23,-23,-23,-23,-23,-23,-23,-23,-23,-23,-23,-23,-23,-23,-23,-23,-23,-23,-23,-23,-23]","[-191,-191,-188,-174,-154,-128,-95,-59,-24,7,37,59,78,93,105,114,125,134,143,151,161,170,178,184,194,195,198,202,204,207,208,209,209,210,210,210,210,210,210,210,210,210,210,210,210,210,210,210,210,210,210,210,210,210,210,210,210,210,210,210,210,210,210,210]","[0,0,0,0,0,0,0,0,0,0,0,0,0,0,0,0,0,0,0,0,0,0,0,0,0,0,0,0,0,0,0,0,0,0,0,0,0,0,0,0,0,0,0,0,0,0,0,0,0,0,0,0,0,0,0,0,0,0,0,0,0,0,0,0]","[0,0,0,0,0,0,0,0,0,0,0,0,0,0,0,0,0,0,0,0,0,0,0,0,0,0,0,0,0,0,0,0,0,0,0,0,0,0,0,0,0,0,0,0,0,0,0,0,0,0,0,0,0,0,0,0,0,0,0,0,0,0,0,0]","[0,0,0,0,0,0,0,0,0,0,0,0,0,0,0,0,0,0,0,0,0,0,0,0,0,0,0,0,0,0,0,0,0,0,0,0,0,0,0,0,0,0,0,0,0,0,0,0,0,0,0,0,0,0,0,0,0,0,0,0,0,0,0,0]","[0,0.012600000001491196,0.022300000000743836,0.03910000000148983,0.05250000000000199,0.06590000000037222,0.07910000000148898,0.0924000000003744,0.1057000000011179,0.11910000000149168,0.13240000000037355,0.14580000000074378,0.15920000000111756,0.1724000000003727,0.1857000000011162,0.19910000000148997,0.21240000000037185,0.2257000000011189,0.23940000000037287,0.25240000000037455,0.26690000000037273,0.27920000000111855,0.29230000000074696,0.30560000000149046,0.32960000000149137,0.3327000000011182,0.3422000000011174,0.35540000000037253,0.3691000000014917,0.3823000000007468,0.3960000000000008,0.4093000000007443,0.4231000000014902,0.4366000000014907,0.44950000000000045,0.46330000000074634,0.47660000000148983,0.4896000000014915,0.5036000000014909,0.5162000000011169,0.5384999999999991,0.5437000000011167,0.5562000000011196,0.5694000000003712,0.5831000000014903,0.5966000000014908,0.6093000000007471,0.6232000000011162,0.6400000000000006,0.649400000000373,0.6634999999999991,0.6772000000011182,0.6897000000011175,0.703200000001118,0.7160000000000011,0.7294000000003713,0.7431000000014905,0.756600000001491,0.7698000000007461,0.7833000000007466,0.7967000000011168,0.8094000000003732,0.8228000000007469,0.8361000000014904]",5,0,5,0,1,0.0223,,,,
B123456789,2024-09-10_14h34.20.023,GoFitts,2023.2.3,Win32,75.18796992,"[-22.311548095054203,212.28020011426165]","[65.95952257072261,-203.00253673585266]",45,426.8989976,4.32,0,0.4119,"[-23,-23,-23,-23,-23,-23,-23,-19,-15,-10,-3,3,9,15,21,27,32,36,40,42,44,47,48,50,52,53,54,55,56,57,59,60,62,63,65,65,66,67,67,67,67,67,67,67,67,67,67,67,67,67,67,67,67,67,67,67,67,67,67,67,67,67,67,67,67,67,67,67,67,67]","[210,210,210,210,210,204,189,165,138,109,72,41,13,-15,-41,-63,-81,-98,-114,-125,-134,-141,-148,-153,-158,-163,-165,-169,-172,-176,-178,-182,-186,-188,-190,-192,-193,-194,-194,-195,-195,-195,-195,-195,-195,-195,-195,-195,-195,-195,-195,-195,-195,-195,-195,-195,-195,-195,-195,-195,-195,-195,-195,-195,-195,-195,-195,-195,-195,-195]","[0,0,0,0,0,0,0,0,0,0,0,0,0,0,0,0,0,0,0,0,0,0,0,0,0,0,0,0,0,0,0,0,0,0,0,0,0,0,0,0,0,0,0,0,0,0,0,0,0,0,0,0,0,0,0,0,0,0,0,0,0,0,0,0,0,0,0,0,0,0]","[0,0,0,0,0,0,0,0,0,0,0,0,0,0,0,0,0,0,0,0,0,0,0,0,0,0,0,0,0,0,0,0,0,0,0,0,0,0,0,0,0,0,0,0,0,0,0,0,0,0,0,0,0,0,0,0,0,0,0,0,0,0,0,0,0,0,0,0,0,0]","[0,0,0,0,0,0,0,0,0,0,0,0,0,0,0,0,0,0,0,0,0,0,0,0,0,0,0,0,0,0,0,0,0,0,0,0,0,0,0,0,0,0,0,0,0,0,0,0,0,0,0,0,0,0,0,0,0,0,0,0,0,0,0,0,0,0,0,0,0,0]","[0,0.011900000000373723,0.02569999999925443,0.03850000000000264,0.0515999999996275,0.06500000000000128,0.0782999999988796,0.09109999999963136,0.10449999999999804,0.11779999999888346,0.1310999999996305,0.1444999999999972,0.15769999999925588,0.1711999999992564,0.18459999999963017,0.1979000000003701,0.21129999999888227,0.22440000000037585,0.2377999999988809,0.25140000000036977,0.26450000000000173,0.27800000000000225,0.29119999999925383,0.30469999999925435,0.31790000000037466,0.3346999999992555,0.3447999999988802,0.35859999999962966,0.3716999999992545,0.38490000000037483,0.3985999999996288,0.41190000000037585,0.4246999999992589,0.4387999999988814,0.4515999999996261,0.46529999999888005,0.4790999999996295,0.4915999999996252,0.5047999999988839,0.518099999999631,0.532,0.5455999999996273,0.5586999999992521,0.5719999999999992,0.5854999999999997,0.5990000000000002,0.6117999999988832,0.625199999999257,0.6389999999999993,0.6522999999988848,0.6655999999996247,0.6791999999992591,0.6921999999992572,0.7057999999988844,0.7185999999996291,0.731699999999254,0.7451999999992545,0.7587999999988817,0.7724999999999973,0.7855000000000025,0.7992999999988832,0.8116999999992522,0.8255999999996284,0.8384000000003731,0.8519000000003736,0.8649999999999984,0.8785999999996257,0.8915999999996309,0.9055999999996267,0.9186999999992587]",6,0,6,0,1,0.0782,,,,
B123456789,2024-09-10_14h34.20.023,GoFitts,2023.2.3,Win32,75.18796992,"[65.95952257072261,-203.00253673585266]","[-106.72474940114505,184.8526883878394]",45,426.8989976,4.32,0,0.3584,"[67,67,67,67,67,67,67,67,67,67,60,48,34,17,1,-15,-28,-38,-47,-55,-61,-67,-71,-75,-79,-82,-85,-89,-93,-96,-97,-101,-103,-105,-107,-108,-109,-109,-109,-109,-109,-109,-109,-109,-109,-109,-109,-109,-109,-109,-109,-109,-109,-109,-109,-109,-109,-109,-109,-109,-109,-109,-109,-109,-109,-109]","[-195,-195,-195,-195,-195,-195,-195,-195,-195,-188,-163,-127,-90,-50,-13,22,52,76,99,115,129,142,151,159,164,169,174,177,181,184,185,187,188,189,190,191,191,191,191,191,191,191,191,191,191,191,191,191,191,191,191,191,191,191,191,191,191,191,191,191,191,191,191,191,191,191]","[0,0,0,0,0,0,0,0,0,0,0,0,0,0,0,0,0,0,0,0,0,0,0,0,0,0,0,0,0,0,0,0,0,0,0,0,0,0,0,0,0,0,0,0,0,0,0,0,0,0,0,0,0,0,0,0,0,0,0,0,0,0,0,0,0,0]","[0,0,0,0,0,0,0,0,0,0,0,0,0,0,0,0,0,0,0,0,0,0,0,0,0,0,0,0,0,0,0,0,0,0,0,0,0,0,0,0,0,0,0,0,0,0,0,0,0,0,0,0,0,0,0,0,0,0,0,0,0,0,0,0,0,0]","[0,0,0,0,0,0,0,0,0,0,0,0,0,0,0,0,0,0,0,0,0,0,0,0,0,0,0,0,0,0,0,0,0,0,0,0,0,0,0,0,0,0,0,0,0,0,0,0,0,0,0,0,0,0,0,0,0,0,0,0,0,0,0,0,0,0]","[0.00009999999963383743,0.011699999999258637,0.025099999999632416,0.038500000000006196,0.05219999999926017,0.06569999999926068,0.0789000000003739,0.0926999999992617,0.10480000000075052,0.11850000000000449,0.13180000000075154,0.144400000000374,0.1575999999996327,0.1710999999996332,0.18430000000074642,0.19759999999963185,0.21109999999963236,0.2244000000003723,0.23769999999925773,0.2510999999996315,0.2645000000000053,0.2780000000000058,0.2911999999992574,0.3044000000003777,0.3178000000007515,0.33119999999925653,0.34469999999925705,0.35840000000037264,0.3714000000003779,0.38459999999962946,0.39830000000074506,0.4115999999996305,0.42469999999925534,0.4383000000007513,0.4520000000000053,0.4649000000003767,0.47830000000075046,0.49200000000000443,0.5055999999996317,0.5190000000000055,0.5316999999992618,0.5454000000003774,0.5588000000007511,0.5716999999992609,0.5850000000000009,0.5990000000000038,0.6120000000000019,0.625900000000378,0.6389000000003762,0.6515999999996325,0.6651999999992597,0.6813000000007463,0.6916999999992584,0.7050999999996321,0.7188000000007477,0.7320999999996332,0.7456999999992604,0.7580999999996294,0.7715000000000032,0.7848000000007502,0.7984000000003775,0.811900000000378,0.8260000000000005,0.8390000000000057,0.8518000000007504,0.8654000000003776]",7,0,7,0,1,0.1317,,,,
B123456789,2024-09-10_14h34.20.023,GoFitts,2023.2.3,Win32,75.18796992,"[-106.72474940114505,184.8526883878394]","[142.82559256057087,-158.62389053566517]",45,426.8989976,4.32,0,0.4914,"[-109,-109,-109,-109,-109,-109,-109,-109,-109,-109,-105,-96,-84,-70,-55,-38,-19,0,17,33,45,55,63,71,77,82,87,89,92,94,98,100,102,105,107,109,117,121,127,131,134,137,139,141,143,144,145,145,145,145,145,145,145,145,145,145,145,145,145,145,145,145,145,145,145,145,145,145,145,145,145,145,145,145,145,145]","[191,191,191,191,191,191,191,191,191,190,179,163,142,118,93,66,36,8,-17,-42,-61,-78,-90,-103,-110,-117,-122,-126,-129,-132,-136,-138,-141,-144,-145,-147,-154,-157,-160,-162,-162,-162,-162,-162,-162,-162,-162,-162,-162,-162,-162,-162,-162,-162,-162,-162,-162,-162,-162,-162,-162,-162,-162,-162,-162,-162,-162,-162,-162,-162,-162,-162,-162,-162,-162,-162]","[0,0,0,0,0,0,0,0,0,0,0,0,0,0,0,0,0,0,0,0,0,0,0,0,0,0,0,0,0,0,0,0,0,0,0,0,0,0,0,0,0,0,0,0,0,0,0,0,0,0,0,0,0,0,0,0,0,0,0,0,0,0,0,0,0,0,0,0,0,0,0,0,0,0,0,0]","[0,0,0,0,0,0,0,0,0,0,0,0,0,0,0,0,0,0,0,0,0,0,0,0,0,0,0,0,0,0,0,0,0,0,0,0,0,0,0,0,0,0,0,0,0,0,0,0,0,0,0,0,0,0,0,0,0,0,0,0,0,0,0,0,0,0,0,0,0,0,0,0,0,0,0,0]","[0,0,0,0,0,0,0,0,0,0,0,0,0,0,0,0,0,0,0,0,0,0,0,0,0,0,0,0,0,0,0,0,0,0,0,0,0,0,0,0,0,0,0,0,0,0,0,0,0,0,0,0,0,0,0,0,0,0,0,0,0,0,0,0,0,0,0,0,0,0,0,0,0,0,0,0]","[0.000099999999626732,0.012000000000000455,0.02520000000112077,0.038200000001118894,0.05159999999963105,0.06520000000111992,0.07820000000111804,0.09199999999999875,0.10490000000037725,0.11830000000074392,0.13130000000074915,0.14459999999962747,0.1578000000007478,0.1710999999996261,0.18459999999962662,0.19790000000037367,0.21109999999963236,0.22449999999999903,0.23780000000074608,0.2513000000007466,0.264599999999632,0.2779999999999987,0.291200000001119,0.3047000000011195,0.31830000000074676,0.33120000000111816,0.3445000000000036,0.3582000000011192,0.3719999999999999,0.38540000000037367,0.39809999999962997,0.41170000000111884,0.42570000000112174,0.43790000000037566,0.4533000000007448,0.46480000000074995,0.47800000000000153,0.4914000000003753,0.5047000000011224,0.517900000000374,0.5314000000003745,0.5453000000007435,0.5583000000007488,0.5715999999996271,0.5850999999996276,0.5988000000007503,0.6120000000000019,0.6250999999996267,0.6388000000007494,0.6518000000007476,0.6652000000011213,0.6783000000007462,0.6923000000007491,0.7055000000000007,0.7188000000007477,0.7322000000011215,0.7452000000011196,0.7590000000000003,0.7715999999996299,0.7852000000011188,0.7980000000000018,0.8115000000000023,0.8247000000011226,0.838200000001116,0.8518000000007504,0.8655000000000044,0.8785000000000025,0.8919000000003763,0.9055000000000035,0.9189000000003773,0.9319000000003754,0.945099999999627,0.9592000000011183,0.9717000000011211,0.9852000000011216,0.9993000000007441]",8,0,8,0,1,0.1446,,,,
B123456789,2024-09-10_14h34.20.023,GoFitts,2023.2.3,Win32,75.18796992,"[142.82559256057087,-158.62389053566517]","[-172.68427197186773,125.4624675052061]",45,426.8989976,4.32,0,0.3449,"[145,145,145,145,145,145,145,144,139,126,108,82,52,17,-15,-43,-72,-95,-119,-134,-142,-145,-148,-150,-151,-152,-154,-156,-158,-160,-162,-164,-165,-166,-166,-167,-167,-167,-167,-167,-167,-167,-167,-167,-167,-167,-167,-167,-167,-167,-167,-167,-167,-167,-167,-167,-167,-167,-167,-167,-167,-167,-167,-167,-167]","[-162,-162,-162,-162,-162,-162,-162,-162,-155,-141,-120,-94,-66,-35,-8,17,41,62,82,96,103,107,111,113,115,116,118,120,122,123,125,126,126,126,127,127,127,127,127,127,127,127,127,127,127,127,127,127,127,127,127,127,127,127,127,127,127,127,127,127,127,127,127,127,127]","[0,0,0,0,0,0,0,0,0,0,0,0,0,0,0,0,0,0,0,0,0,0,0,0,0,0,0,0,0,0,0,0,0,0,0,0,0,0,0,0,0,0,0,0,0,0,0,0,0,0,0,0,0,0,0,0,0,0,0,0,0,0,0,0,0]","[0,0,0,0,0,0,0,0,0,0,0,0,0,0,0,0,0,0,0,0,0,0,0,0,0,0,0,0,0,0,0,0,0,0,0,0,0,0,0,0,0,0,0,0,0,0,0,0,0,0,0,0,0,0,0,0,0,0,0,0,0,0,0,0,0]","[0,0,0,0,0,0,0,0,0,0,0,0,0,0,0,0,0,0,0,0,0,0,0,0,0,0,0,0,0,0,0,0,0,0,0,0,0,0,0,0,0,0,0,0,0,0,0,0,0,0,0,0,0,0,0,0,0,0,0,0,0,0,0,0,0]","[0,0.01099999999999568,0.024100000001489263,0.038200000001118894,0.05160000000148557,0.0633000000007442,0.07760000000148892,0.0934999999999988,0.10340000000037008,0.1169000000003706,0.12990000000036872,0.14340000000036923,0.156800000000743,0.17010000000149006,0.18340000000036838,0.19680000000074216,0.20990000000036702,0.22360000000148972,0.23740000000037043,0.25010000000148835,0.2635000000000005,0.2769000000003672,0.29030000000074097,0.30430000000074386,0.317300000000742,0.33070000000111577,0.34490000000037213,0.35740000000036787,0.37110000000149057,0.38400000000000034,0.39770000000111594,0.410499999999999,0.4242000000011146,0.4377000000011151,0.4504000000003714,0.4639000000003719,0.47770000000111423,0.4909000000003729,0.5042000000011129,0.5174000000003716,0.5304999999999964,0.5438000000007435,0.5569000000003683,0.5704000000003688,0.5841000000014915,0.5974000000003699,0.6109000000003704,0.6241000000014907,0.6372000000011155,0.650700000001116,0.6643000000007433,0.6778000000007438,0.6913000000007443,0.7044999999999959,0.7172000000011138,0.7313000000007435,0.7439999999999998,0.7573000000007397,0.7711000000014891,0.7847000000011164,0.797900000000368,0.8109999999999999,0.8245000000000005,0.8377000000011137,0.8512000000011142]",9,0,9,0,1,0.1169,,,,
B123456789,2024-09-10_14h34.20.023,GoFitts,2023.2.3,Win32,75.18796992,"[-172.68427197186773,125.4624675052061]","[194.995820066922,-86.81773260905554]",45,426.8989976,4.32,0,0.5448,"[-167,-167,-167,-167,-167,-167,-167,-167,-167,-167,-167,-167,-167,-162,-154,-139,-116,-85,-49,-13,18,51,73,91,103,112,116,120,123,126,130,133,137,141,146,150,156,162,167,171,175,179,182,184,187,189,191,192,193,193,194,194,194,194,194,194,194,194,194,194,194,194,194,194,194,194,194,194,194,194,194,194,194,194,194,194,194,194,194,194]","[127,127,127,127,127,127,127,127,127,127,127,127,127,123,116,108,96,81,65,50,35,20,8,-2,-11,-16,-21,-24,-27,-30,-33,-36,-40,-43,-47,-51,-56,-60,-64,-68,-70,-73,-76,-78,-81,-83,-84,-85,-86,-87,-87,-87,-87,-87,-87,-87,-87,-87,-87,-87,-87,-87,-87,-87,-87,-87,-87,-87,-87,-87,-87,-87,-87,-87,-87,-87,-87,-87,-87,-87]","[0,0,0,0,0,0,0,0,0,0,0,0,0,0,0,0,0,0,0,0,0,0,0,0,0,0,0,0,0,0,0,0,0,0,0,0,0,0,0,0,0,0,0,0,0,0,0,0,0,0,0,0,0,0,0,0,0,0,0,0,0,0,0,0,0,0,0,0,0,0,0,0,0,0,0,0,0,0,0,0]","[0,0,0,0,0,0,0,0,0,0,0,0,0,0,0,0,0,0,0,0,0,0,0,0,0,0,0,0,0,0,0,0,0,0,0,0,0,0,0,0,0,0,0,0,0,0,0,0,0,0,0,0,0,0,0,0,0,0,0,0,0,0,0,0,0,0,0,0,0,0,0,0,0,0,0,0,0,0,0,0]","[0,0,0,0,0,0,0,0,0,0,0,0,0,0,0,0,0,0,0,0,0,0,0,0,0,0,0,0,0,0,0,0,0,0,0,0,0,0,0,0,0,0,0,0,0,0,0,0,0,0,0,0,0,0,0,0,0,0,0,0,0,0,0,0,0,0,0,0,0,0,0,0,0,0,0,0,0,0,0,0]","[0.000099999999626732,0.0115999999996248,0.02509999999962531,0.038699999999252555,0.0519999999999996,0.06529999999888503,0.07849999999999824,0.09139999999850801,0.10509999999963071,0.11809999999962884,0.13139999999850716,0.14489999999850767,0.15809999999962798,0.1715999999996285,0.18409999999963134,0.19769999999925858,0.21089999999851017,0.22429999999888395,0.23749999999999716,0.2507999999988826,0.26419999999925636,0.27739999999850795,0.290699999999255,0.3041999999992555,0.3173999999985071,0.3308999999985076,0.3442999999988814,0.35769999999925517,0.3712999999988824,0.38450000000000273,0.3976999999992543,0.41129999999888156,0.4245999999996286,0.4377999999988802,0.4510000000000005,0.46439999999851267,0.4776999999992526,0.4911999999992531,0.5042999999988851,0.517599999999625,0.5309999999999988,0.5447999999988795,0.5577999999988847,0.5710999999996247,0.5845999999996252,0.5977999999988839,0.6112999999988844,0.6248999999985116,0.6383999999985122,0.6511999999992568,0.6649999999999991,0.6780999999996311,0.6916999999992584,0.7055000000000007,0.7180999999996338,0.7321999999992563,0.7446999999992592,0.7585999999996282,0.7712999999988845,0.785099999999634,0.7985000000000007,0.8118999999985128,0.8251999999992599,0.8387999999988871,0.8515999999996318,0.8648999999985172,0.8777999999988886,0.8912999999988891,0.9050999999996314,0.918299999998883,0.9318999999985174,0.945299999998884,0.9578999999985136,0.9711999999992607,0.9847999999988879,0.9983999999985151,1.012399999998511,1.0255000000000045,1.03879999999889,1.051799999998888]",10,0,10,0,1,0.1976,,,,
B123456789,2024-09-10_14h34.20.023,GoFitts,2023.2.3,Win32,75.18796992,"[194.995820066922,-86.81773260905554]","[-208.78511513129348,44.37864620018744]",45,426.8989976,4.32,0,0.4915,"[194,194,194,194,194,194,194,189,179,163,142,112,85,53,24,-5,-29,-52,-73,-87,-101,-110,-118,-126,-133,-139,-145,-151,-155,-159,-164,-168,-172,-177,-181,-185,-187,-189,-191,-193,-195,-197,-198,-199,-199,-199,-199,-199,-199,-199,-199,-199,-199,-199,-199,-199,-199,-199,-199,-199,-199,-199,-199,-199,-199,-199,-199,-199,-199,-199,-199,-199,-199,-199,-199,-199]","[-87,-87,-87,-87,-87,-87,-87,-87,-82,-76,-68,-59,-51,-43,-36,-28,-21,-13,-5,-1,3,6,9,12,14,16,18,20,21,23,25,27,29,32,34,36,37,38,39,40,41,42,42,43,44,44,44,44,44,44,44,44,44,44,44,44,44,44,44,44,44,44,44,44,44,44,44,44,44,44,44,44,44,44,44,44]","[0,0,0,0,0,0,0,0,0,0,0,0,0,0,0,0,0,0,0,0,0,0,0,0,0,0,0,0,0,0,0,0,0,0,0,0,0,0,0,0,0,0,0,0,0,0,0,0,0,0,0,0,0,0,0,0,0,0,0,0,0,0,0,0,0,0,0,0,0,0,0,0,0,0,0,0]","[0,0,0,0,0,0,0,0,0,0,0,0,0,0,0,0,0,0,0,0,0,0,0,0,0,0,0,0,0,0,0,0,0,0,0,0,0,0,0,0,0,0,0,0,0,0,0,0,0,0,0,0,0,0,0,0,0,0,0,0,0,0,0,0,0,0,0,0,0,0,0,0,0,0,0,0]","[0,0,0,0,0,0,0,0,0,0,0,0,0,0,0,0,0,0,0,0,0,0,0,0,0,0,0,0,0,0,0,0,0,0,0,0,0,0,0,0,0,0,0,0,0,0,0,0,0,0,0,0,0,0,0,0,0,0,0,0,0,0,0,0,0,0,0,0,0,0,0,0,0,0,0,0]","[0,0.011700000001120259,0.025200000001113665,0.03840000000037236,0.051600000001492674,0.06510000000148608,0.07820000000111804,0.09170000000111855,0.10440000000037486,0.11760000000148807,0.13100000000000023,0.1441000000014867,0.15760000000148722,0.17090000000037264,0.1842000000011197,0.19730000000074455,0.21080000000074506,0.22420000000111884,0.23760000000149262,0.25060000000149074,0.2639999999999958,0.2774000000003696,0.2909000000003701,0.30420000000111713,0.31750000000000256,0.33120000000111816,0.34460000000149194,0.3577000000011168,0.3709000000003684,0.3844000000003689,0.39780000000074267,0.4113000000007432,0.4248000000007437,0.43760000000148835,0.45140000000036906,0.4644000000003743,0.4779000000003748,0.49150000000000205,0.5049000000003687,0.517900000000374,0.5314000000003745,0.5448000000007411,0.5578000000007464,0.5713000000007469,0.5850000000000009,0.5982000000011141,0.6114000000003728,0.624600000001486,0.6377000000011179,0.6517000000011137,0.6651000000014875,0.6779000000003705,0.69170000000112,0.7044999999999959,0.7184000000003721,0.7313000000007435,0.7456000000014882,0.7587000000011201,0.7719999999999985,0.7852000000011188,0.7986000000014926,0.811200000001115,0.8245000000000005,0.8386000000014917,0.8521000000014922,0.8654000000003705,0.8784000000003687,0.8914000000003739,0.9046000000014871,0.9179000000003725,0.931400000000373,0.9454000000003688,0.9583000000007473,0.9733000000007408,0.9843000000007436,0.9979000000003708]",11,0,11,0,1,0.1175,,,,
B123456789,2024-09-10_14h34.20.023,GoFitts,2023.2.3,Win32,75.18796992,"[-208.78511513129348,44.37864620018744]","[213.44949880229018,0]",45,426.8989976,4.32,0,0.4658,"[-199,-199,-199,-199,-199,-199,-199,-199,-199,-194,-177,-159,-135,-109,-78,-46,-17,15,43,69,90,108,121,134,141,150,155,161,165,168,172,175,179,183,187,192,197,202,207,212,215,216,218,219,219,219,219,220,220,220,220,220,220,220,220,220,220,220,220,220,220,220,220,220,220,220,220,220,220,220,220,220,220,220]","[44,44,44,44,44,44,44,44,44,44,44,43,43,41,39,37,34,30,26,22,19,17,14,12,11,10,9,8,7,7,6,6,6,5,4,4,3,2,2,1,0,0,0,0,0,0,-1,-1,-1,-1,-1,-1,-1,-1,-1,-1,-1,-1,-1,-1,-1,-1,-1,-1,-1,-1,-1,-1,-1,-1,-1,-1,-1,-1]","[0,0,0,0,0,0,0,0,0,0,0,0,0,0,0,0,0,0,0,0,0,0,0,0,0,0,0,0,0,0,0,0,0,0,0,0,0,0,0,0,0,0,0,0,0,0,0,0,0,0,0,0,0,0,0,0,0,0,0,0,0,0,0,0,0,0,0,0,0,0,0,0,0,0]","[0,0,0,0,0,0,0,0,0,0,0,0,0,0,0,0,0,0,0,0,0,0,0,0,0,0,0,0,0,0,0,0,0,0,0,0,0,0,0,0,0,0,0,0,0,0,0,0,0,0,0,0,0,0,0,0,0,0,0,0,0,0,0,0,0,0,0,0,0,0,0,0,0,0]","[0,0,0,0,0,0,0,0,0,0,0,0,0,0,0,0,0,0,0,0,0,0,0,0,0,0,0,0,0,0,0,0,0,0,0,0,0,0,0,0,0,0,0,0,0,0,0,0,0,0,0,0,0,0,0,0,0,0,0,0,0,0,0,0,0,0,0,0,0,0,0,0,0,0]","[0,0.01220000000111554,0.02540000000036713,0.038600000001487444,0.05220000000111469,0.0659999999999954,0.07920000000111571,0.09260000000148949,0.10549999999999926,0.11899999999999977,0.13220000000111298,0.14510000000148437,0.1584000000003698,0.17180000000074358,0.18499999999999517,0.19849999999999568,0.21180000000074273,0.22499999999999432,0.2384000000003681,0.2516000000014884,0.26520000000111565,0.27870000000111617,0.2919999999999945,0.3049999999999997,0.3187000000011153,0.33180000000074017,0.3454000000003674,0.3584999999999994,0.37210000000148824,0.3857000000011155,0.39890000000036707,0.4122000000011141,0.42580000000074136,0.4391000000014884,0.45240000000036673,0.4658000000007405,0.479300000000741,0.4924999999999997,0.5054999999999978,0.5189999999999984,0.5321000000014848,0.5459000000003726,0.5591000000014859,0.5724000000003713,0.5852000000011159,0.5984999999999943,0.6129000000003728,0.6266000000014884,0.63980000000074,0.6527000000011114,0.6659999999999968,0.6789999999999949,0.692300000000742,0.7064999999999984,0.7188000000007406,0.732999999999997,0.7459999999999951,0.7593000000007422,0.7729000000003694,0.7858000000007408,0.7988000000007389,0.8126000000014884,0.8254000000003714,0.8394999999999939,0.852800000000741,0.8662000000011147,0.8794000000003663,0.8926000000014866,0.9058000000007453,0.9194000000003726,0.9334999999999951,0.9457000000011178,0.9596000000014868,0.9731000000014873]",12,0,12,0,1,0.1321,,,,
B123456789,2024-09-10_14h34.20.023,GoFitts,2023.2.3,Win32,75.18796992,"[213.44949880229018,0]","[-208.78511513129348,-44.37864620018739]",45,426.8989976,4.32,0,0.4247,"[220,220,220,220,220,220,220,220,220,220,220,218,214,203,187,164,130,94,50,5,-41,-75,-109,-133,-149,-164,-172,-178,-182,-184,-187,-189,-191,-193,-196,-199,-201,-203,-204,-204,-204,-204,-204,-204,-204,-204,-204,-204,-204,-204,-204,-204,-204,-204,-204,-204,-204,-204,-204,-204,-204,-204,-204,-204,-204,-204,-204,-204,-204,-204,-204]","[-1,-1,-1,-1,-1,-1,-1,-1,-1,-1,-1,-1,-1,-2,-3,-5,-7,-10,-13,-18,-21,-24,-26,-27,-28,-28,-28,-29,-29,-30,-30,-31,-32,-32,-33,-34,-35,-36,-36,-37,-37,-37,-37,-37,-37,-37,-37,-37,-37,-37,-37,-37,-37,-37,-37,-37,-37,-37,-37,-37,-37,-37,-37,-37,-37,-37,-37,-37,-37,-37,-37]","[0,0,0,0,0,0,0,0,0,0,0,0,0,0,0,0,0,0,0,0,0,0,0,0,0,0,0,0,0,0,0,0,0,0,0,0,0,0,0,0,0,0,0,0,0,0,0,0,0,0,0,0,0,0,0,0,0,0,0,0,0,0,0,0,0,0,0,0,0,0,0]","[0,0,0,0,0,0,0,0,0,0,0,0,0,0,0,0,0,0,0,0,0,0,0,0,0,0,0,0,0,0,0,0,0,0,0,0,0,0,0,0,0,0,0,0,0,0,0,0,0,0,0,0,0,0,0,0,0,0,0,0,0,0,0,0,0,0,0,0,0,0,0]","[0,0,0,0,0,0,0,0,0,0,0,0,0,0,0,0,0,0,0,0,0,0,0,0,0,0,0,0,0,0,0,0,0,0,0,0,0,0,0,0,0,0,0,0,0,0,0,0,0,0,0,0,0,0,0,0,0,0,0,0,0,0,0,0,0,0,0,0,0,0,0]","[0,0.010900000000376053,0.024400000000376565,0.03750000000000142,0.05130000000074375,0.06459999999962918,0.0784000000003715,0.0913000000007429,0.10459999999962832,0.11769999999925318,0.13080000000074676,0.14419999999925892,0.15749999999999886,0.17059999999963082,0.1848000000007488,0.19680000000074926,0.21030000000074267,0.22369999999925483,0.23690000000037514,0.25019999999925346,0.263699999999254,0.277000000000001,0.2901999999992526,0.3038000000007486,0.31700000000000017,0.33040000000037395,0.34359999999962554,0.3569999999999993,0.37049999999999983,0.38509999999963185,0.3975999999996276,0.41069999999925244,0.42469999999925534,0.4378000000007489,0.4506999999992587,0.46399999999999864,0.47719999999925733,0.4908000000007462,0.5043000000007467,0.5176999999992589,0.5314000000003745,0.5444000000003726,0.5574000000003707,0.5705999999996294,0.5844999999999985,0.5971999999992548,0.6105000000000018,0.6240999999996291,0.6371999999992539,0.6505999999996277,0.6641999999992549,0.677500000000002,0.6905999999996268,0.7043000000007495,0.717800000000743,0.7310999999996284,0.7445000000000022,0.7583000000007445,0.7710999999996275,0.7850999999996304,0.7976999999992529,0.8109999999999999,0.8248000000007494,0.8370000000000033,0.8506999999992573,0.864099999999631,0.8774999999999977,0.8909000000003715,0.9043000000007453,0.9174000000003701,0.9313000000007463]",13,0,13,0,1,0.1847,,,,
B123456789,2024-09-10_14h34.20.023,GoFitts,2023.2.3,Win32,75.18796992,"[-208.78511513129348,-44.37864620018739]","[194.99582006692197,86.81773260905554]",45,426.8989976,4.32,0,0.2783,"[-204,-204,-204,-204,-204,-204,-204,-204,-204,-195,-176,-147,-110,-67,-15,37,80,117,144,162,174,181,184,185,186,188,189,190,193,195,198,200,201,201,201,201,201,201,201,201,201,201,201,201,201,201,201,201,201,201,201,201,201,201,201,201,201,201,201,201]","[-37,-37,-37,-37,-37,-37,-37,-37,-37,-32,-24,-12,-1,11,23,35,45,53,60,65,68,71,73,75,76,77,78,79,80,81,82,84,84,84,84,84,84,84,84,84,84,84,84,84,84,84,84,84,84,84,84,84,84,84,84,84,84,84,84,84]","[0,0,0,0,0,0,0,0,0,0,0,0,0,0,0,0,0,0,0,0,0,0,0,0,0,0,0,0,0,0,0,0,0,0,0,0,0,0,0,0,0,0,0,0,0,0,0,0,0,0,0,0,0,0,0,0,0,0,0,0]","[0,0,0,0,0,0,0,0,0,0,0,0,0,0,0,0,0,0,0,0,0,0,0,0,0,0,0,0,0,0,0,0,0,0,0,0,0,0,0,0,0,0,0,0,0,0,0,0,0,0,0,0,0,0,0,0,0,0,0,0]","[0,0,0,0,0,0,0,0,0,0,0,0,0,0,0,0,0,0,0,0,0,0,0,0,0,0,0,0,0,0,0,0,0,0,0,0,0,0,0,0,0,0,0,0,0,0,0,0,0,0,0,0,0,0,0,0,0,0,0,0]","[0.000099999999626732,0.011400000000371335,0.024700000001111277,0.03849999999999909,0.05240000000036815,0.06520000000111281,0.07859999999962497,0.09140000000036963,0.10490000000037014,0.11820000000111719,0.1312000000011153,0.1444000000003669,0.1575999999996256,0.17099999999999937,0.18430000000073932,0.1977000000011131,0.2112000000011136,0.2244000000003723,0.2384000000003681,0.2515999999996268,0.2650999999996273,0.2783000000007405,0.291800000000741,0.304900000000373,0.3187000000011153,0.33200000000000074,0.3448000000007454,0.357999999999997,0.3712000000011173,0.3844999999999956,0.39770000000111594,0.41099999999999426,0.4243000000007413,0.4377000000011151,0.4515999999996225,0.46430000000074045,0.47799999999999443,0.4915999999996217,0.5045000000000002,0.5182000000011158,0.5317000000011163,0.5450999999996213,0.5579999999999998,0.5715000000000003,0.5854000000003694,0.5983000000007408,0.612200000001117,0.6249000000003733,0.6383000000007399,0.6524999999999963,0.6649000000003724,0.6787000000011147,0.6920000000000002,0.7054000000003668,0.7180999999996232,0.7314000000003702,0.7449999999999974,0.758499999999998,0.7719000000003717,0.7857000000011141]",14,0,14,0,1,0.1311,,,,
B123456789,2024-09-10_14h34.20.023,GoFitts,2023.2.3,Win32,75.18796992,,,,,,0,,,,,,,,,,,,,,0,0,0,1
B123456789,2024-09-10_14h34.20.023,GoFitts,2023.2.3,Win32,75.18796992,"[-100,-67]","[-210.50806796596572,364.6106691202152]",65,842.0322719,4.75,1,0.638,"[-100,-100,-100,-100,-100,-100,-100,-100,-100,-100,-100,-100,-100,-100,-100,-100,-100,-100,-100,-100,-100,-100,-100,-100,-100,-100,-100,-100,-100,-103,-109,-119,-135,-149,-163,-175,-185,-192,-200,-206,-211,-216,-220,-221,-223,-224,-225,-225,-225,-225,-225,-223,-223,-222,-222,-222,-222,-222,-222,-222,-222,-222,-222,-222,-222,-222,-222,-222,-222,-222,-222,-222,-222,-222,-222,-222,-222,-222,-222,-222,-222,-222,-222,-222,-222,-222,-222]","[-67,-67,-67,-67,-67,-67,-67,-67,-67,-67,-67,-67,-67,-67,-67,-67,-67,-67,-67,-67,-67,-67,-67,-67,-67,-67,-67,-64,-43,-17,14,52,97,135,168,200,222,240,256,269,280,290,299,306,313,319,325,332,337,343,348,352,356,358,360,360,361,361,361,361,361,361,361,361,361,361,361,361,361,361,361,361,361,361,361,361,361,361,361,361,361,361,361,361,361,361,361]","[0,0,0,0,0,0,0,0,0,0,0,0,0,0,0,0,0,0,0,0,0,0,0,0,0,0,0,0,0,0,0,0,0,0,0,0,0,0,0,0,0,0,0,0,0,0,0,0,0,0,0,0,0,0,0,0,0,0,0,0,0,0,0,0,0,0,0,0,0,0,0,0,0,0,0,0,0,0,0,0,0,0,0,0,0,0,0]","[0,0,0,0,0,0,0,0,0,0,0,0,0,0,0,0,0,0,0,0,0,0,0,0,0,0,0,0,0,0,0,0,0,0,0,0,0,0,0,0,0,0,0,0,0,0,0,0,0,0,0,0,0,0,0,0,0,0,0,0,0,0,0,0,0,0,0,0,0,0,0,0,0,0,0,0,0,0,0,0,0,0,0,0,0,0,0]","[0,0,0,0,0,0,0,0,0,0,0,0,0,0,0,0,0,0,0,0,0,0,0,0,0,0,0,0,0,0,0,0,0,0,0,0,0,0,0,0,0,0,0,0,0,0,0,0,0,0,0,0,0,0,0,0,0,0,0,0,0,0,0,0,0,0,0,0,0,0,0,0,0,0,0,0,0,0,0,0,0,0,0,0,0,0,0]","[0,0.010900000000376053,0.024400000000376565,0.038900000000374746,0.05140000000037759,0.0649000000003781,0.07820000000111804,0.09100000000000108,0.10470000000112378,0.11790000000037537,0.13150000000000261,0.1449000000003764,0.15880000000074546,0.17100000000000648,0.18440000000037315,0.1982000000011226,0.21130000000074745,0.22500000000000142,0.23820000000112174,0.25150000000000006,0.26440000000037855,0.27840000000037435,0.291200000001119,0.30480000000074625,0.3185000000000002,0.33220000000112293,0.3454000000003745,0.3591000000014901,0.3712000000011244,0.3841000000014958,0.39750000000000085,0.41090000000037463,0.42410000000149495,0.4375,0.4507000000011203,0.4641000000014941,0.4774000000003724,0.49070000000111946,0.5041000000014932,0.5175000000000054,0.5307000000011186,0.5441000000014924,0.5576000000014929,0.5710000000000051,0.584300000000745,0.5978000000007455,0.6111000000014926,0.6242000000011245,0.6380000000000052,0.6516000000014941,0.6645000000000039,0.6780000000000044,0.6912000000011176,0.7044000000003763,0.7179000000003768,0.7313000000007506,0.7450000000000045,0.758100000001491,0.771200000001123,0.7852000000011188,0.798800000000746,0.8117000000011245,0.8253000000007518,0.8383000000007499,0.8515000000000015,0.8651000000014903,0.8781000000014956,0.8915000000000006,0.9049000000003744,0.9183000000007482,0.931700000001122,0.9452000000011225,0.9583000000007473,0.9716000000014944,0.984800000000746,0.9987000000011221,1.0114000000003784,1.0253000000007475,1.0386000000014945,1.0514000000003776,1.0646000000014908,1.078200000001118,1.0916000000014918,1.1057000000011215,1.1186000000014928,1.1315000000000026,1.144700000001123]",0,0,0,0,1,0.3587,,,,
B123456789,2024-09-10_14h34.20.023,GoFitts,2023.2.3,Win32,75.18796992,"[-210.50806796596572,364.6106691202152]","[281.714782322997,-312.87596286030214]",65,842.0322719,4.75,1,0.6386,"[-222,-222,-222,-222,-222,-222,-222,-222,-222,-222,-222,-221,-221,-221,-219,-209,-193,-172,-144,-109,-70,-33,-1,32,61,85,105,121,137,150,159,169,176,182,189,196,204,211,219,225,229,233,237,241,246,250,255,259,263,266,270,273,274,274,274,274,274,274,274,274,274,274,274,274,274,274,274,274,274,274,274,274,274,274,274,274,274,274,274,274,274,274,274,274,274,274,274]","[361,361,361,361,361,361,361,361,361,361,361,361,361,360,358,345,325,300,268,224,174,121,76,27,-20,-60,-92,-118,-142,-162,-177,-189,-198,-206,-214,-221,-230,-235,-243,-248,-253,-258,-263,-268,-274,-278,-283,-287,-290,-293,-296,-298,-299,-299,-299,-299,-299,-299,-299,-299,-299,-299,-299,-299,-299,-299,-299,-299,-299,-299,-299,-299,-299,-299,-299,-299,-299,-299,-299,-299,-299,-299,-299,-299,-299,-299,-299]","[0,0,0,0,0,0,0,0,0,0,0,0,0,0,0,0,0,0,0,0,0,0,0,0,0,0,0,0,0,0,0,0,0,0,0,0,0,0,0,0,0,0,0,0,0,0,0,0,0,0,0,0,0,0,0,0,0,0,0,0,0,0,0,0,0,0,0,0,0,0,0,0,0,0,0,0,0,0,0,0,0,0,0,0,0,0,0]","[0,0,0,0,0,0,0,0,0,0,0,0,0,0,0,0,0,0,0,0,0,0,0,0,0,0,0,0,0,0,0,0,0,0,0,0,0,0,0,0,0,0,0,0,0,0,0,0,0,0,0,0,0,0,0,0,0,0,0,0,0,0,0,0,0,0,0,0,0,0,0,0,0,0,0,0,0,0,0,0,0,0,0,0,0,0,0]","[0,0,0,0,0,0,0,0,0,0,0,0,0,0,0,0,0,0,0,0,0,0,0,0,0,0,0,0,0,0,0,0,0,0,0,0,0,0,0,0,0,0,0,0,0,0,0,0,0,0,0,0,0,0,0,0,0,0,0,0,0,0,0,0,0,0,0,0,0,0,0,0,0,0,0,0,0,0,0,0,0,0,0,0,0,0,0]","[0,0.012000000000000455,0.02520000000112077,0.038900000000374746,0.052600000001490343,0.06560000000149557,0.07930000000074955,0.0924000000003744,0.10600000000000165,0.11910000000149523,0.132000000000005,0.14560000000149387,0.15930000000074784,0.17330000000075074,0.18550000000000466,0.19830000000074932,0.21160000000148926,0.22480000000074796,0.238100000001495,0.25170000000112225,0.2647000000011204,0.27840000000037435,0.29160000000149466,0.3046000000014928,0.3179000000003782,0.3313000000007449,0.3445000000000036,0.3580000000000041,0.37130000000075114,0.3847000000011178,0.3979000000003765,0.4116000000014921,0.42490000000037753,0.43810000000149074,0.4515000000000029,0.4650000000000034,0.4781000000014899,0.4916000000014904,0.5049000000003758,0.5182000000011229,0.5316000000014895,0.5450000000000017,0.558200000001122,0.5715000000000003,0.5850000000000009,0.5984000000003746,0.6118000000007484,0.6251000000014955,0.638600000001496,0.6518000000007476,0.6651000000014946,0.6784000000003729,0.6921000000014956,0.7055000000000007,0.7188000000007477,0.732400000000375,0.7456000000014953,0.7587000000011201,0.7719000000003717,0.7856000000014944,0.7989000000003728,0.8124000000003733,0.8256000000014936,0.8390000000000057,0.8524999999999991,0.8656000000014927,0.8790000000000049,0.8926000000014938,0.9055000000000035,0.9187000000011167,0.9327000000011196,0.9459000000003783,0.9589000000003765,0.9722000000011235,0.9853000000007484,0.9991000000014907,1.0125000000000028,1.0256000000014893,1.038800000000748,1.052500000000002,1.0654000000003734,1.0788000000007472,1.092200000001121,1.1058000000007482,1.1193000000007487,1.13220000000112,1.145300000000745]",1,0,1,0,1,0.2116,,,,
B123456789,2024-09-10_14h34.20.023,GoFitts,2023.2.3,Win32,75.18796992,"[281.714782322997,-312.87596286030214]","[-340.6092088750056,247.46707567795264]",65,842.0322719,4.75,1,0.3992,"[274,274,274,272,265,250,227,189,144,88,31,-33,-92,-145,-180,-200,-215,-225,-231,-237,-244,-250,-258,-264,-272,-279,-286,-293,-301,-308,-314,-321,-325,-329,-331,-333,-335,-335,-336,-337,-337,-337,-337,-337,-337,-337,-337,-337,-337,-337,-337,-337,-337,-337,-337,-337,-337,-337,-337,-337,-337,-337,-337,-337,-337,-337,-337,-337,-337]","[-299,-299,-299,-297,-288,-272,-250,-215,-176,-126,-77,-22,32,78,109,130,148,160,171,181,192,201,210,217,222,227,231,234,237,240,242,244,245,246,246,246,246,246,246,246,246,246,246,246,246,246,246,246,246,246,246,246,246,246,246,246,246,246,246,246,246,246,246,246,246,246,246,246,246]","[0,0,0,0,0,0,0,0,0,0,0,0,0,0,0,0,0,0,0,0,0,0,0,0,0,0,0,0,0,0,0,0,0,0,0,0,0,0,0,0,0,0,0,0,0,0,0,0,0,0,0,0,0,0,0,0,0,0,0,0,0,0,0,0,0,0,0,0,0]","[0,0,0,0,0,0,0,0,0,0,0,0,0,0,0,0,0,0,0,0,0,0,0,0,0,0,0,0,0,0,0,0,0,0,0,0,0,0,0,0,0,0,0,0,0,0,0,0,0,0,0,0,0,0,0,0,0,0,0,0,0,0,0,0,0,0,0,0,0]","[0,0,0,0,0,0,0,0,0,0,0,0,0,0,0,0,0,0,0,0,0,0,0,0,0,0,0,0,0,0,0,0,0,0,0,0,0,0,0,0,0,0,0,0,0,0,0,0,0,0,0,0,0,0,0,0,0,0,0,0,0,0,0,0,0,0,0,0,0]","[0,0.012900000000371392,0.0255999999996277,0.03890000000036764,0.052099999999626334,0.06569999999925358,0.0784000000003715,0.09169999999924983,0.1053000000007458,0.11840000000037065,0.13180000000074443,0.14540000000037168,0.15859999999962326,0.1719000000003703,0.18519999999925574,0.19840000000036895,0.21169999999925437,0.22519999999925489,0.2384000000003681,0.2518000000007419,0.2653000000007424,0.2785999999996278,0.29219999999925506,0.3051999999992532,0.31859999999962696,0.331900000000374,0.3454000000003674,0.35869999999925284,0.3718000000007464,0.38530000000073983,0.3991999999992544,0.4119000000003723,0.4254000000003728,0.4385999999996244,0.4525999999996273,0.4655999999996254,0.47890000000037247,0.492400000000373,0.5059000000003735,0.5193000000007402,0.5329000000003674,0.5460999999996261,0.5596999999992534,0.5724000000003713,0.5864000000003671,0.5989000000003699,0.6126999999992506,0.6263000000007395,0.6391999999992564,0.6528000000007452,0.6659000000003701,0.6793000000007439,0.692300000000742,0.7051999999992518,0.7185999999996255,0.732099999999626,0.7456999999992533,0.7593000000007422,0.7728000000007427,0.7858000000007408,0.7994999999999948,0.8131999999992559,0.8259000000003738,0.8403000000007452,0.8529999999999944,0.8658000000007462,0.878900000000371,0.8919999999999959,0.9055999999996232]",2,0,2,0,1,0.0657,,,,
B123456789,2024-09-10_14h34.20.023,GoFitts,2023.2.3,Win32,75.18796992,"[-340.6092088750056,247.46707567795264]","[384.617378574856,-171.24268980969862]",65,842.0322719,4.75,1,0.5053,"[-337,-337,-337,-337,-337,-336,-334,-331,-323,-308,-289,-264,-225,-184,-127,-65,-1,75,136,192,231,262,285,300,308,312,315,318,320,321,324,327,331,335,340,345,350,356,362,367,372,376,379,380,381,382,382,382,382,382,382,382,382,382,382,382,382,382,382,382,382,382,382,382,382,382,382,382,382,382,382,382,382,382,382,382,382]","[246,246,246,246,246,246,245,243,238,230,220,208,192,174,148,120,91,55,25,-5,-28,-49,-67,-80,-89,-96,-100,-104,-109,-111,-115,-121,-126,-131,-137,-143,-149,-155,-160,-166,-170,-174,-176,-178,-178,-179,-179,-179,-179,-179,-179,-179,-179,-179,-179,-179,-179,-179,-179,-179,-179,-179,-179,-179,-179,-179,-179,-179,-179,-179,-179,-179,-179,-179,-179,-179,-179]","[0,0,0,0,0,0,0,0,0,0,0,0,0,0,0,0,0,0,0,0,0,0,0,0,0,0,0,0,0,0,0,0,0,0,0,0,0,0,0,0,0,0,0,0,0,0,0,0,0,0,0,0,0,0,0,0,0,0,0,0,0,0,0,0,0,0,0,0,0,0,0,0,0,0,0,0,0]","[0,0,0,0,0,0,0,0,0,0,0,0,0,0,0,0,0,0,0,0,0,0,0,0,0,0,0,0,0,0,0,0,0,0,0,0,0,0,0,0,0,0,0,0,0,0,0,0,0,0,0,0,0,0,0,0,0,0,0,0,0,0,0,0,0,0,0,0,0,0,0,0,0,0,0,0,0]","[0,0,0,0,0,0,0,0,0,0,0,0,0,0,0,0,0,0,0,0,0,0,0,0,0,0,0,0,0,0,0,0,0,0,0,0,0,0,0,0,0,0,0,0,0,0,0,0,0,0,0,0,0,0,0,0,0,0,0,0,0,0,0,0,0,0,0,0,0,0,0,0,0,0,0,0,0]","[0,0.012199999999253919,0.02569999999925443,0.03979999999888406,0.052199999999253066,0.06550000000000011,0.0789000000003739,0.09179999999888366,0.10509999999963071,0.11849999999999739,0.13150000000000261,0.14500000000000313,0.15850000000000364,0.1715999999996285,0.18500000000000227,0.19850000000000279,0.21140000000037418,0.2249000000003747,0.23809999999962628,0.25150000000000006,0.26490000000037384,0.2787999999988813,0.29159999999962594,0.304900000000373,0.31829999999888514,0.33179999999888565,0.3450999999996256,0.3584999999999994,0.3720999999996266,0.38559999999962713,0.39909999999962764,0.4119000000003723,0.4251999999992577,0.43849999999999767,0.45159999999962963,0.4647999999988812,0.47859999999963065,0.4916999999992555,0.5052999999988828,0.5185000000000031,0.5316999999992547,0.5455000000000041,0.5585000000000022,0.5720000000000027,0.5854000000003765,0.5999000000003747,0.6126999999992577,0.6255999999996291,0.6394999999999982,0.6525999999996301,0.6659000000003701,0.679000000000002,0.6921999999992536,0.7066999999992589,0.7190000000000012,0.7329000000003703,0.7452999999988847,0.7585999999996247,0.7725999999996276,0.7856999999992524,0.7990999999996262,0.8127999999988802,0.8257999999988854,0.8390999999996254,0.8525999999996259,0.8654999999999973,0.8787999999988827,0.892599999999625,0.9055000000000035,0.9192999999988842,0.9322999999988824,0.9459000000003712,0.9590999999996299,0.9731999999992524,0.985799999998882,0.9990000000000023,1.012199999999254]",3,0,3,0,1,0.1184,,,,
B123456789,2024-09-10_14h34.20.023,GoFitts,2023.2.3,Win32,75.18796992,"[384.617378574856,-171.24268980969862]","[-411.8159232320367,87.53417668316749]",65,842.0322719,4.75,1,0.3583,"[382,382,382,382,382,375,357,328,284,226,157,73,-11,-91,-155,-207,-251,-290,-308,-341,-354,-362,-368,-372,-375,-378,-380,-384,-390,-397,-403,-408,-411,-412,-412,-412,-412,-412,-412,-412,-412,-412,-412,-412,-412,-412,-412,-412,-412,-412,-412,-412,-412,-412,-412,-412,-412,-412,-412,-412,-412,-412,-412,-412,-412,-412]","[-179,-179,-179,-179,-179,-176,-169,-155,-138,-118,-96,-69,-48,-29,-11,3,17,30,37,51,58,62,66,69,70,71,73,74,77,79,80,81,81,81,81,81,81,81,81,81,81,81,81,81,81,81,81,82,82,82,82,82,82,82,82,82,82,82,82,82,82,82,82,82,82,82]","[0,0,0,0,0,0,0,0,0,0,0,0,0,0,0,0,0,0,0,0,0,0,0,0,0,0,0,0,0,0,0,0,0,0,0,0,0,0,0,0,0,0,0,0,0,0,0,0,0,0,0,0,0,0,0,0,0,0,0,0,0,0,0,0,0,0]","[0,0,0,0,0,0,0,0,0,0,0,0,0,0,0,0,0,0,0,0,0,0,0,0,0,0,0,0,0,0,0,0,0,0,0,0,0,0,0,0,0,0,0,0,0,0,0,0,0,0,0,0,0,0,0,0,0,0,0,0,0,0,0,0,0,0]","[0,0,0,0,0,0,0,0,0,0,0,0,0,0,0,0,0,0,0,0,0,0,0,0,0,0,0,0,0,0,0,0,0,0,0,0,0,0,0,0,0,0,0,0,0,0,0,0,0,0,0,0,0,0,0,0,0,0,0,0,0,0,0,0,0,0]","[0,0.012199999999253919,0.025500000000000966,0.03900000000000148,0.052199999999253066,0.06540000000037338,0.07809999999962969,0.0915999999996302,0.10479999999888179,0.11809999999962884,0.13140000000037588,0.1449000000003693,0.15819999999925471,0.17140000000037503,0.18490000000037554,0.1980000000000004,0.21129999999888582,0.22509999999962815,0.23829999999887974,0.2554000000003711,0.2647999999988855,0.2780999999996254,0.29169999999925267,0.30509999999962645,0.31829999999888514,0.33179999999888565,0.34499999999999886,0.3582999999988843,0.37140000000037077,0.3847999999988829,0.3981999999992567,0.41179999999888395,0.4251999999992577,0.4389000000003733,0.45190000000037145,0.46509999999963014,0.4789999999999992,0.49209999999963117,0.5057999999988851,0.5189999999999984,0.5320000000000036,0.545499999999997,0.5584000000003755,0.5727999999988853,0.5860999999996253,0.5994000000003723,0.6120000000000019,0.6259000000003709,0.6390000000000029,0.6525000000000034,0.6655000000000015,0.6792999999988822,0.6920999999996269,0.7056999999992541,0.7190000000000012,0.7316999999992575,0.7456999999992533,0.7587999999988853,0.7717999999988834,0.7850000000000037,0.7987999999988844,0.8122999999988849,0.8260000000000005,0.8392999999988859,0.85190000000037,0.8654999999999973]",4,0,4,0,1,0.0916,,,,
B123456789,2024-09-10_14h34.20.023,GoFitts,2023.2.3,Win32,75.18796992,"[-411.8159232320367,87.53417668316749]","[421.0161359319316,0]",65,842.0322719,4.75,1,0.4915,"[-412,-412,-412,-412,-406,-397,-381,-360,-328,-292,-253,-192,-121,-49,39,116,193,268,329,378,415,438,453,458,458,458,458,458,458,458,458,458,458,458,455,451,446,437,429,423,417,412,410,409,409,409,409,409,409,409,409,409,409,409,409,409,409,409,409,409,409,409,409,409,409,409,409,409,409,409,409,409,409,409,409,409]","[82,82,82,82,82,81,81,79,76,74,72,67,59,51,40,29,17,5,-5,-13,-19,-22,-24,-25,-25,-25,-25,-25,-25,-25,-25,-25,-25,-25,-25,-25,-22,-17,-13,-9,-7,-4,-3,-3,-3,-3,-3,-3,-3,-3,-3,-3,-3,-3,-3,-3,-3,-3,-3,-3,-3,-3,-3,-3,-3,-3,-3,-3,-3,-3,-3,-3,-3,-3,-3,-3]","[0,0,0,0,0,0,0,0,0,0,0,0,0,0,0,0,0,0,0,0,0,0,0,0,0,0,0,0,0,0,0,0,0,0,0,0,0,0,0,0,0,0,0,0,0,0,0,0,0,0,0,0,0,0,0,0,0,0,0,0,0,0,0,0,0,0,0,0,0,0,0,0,0,0,0,0]","[0,0,0,0,0,0,0,0,0,0,0,0,0,0,0,0,0,0,0,0,0,0,0,0,0,0,0,0,0,0,0,0,0,0,0,0,0,0,0,0,0,0,0,0,0,0,0,0,0,0,0,0,0,0,0,0,0,0,0,0,0,0,0,0,0,0,0,0,0,0,0,0,0,0,0,0]","[0,0,0,0,0,0,0,0,0,0,0,0,0,0,0,0,0,0,0,0,0,0,0,0,0,0,0,0,0,0,0,0,0,0,0,0,0,0,0,0,0,0,0,0,0,0,0,0,0,0,0,0,0,0,0,0,0,0,0,0,0,0,0,0,0,0,0,0,0,0,0,0,0,0,0,0]","[0,0.011599999999631905,0.025099999999632416,0.038299999998884005,0.05190000000037287,0.06459999999962918,0.07790000000037622,0.09119999999925454,0.1042999999988865,0.11769999999926029,0.13129999999888753,0.144400000000374,0.15790000000037452,0.17119999999925994,0.1844999999999999,0.1977999999988853,0.21100000000000563,0.22450000000000614,0.2379000000003728,0.2510999999996315,0.26469999999925875,0.27790000000037196,0.29159999999963304,0.30459999999963117,0.3181999999992584,0.33179999999888565,0.34500000000000597,0.3584999999999994,0.37219999999926046,0.3852999999988853,0.39909999999962764,0.41200000000000614,0.42490000000037753,0.4380000000000024,0.4512999999988878,0.4650000000000034,0.4779000000003748,0.49150000000000205,0.5044000000003734,0.5177999999988856,0.5312999999988861,0.5446999999992599,0.5581999999992604,0.5716999999992609,0.5850999999996276,0.5986999999992548,0.6120000000000019,0.6255000000000024,0.6381999999992587,0.6519000000003743,0.6651999999992597,0.6791999999992555,0.6921999999992607,0.7052999999988856,0.7186999999992594,0.7320000000000064,0.745199999999258,0.7585000000000051,0.7715999999996299,0.7859000000003746,0.7991999999992601,0.8121999999992582,0.825299999998883,0.8385000000000034,0.8520000000000039,0.8652999999988822,0.8785999999996292,0.8925999999996321,0.9055999999996303,0.9185999999996284,0.9324000000003778,0.945099999999627,0.9585999999996275,0.9721999999992548,0.9850999999996333,0.9989000000003756]",5,0,5,0,1,0.0912,,,,
B123456789,2024-09-10_14h34.20.023,GoFitts,2023.2.3,Win32,75.18796992,"[421.0161359319316,0]","[-411.8159232320367,-87.53417668316739]",65,842.0322719,4.75,1,0.411,"[409,409,409,409,409,409,409,403,389,363,321,261,196,121,37,-40,-112,-179,-231,-271,-301,-322,-333,-340,-344,-348,-352,-357,-364,-371,-379,-386,-392,-397,-400,-402,-402,-403,-403,-403,-404,-404,-404,-404,-404,-404,-404,-404,-404,-404,-404,-404,-404,-404,-404,-404,-404,-404,-404,-404,-404,-404,-404,-404,-404,-404,-404,-404,-404,-404]","[-3,-3,-3,-3,-3,-3,-3,-3,-4,-6,-9,-15,-22,-29,-39,-48,-58,-68,-75,-80,-83,-84,-85,-85,-86,-86,-87,-88,-88,-89,-90,-90,-90,-90,-90,-90,-90,-90,-90,-90,-90,-90,-90,-90,-90,-90,-90,-90,-90,-90,-90,-90,-90,-90,-90,-90,-90,-90,-90,-90,-90,-90,-90,-90,-90,-90,-90,-90,-90,-90]","[0,0,0,0,0,0,0,0,0,0,0,0,0,0,0,0,0,0,0,0,0,0,0,0,0,0,0,0,0,0,0,0,0,0,0,0,0,0,0,0,0,0,0,0,0,0,0,0,0,0,0,0,0,0,0,0,0,0,0,0,0,0,0,0,0,0,0,0,0,0]","[0,0,0,0,0,0,0,0,0,0,0,0,0,0,0,0,0,0,0,0,0,0,0,0,0,0,0,0,0,0,0,0,0,0,0,0,0,0,0,0,0,0,0,0,0,0,0,0,0,0,0,0,0,0,0,0,0,0,0,0,0,0,0,0,0,0,0,0,0,0]","[0,0,0,0,0,0,0,0,0,0,0,0,0,0,0,0,0,0,0,0,0,0,0,0,0,0,0,0,0,0,0,0,0,0,0,0,0,0,0,0,0,0,0,0,0,0,0,0,0,0,0,0,0,0,0,0,0,0,0,0,0,0,0,0,0,0,0,0,0,0]","[0,0.010500000000000398,0.02400000000000091,0.03750000000000142,0.05150000000000432,0.06419999999925352,0.07740000000037384,0.09100000000000108,0.10390000000037247,0.11740000000037298,0.13059999999963168,0.14369999999925653,0.1573000000007454,0.17099999999999937,0.18390000000037077,0.1971999999992562,0.21050000000000324,0.22380000000074318,0.2373000000007437,0.2505000000000024,0.26380000000074944,0.2771999999992545,0.29050000000000153,0.3039000000003753,0.3173000000007491,0.33100000000000307,0.344300000000743,0.3578000000007435,0.37059999999962656,0.3840999999996271,0.39719999999925903,0.41100000000000136,0.4239999999999995,0.4375,0.4510000000000005,0.4641999999992592,0.4773000000007457,0.4910999999996264,0.5044000000003734,0.5178000000007472,0.5315999999996279,0.544599999999626,0.5583000000007488,0.5714000000003736,0.5845999999996252,0.5981999999992595,0.611300000000746,0.6246999999992582,0.6378000000007447,0.6511999999992568,0.6650999999996259,0.6783000000007462,0.6915999999996316,0.7051999999992589,0.7180999999996303,0.7314000000003773,0.7445000000000022,0.7576999999992537,0.7715000000000032,0.784900000000377,0.7980999999996286,0.8113000000007489,0.8244000000003737,0.8380999999996277,0.8515999999996282,0.8648000000007485,0.8775999999996316,0.8915999999996274,0.9046999999992593,0.9186999999992551]",6,0,6,0,1,0.1174,,,,
B123456789,2024-09-10_14h34.20.023,GoFitts,2023.2.3,Win32,75.18796992,"[-411.8159232320367,-87.53417668316739]","[384.61737857485593,171.24268980969862]",65,842.0322719,4.75,1,0.3707,"[-404,-404,-404,-404,-404,-404,-404,-404,-404,-404,-403,-403,-399,-388,-374,-348,-313,-250,-186,-109,-23,66,148,225,282,323,357,375,387,395,401,404,408,411,413,414,415,415,415,415,415,415,415,415,415,414,412,409,403,397,393,392,391,391,391,391,391,391,391,391,391,391,391,391,391,391,391]","[-90,-90,-90,-90,-90,-90,-90,-90,-90,-90,-90,-90,-90,-87,-83,-75,-64,-43,-22,5,33,60,83,102,116,126,134,140,145,148,151,153,156,158,159,160,160,160,160,160,160,160,160,160,160,160,160,160,161,162,163,163,163,163,163,163,163,163,163,163,163,163,163,163,163,163,163]","[0,0,0,0,0,0,0,0,0,0,0,0,0,0,0,0,0,0,0,0,0,0,0,0,0,0,0,0,0,0,0,0,0,0,0,0,0,0,0,0,0,0,0,0,0,0,0,0,0,0,0,0,0,0,0,0,0,0,0,0,0,0,0,0,0,0,0]","[0,0,0,0,0,0,0,0,0,0,0,0,0,0,0,0,0,0,0,0,0,0,0,0,0,0,0,0,0,0,0,0,0,0,0,0,0,0,0,0,0,0,0,0,0,0,0,0,0,0,0,0,0,0,0,0,0,0,0,0,0,0,0,0,0,0,0]","[0,0,0,0,0,0,0,0,0,0,0,0,0,0,0,0,0,0,0,0,0,0,0,0,0,0,0,0,0,0,0,0,0,0,0,0,0,0,0,0,0,0,0,0,0,0,0,0,0,0,0,0,0,0,0,0,0,0,0,0,0,0,0,0,0,0,0]","[0,0.011000000000002785,0.024900000000371847,0.03780000000074324,0.05130000000074375,0.06530000000074665,0.07750000000000057,0.09090000000037435,0.10459999999962832,0.11759999999962645,0.13130000000074205,0.14450000000000074,0.1575999999996256,0.17070000000111918,0.1839999999999975,0.19709999999962946,0.21050000000000324,0.22380000000074318,0.23720000000111696,0.2502000000011151,0.2637000000011156,0.2772000000011161,0.2904000000003748,0.30370000000111474,0.31720000000111526,0.3303000000007472,0.34359999999962554,0.3572000000011144,0.3707000000011149,0.38370000000112015,0.39720000000112066,0.41040000000037224,0.4240999999996262,0.43740000000037327,0.4509000000003738,0.4642000000011208,0.47780000000074807,0.49120000000111474,0.5049000000003758,0.5177000000011205,0.5314000000003745,0.5447000000011144,0.5579999999999998,0.5710999999996247,0.584300000000745,0.5973000000007431,0.6112000000011193,0.6240999999996291,0.6372000000011155,0.6503000000007475,0.6637000000011213,0.6770999999996263,0.6914999999999978,0.7044000000003763,0.7175000000000011,0.7315999999996308,0.7440999999996265,0.7580000000000027,0.7715000000000032,0.7843000000007478,0.7974999999999994,0.8104999999999976,0.8239999999999981,0.8369000000003695,0.8505000000000038,0.8635999999996287,0.8772000000011175]",7,0,7,0,1,0.184,,,,
B123456789,2024-09-10_14h34.20.023,GoFitts,2023.2.3,Win32,75.18796992,"[384.61737857485593,171.24268980969862]","[-340.60920887500566,-247.46707567795255]",65,842.0322719,4.75,1,0.5459,"[391,391,391,391,391,391,391,391,391,391,391,391,391,391,390,390,385,372,349,312,258,195,126,44,-33,-102,-154,-195,-226,-249,-264,-272,-279,-284,-288,-292,-296,-301,-308,-315,-323,-330,-337,-342,-344,-345,-346,-346,-346,-346,-346,-346,-346,-346,-346,-346,-346,-346,-346,-346,-346,-346,-346,-346,-346,-346,-346,-346,-346,-346,-346,-346,-346,-346,-346,-346,-346,-346,-346,-346]","[163,163,163,163,163,163,163,163,163,163,163,163,163,163,163,163,161,153,140,117,86,51,14,-26,-62,-94,-117,-137,-154,-167,-176,-182,-187,-190,-193,-195,-198,-201,-205,-209,-213,-218,-222,-226,-228,-229,-230,-230,-230,-230,-230,-231,-231,-231,-231,-231,-231,-231,-231,-231,-231,-231,-231,-231,-231,-231,-231,-231,-231,-231,-231,-231,-231,-231,-231,-231,-231,-231,-231,-231]","[0,0,0,0,0,0,0,0,0,0,0,0,0,0,0,0,0,0,0,0,0,0,0,0,0,0,0,0,0,0,0,0,0,0,0,0,0,0,0,0,0,0,0,0,0,0,0,0,0,0,0,0,0,0,0,0,0,0,0,0,0,0,0,0,0,0,0,0,0,0,0,0,0,0,0,0,0,0,0,0]","[0,0,0,0,0,0,0,0,0,0,0,0,0,0,0,0,0,0,0,0,0,0,0,0,0,0,0,0,0,0,0,0,0,0,0,0,0,0,0,0,0,0,0,0,0,0,0,0,0,0,0,0,0,0,0,0,0,0,0,0,0,0,0,0,0,0,0,0,0,0,0,0,0,0,0,0,0,0,0,0]","[0,0,0,0,0,0,0,0,0,0,0,0,0,0,0,0,0,0,0,0,0,0,0,0,0,0,0,0,0,0,0,0,0,0,0,0,0,0,0,0,0,0,0,0,0,0,0,0,0,0,0,0,0,0,0,0,0,0,0,0,0,0,0,0,0,0,0,0,0,0,0,0,0,0,0,0,0,0,0,0]","[0,0.012599999999629574,0.026099999999630086,0.039300000000743296,0.05259999999962872,0.06619999999925597,0.07959999999962974,0.09280000000074295,0.10609999999962838,0.11950000000000216,0.1328000000007421,0.14609999999962753,0.15919999999925238,0.17249999999999943,0.18609999999962668,0.19919999999925153,0.2128000000007475,0.22569999999925727,0.23930000000074614,0.252400000000371,0.2656999999992564,0.2790999999996302,0.2923000000007434,0.30569999999925557,0.31930000000074443,0.33259999999962986,0.3456999999992547,0.3590999999996285,0.3723000000007417,0.38569999999925386,0.3991999999992544,0.41230000000074796,0.4264999999999972,0.4393000000007419,0.45269999999925403,0.46569999999925216,0.47919999999925267,0.49259999999962645,0.5056999999992513,0.519400000000374,0.5323000000007454,0.5459000000003726,0.5590999999996242,0.5728000000007469,0.5858000000007451,0.5993000000007456,0.6124000000003704,0.6259000000003709,0.6390999999996296,0.6524000000003696,0.6658000000007434,0.6790999999996288,0.6924000000003687,0.7058000000007425,0.7190000000000012,0.7325000000000017,0.7456999999992533,0.7593000000007422,0.7725999999996276,0.7859000000003746,0.799199999999253,0.8125,0.8271999999992516,0.8393000000007476,0.8525999999996259,0.8659000000003729,0.8791999999992512,0.8924999999999983,0.9061999999992523,0.9193000000007459,0.9326999999992509,0.9459000000003712,0.9594000000003717,0.9725999999996304,0.9858000000007436,0.9996999999992511,1.0128000000007447,1.026699999999252,1.0398000000007457,1.052500000000002]",8,0,8,0,1,0.2392,,,,
B123456789,2024-09-10_14h34.20.023,GoFitts,2023.2.3,Win32,75.18796992,"[-340.60920887500566,-247.46707567795255]","[281.7147823229969,312.8759628603022]",65,842.0322719,4.75,1,0.4799,"[-346,-346,-346,-346,-346,-345,-341,-331,-310,-280,-229,-174,-104,-38,32,95,154,192,216,231,238,241,242,243,244,246,246,247,248,248,248,248,248,248,248,249,251,253,255,257,258,260,260,261,261,261,261,262,262,262,262,262,262,262,262,262,262,262,262,262,262,262,262,262,262,262,262,262,262,262,262,262,262,262,262]","[-231,-231,-231,-231,-231,-231,-227,-216,-197,-172,-133,-92,-41,7,53,96,137,163,185,200,210,218,223,227,232,239,246,252,259,265,270,276,281,287,292,298,303,308,310,313,314,316,316,317,317,317,317,317,317,317,317,317,317,317,317,317,317,317,317,317,317,317,317,317,317,317,317,317,317,317,317,317,317,317,317]","[0,0,0,0,0,0,0,0,0,0,0,0,0,0,0,0,0,0,0,0,0,0,0,0,0,0,0,0,0,0,0,0,0,0,0,0,0,0,0,0,0,0,0,0,0,0,0,0,0,0,0,0,0,0,0,0,0,0,0,0,0,0,0,0,0,0,0,0,0,0,0,0,0,0,0]","[0,0,0,0,0,0,0,0,0,0,0,0,0,0,0,0,0,0,0,0,0,0,0,0,0,0,0,0,0,0,0,0,0,0,0,0,0,0,0,0,0,0,0,0,0,0,0,0,0,0,0,0,0,0,0,0,0,0,0,0,0,0,0,0,0,0,0,0,0,0,0,0,0,0,0]","[0,0,0,0,0,0,0,0,0,0,0,0,0,0,0,0,0,0,0,0,0,0,0,0,0,0,0,0,0,0,0,0,0,0,0,0,0,0,0,0,0,0,0,0,0,0,0,0,0,0,0,0,0,0,0,0,0,0,0,0,0,0,0,0,0,0,0,0,0,0,0,0,0,0,0]","[0,0.01260000000148409,0.025900000000369516,0.03940000000037003,0.05290000000037054,0.06610000000148375,0.07949999999999591,0.09260000000148949,0.10610000000149,0.11930000000074159,0.13240000000036645,0.1459999999999937,0.15910000000148727,0.1732000000011169,0.18580000000073937,0.19920000000111315,0.21249999999999858,0.22610000000148744,0.2392000000011123,0.2526000000014861,0.26599999999999824,0.2799000000003673,0.2924999999999969,0.3064999999999998,0.3194999999999979,0.3332000000011135,0.3464000000003722,0.35949999999999704,0.37370000000111503,0.38640000000037134,0.3997000000011113,0.4133000000007385,0.42680000000073903,0.43970000000111753,0.4534000000003715,0.46640000000036963,0.47990000000037014,0.49280000000074153,0.5064000000003688,0.5196000000014891,0.5333000000007431,0.5464999999999947,0.5601000000014835,0.5734999999999957,0.5866000000014893,0.5999999999999943,0.6132000000011146,0.6271000000014837,0.6397000000011133,0.6549000000003673,0.6663000000007386,0.6809000000003707,0.6929000000003711,0.7061000000014843,0.719300000000743,0.7331000000014853,0.7464999999999975,0.7598000000007445,0.7733000000007451,0.7868000000007385,0.8001000000014855,0.8134999999999977,0.8269999999999982,0.8402000000011114,0.8564000000003702,0.8664000000003682,0.8799999999999955,0.8932000000011158,0.9071000000014848,0.9207000000011121,0.933800000000744,0.947100000001484,0.9601000000014892,0.9748000000007409,0.9873000000007437]",9,0,9,0,1,0.0926,,,,
B123456789,2024-09-10_14h34.20.023,GoFitts,2023.2.3,Win32,75.18796992,"[281.7147823229969,312.8759628603022]","[-210.508067965966,-364.61066912021505]",65,842.0322719,4.75,1,0.4109,"[262,262,260,256,250,241,227,209,190,166,142,111,80,53,23,0,-21,-38,-55,-68,-80,-92,-104,-115,-126,-135,-145,-154,-163,-170,-177,-184,-189,-193,-197,-200,-202,-204,-205,-205,-206,-206,-206,-206,-206,-206,-206,-206,-206,-206,-206,-206,-206,-206,-206,-206,-206,-206,-206,-206,-206,-206,-206,-206,-206,-206,-206,-206,-206,-206]","[317,317,311,300,285,262,230,191,146,93,43,-15,-67,-110,-151,-182,-209,-230,-249,-263,-274,-285,-294,-304,-312,-319,-326,-332,-337,-341,-345,-348,-351,-353,-355,-357,-358,-358,-359,-359,-359,-359,-359,-359,-359,-359,-359,-359,-359,-359,-359,-359,-359,-359,-359,-359,-359,-359,-359,-359,-359,-359,-359,-359,-359,-359,-359,-359,-359,-359]","[0,0,0,0,0,0,0,0,0,0,0,0,0,0,0,0,0,0,0,0,0,0,0,0,0,0,0,0,0,0,0,0,0,0,0,0,0,0,0,0,0,0,0,0,0,0,0,0,0,0,0,0,0,0,0,0,0,0,0,0,0,0,0,0,0,0,0,0,0,0]","[0,0,0,0,0,0,0,0,0,0,0,0,0,0,0,0,0,0,0,0,0,0,0,0,0,0,0,0,0,0,0,0,0,0,0,0,0,0,0,0,0,0,0,0,0,0,0,0,0,0,0,0,0,0,0,0,0,0,0,0,0,0,0,0,0,0,0,0,0,0]","[0,0,0,0,0,0,0,0,0,0,0,0,0,0,0,0,0,0,0,0,0,0,0,0,0,0,0,0,0,0,0,0,0,0,0,0,0,0,0,0,0,0,0,0,0,0,0,0,0,0,0,0,0,0,0,0,0,0,0,0,0,0,0,0,0,0,0,0,0,0]","[0,0.011300000000744603,0.024599999999622923,0.037099999999625766,0.050499999999999545,0.06380000000074659,0.07699999999999818,0.09040000000037196,0.10370000000111901,0.11720000000111952,0.1304000000003711,0.1438000000007449,0.15740000000037213,0.170499999999997,0.18430000000074642,0.19730000000074455,0.21059999999962287,0.2235999999996281,0.2373000000007437,0.2505999999996291,0.26390000000036906,0.27709999999962776,0.29059999999962827,0.3039000000003682,0.3170999999996269,0.33040000000037395,0.34390000000037446,0.35730000000074114,0.37059999999962656,0.3844000000003689,0.3974000000003741,0.41090000000037463,0.423800000000746,0.43740000000037327,0.45059999999962486,0.46409999999962537,0.47800000000000153,0.4913000000007415,0.5040999999996245,0.517599999999625,0.5309000000003721,0.5439999999999969,0.5582000000011149,0.5713000000007469,0.5847000000011136,0.5979000000003722,0.611300000000746,0.6247000000011127,0.6379000000003714,0.6512000000011184,0.664700000001119,0.6783000000007462,0.6914999999999978,0.7048000000007448,0.7179999999999964,0.7314000000003702,0.7447000000011172,0.7579999999999956,0.7715999999996228,0.7847000000011164,0.7974999999999994,0.8105999999996243,0.8239000000003713,0.8373000000007451,0.8509999999999991,0.865000000000002,0.8775999999996245,0.8909999999999982,0.9045999999996255,0.9185000000000016]",10,0,10,0,1,0.0505,,,,
B123456789,2024-09-10_14h34.20.023,GoFitts,2023.2.3,Win32,75.18796992,"[-210.508067965966,-364.61066912021505]","[130.10114090903983,400.4101395434697]",65,842.0322719,4.75,1,0.5583,"[-206,-206,-206,-206,-206,-206,-206,-206,-206,-206,-206,-204,-202,-197,-189,-176,-158,-135,-111,-86,-62,-44,-25,-7,7,19,31,44,56,71,83,92,99,103,107,110,111,112,114,116,118,119,121,123,124,126,126,126,126,126,126,126,126,126,126,126,126,126,126,126,126,126,126,126,126,126,126,126,126,126,126,126,126,126,126,126,126,126,126,126,126]","[-359,-359,-359,-359,-359,-359,-359,-359,-359,-359,-359,-357,-351,-337,-316,-284,-241,-187,-123,-52,34,103,164,211,243,265,285,303,316,326,332,336,339,341,345,349,351,354,356,359,364,368,374,381,387,392,394,396,396,397,397,397,397,397,397,397,397,397,397,397,397,397,397,397,397,397,397,397,397,397,397,397,397,397,397,397,397,397,397,397,397]","[0,0,0,0,0,0,0,0,0,0,0,0,0,0,0,0,0,0,0,0,0,0,0,0,0,0,0,0,0,0,0,0,0,0,0,0,0,0,0,0,0,0,0,0,0,0,0,0,0,0,0,0,0,0,0,0,0,0,0,0,0,0,0,0,0,0,0,0,0,0,0,0,0,0,0,0,0,0,0,0,0]","[0,0,0,0,0,0,0,0,0,0,0,0,0,0,0,0,0,0,0,0,0,0,0,0,0,0,0,0,0,0,0,0,0,0,0,0,0,0,0,0,0,0,0,0,0,0,0,0,0,0,0,0,0,0,0,0,0,0,0,0,0,0,0,0,0,0,0,0,0,0,0,0,0,0,0,0,0,0,0,0,0]","[0,0,0,0,0,0,0,0,0,0,0,0,0,0,0,0,0,0,0,0,0,0,0,0,0,0,0,0,0,0,0,0,0,0,0,0,0,0,0,0,0,0,0,0,0,0,0,0,0,0,0,0,0,0,0,0,0,0,0,0,0,0,0,0,0,0,0,0,0,0,0,0,0,0,0,0,0,0,0,0,0]","[0,0.011500000000005173,0.024800000000745115,0.037900000000377077,0.05100000000000193,0.0649000000003781,0.07850000000000534,0.09219999999925932,0.10430000000074813,0.11790000000037537,0.1309000000003735,0.14430000000074727,0.15750000000000597,0.17059999999963082,0.1840000000000046,0.19740000000037838,0.21050000000000324,0.2238000000007503,0.23719999999925534,0.25040000000037566,0.26390000000037617,0.2774000000003767,0.290699999999255,0.3039000000003753,0.3173000000007491,0.33040000000037395,0.34390000000037446,0.35730000000074824,0.3706999999992604,0.3838000000007469,0.39719999999925903,0.4105999999996328,0.4240000000000066,0.43759999999963384,0.4506999999992587,0.46430000000074756,0.4776999999992597,0.49119999999926023,0.5044000000003734,0.5175000000000054,0.5308000000007453,0.5446999999992599,0.5583000000007488,0.5705999999996294,0.5839000000003765,0.5975000000000037,0.6108000000007507,0.6245000000000047,0.6384000000003738,0.6510000000000034,0.6645999999996306,0.6776999999992555,0.6910999999996292,0.7043000000007495,0.7179000000003768,0.731500000000004,0.7450999999996313,0.7583000000007516,0.7713000000007497,0.784900000000377,0.7980000000000018,0.8113000000007489,0.824699999999261,0.8379000000003742,0.8520000000000039,0.8649000000003753,0.8781999999992607,0.8910999999996321,0.9046999999992593,0.9180000000000064,0.931400000000373,0.944500000000005,0.958199999999259,0.9715999999996328,0.9845999999996309,0.9983000000007465,1.011599999999632,1.0245000000000033,1.0380000000000038,1.0515000000000043,1.064300000000749]",11,0,11,0,1,0.1839,,,,
B123456789,2024-09-10_14h34.20.023,GoFitts,2023.2.3,Win32,75.18796992,"[130.10114090903983,400.4101395434697]","[-44.00816969985063,-418.7097654876512]",65,842.0322719,4.75,1,0.6791,"[126,126,126,126,126,126,126,126,126,126,126,126,126,126,126,126,125,123,119,114,107,98,89,74,58,41,23,8,-4,-13,-20,-26,-30,-33,-36,-37,-40,-41,-44,-46,-48,-50,-52,-52,-54,-54,-54,-54,-53,-53,-52,-51,-50,-49,-49,-48,-48,-48,-48,-48,-48,-48,-48,-48,-48,-48,-48,-48,-48,-48,-48,-48,-48,-48,-48,-48,-48,-48,-48,-48,-48,-48,-48,-48,-48,-48,-48,-48,-48,-48]","[397,397,397,397,397,397,397,397,397,397,397,397,397,397,397,393,388,374,355,329,290,240,187,121,55,-10,-74,-130,-175,-208,-233,-248,-261,-269,-277,-283,-288,-295,-301,-308,-317,-325,-333,-340,-347,-354,-361,-367,-374,-379,-385,-389,-394,-398,-401,-403,-404,-405,-405,-405,-405,-406,-406,-406,-406,-406,-406,-406,-406,-406,-406,-406,-406,-406,-406,-406,-406,-406,-406,-406,-406,-406,-406,-406,-406,-406,-406,-406,-406,-406]","[0,0,0,0,0,0,0,0,0,0,0,0,0,0,0,0,0,0,0,0,0,0,0,0,0,0,0,0,0,0,0,0,0,0,0,0,0,0,0,0,0,0,0,0,0,0,0,0,0,0,0,0,0,0,0,0,0,0,0,0,0,0,0,0,0,0,0,0,0,0,0,0,0,0,0,0,0,0,0,0,0,0,0,0,0,0,0,0,0,0]","[0,0,0,0,0,0,0,0,0,0,0,0,0,0,0,0,0,0,0,0,0,0,0,0,0,0,0,0,0,0,0,0,0,0,0,0,0,0,0,0,0,0,0,0,0,0,0,0,0,0,0,0,0,0,0,0,0,0,0,0,0,0,0,0,0,0,0,0,0,0,0,0,0,0,0,0,0,0,0,0,0,0,0,0,0,0,0,0,0,0]","[0,0,0,0,0,0,0,0,0,0,0,0,0,0,0,0,0,0,0,0,0,0,0,0,0,0,0,0,0,0,0,0,0,0,0,0,0,0,0,0,0,0,0,0,0,0,0,0,0,0,0,0,0,0,0,0,0,0,0,0,0,0,0,0,0,0,0,0,0,0,0,0,0,0,0,0,0,0,0,0,0,0,0,0,0,0,0,0,0,0]","[0.00009999999963383743,0.012099999999627187,0.026099999999630086,0.03900000000000148,0.052900000000377645,0.06590000000037577,0.0789000000003739,0.0926999999992546,0.10630000000075057,0.11950000000000216,0.1330999999996294,0.14590000000037406,0.15909999999963276,0.17209999999963088,0.18550000000000466,0.19900000000000517,0.21250000000000568,0.22500000000000142,0.23850000000000193,0.251800000000749,0.26500000000000057,0.27840000000037435,0.2916999999992598,0.3049999999999997,0.3184000000003735,0.3318000000007473,0.34500000000000597,0.35840000000037264,0.37190000000037315,0.38509999999963185,0.39830000000074506,0.4119000000003723,0.42550000000000665,0.43869999999925824,0.4518000000007447,0.46509999999963014,0.4785000000000039,0.49200000000000443,0.5050999999996293,0.5184000000003763,0.5319000000003768,0.5451999999992552,0.5583000000007488,0.571900000000376,0.5850000000000009,0.5986999999992548,0.6123000000007508,0.6251999999992606,0.6386999999992611,0.652000000000001,0.6654000000003748,0.6791999999992555,0.6920000000000002,0.7053000000007472,0.7189000000003745,0.7320999999996332,0.7458000000007488,0.7598000000007517,0.7723000000007474,0.7858000000007479,0.7989000000003728,0.8125,0.825599999999632,0.838900000000379,0.8529000000003748,0.8658000000007462,0.8790999999996316,0.8925000000000054,0.9061999999992594,0.9193000000007459,0.9329000000003731,0.9456999999992561,0.9588000000007497,0.9725000000000037,0.986300000000746,0.9993000000007513,1.0125000000000028,1.0259000000003766,1.0389000000003747,1.0521999999992602,1.0651999999992583,1.0793000000007495,1.0929000000003768,1.1058000000007482,1.1191999999992603,1.1325999999996341,1.1460000000000008,1.1588000000007455,1.1725000000000065,1.1863000000007489]",12,0,12,0,1,0.2384,,,,
B123456789,2024-09-10_14h34.20.023,GoFitts,2023.2.3,Win32,75.18796992,"[-44.00816969985063,-418.7097654876512]","[-44.00816969985026,418.7097654876513]",65,842.0322719,4.75,1,0.6644,"[-48,-48,-48,-48,-48,-48,-48,-48,-48,-48,-48,-48,-48,-48,-48,-48,-48,-48,-48,-48,-48,-48,-47,-47,-42,-34,-25,-16,-5,8,18,20,15,3,-12,-25,-37,-44,-49,-52,-53,-54,-55,-55,-55,-55,-55,-55,-55,-55,-54,-53,-51,-48,-45,-43,-42,-41,-41,-41,-41,-41,-41,-41,-41,-41,-41,-41,-41,-41,-41,-41,-41,-41,-41,-41,-41,-41,-41,-41,-41,-41,-41,-41,-41,-41,-41,-41,-41]","[-406,-406,-406,-406,-406,-406,-406,-406,-406,-406,-406,-406,-406,-406,-406,-406,-406,-406,-406,-406,-406,-406,-406,-406,-393,-366,-336,-299,-249,-192,-127,-57,13,86,148,198,237,263,284,300,312,323,332,341,349,358,365,370,376,382,389,396,403,411,417,421,424,426,427,427,427,427,427,427,427,427,427,427,427,427,427,427,427,427,427,427,427,427,427,427,427,427,427,427,427,427,427,427,427]","[0,0,0,0,0,0,0,0,0,0,0,0,0,0,0,0,0,0,0,0,0,0,0,0,0,0,0,0,0,0,0,0,0,0,0,0,0,0,0,0,0,0,0,0,0,0,0,0,0,0,0,0,0,0,0,0,0,0,0,0,0,0,0,0,0,0,0,0,0,0,0,0,0,0,0,0,0,0,0,0,0,0,0,0,0,0,0,0,0]","[0,0,0,0,0,0,0,0,0,0,0,0,0,0,0,0,0,0,0,0,0,0,0,0,0,0,0,0,0,0,0,0,0,0,0,0,0,0,0,0,0,0,0,0,0,0,0,0,0,0,0,0,0,0,0,0,0,0,0,0,0,0,0,0,0,0,0,0,0,0,0,0,0,0,0,0,0,0,0,0,0,0,0,0,0,0,0,0,0]","[0,0,0,0,0,0,0,0,0,0,0,0,0,0,0,0,0,0,0,0,0,0,0,0,0,0,0,0,0,0,0,0,0,0,0,0,0,0,0,0,0,0,0,0,0,0,0,0,0,0,0,0,0,0,0,0,0,0,0,0,0,0,0,0,0,0,0,0,0,0,0,0,0,0,0,0,0,0,0,0,0,0,0,0,0,0,0,0,0]","[0,0.011300000000744603,0.024800000000745115,0.03819999999925727,0.051499999999997215,0.06459999999962918,0.07809999999962969,0.09090000000037435,0.10519999999925744,0.1180000000000021,0.1309000000003735,0.1446999999992542,0.15790000000037452,0.17119999999925284,0.18459999999962662,0.197499999999998,0.21130000000074745,0.2249000000003747,0.237599999999631,0.2515999999996268,0.2644999999999982,0.2783000000007476,0.2909000000003701,0.304900000000373,0.31799999999999784,0.3305000000000007,0.34380000000074773,0.3569999999999993,0.370199999999258,0.3838000000007469,0.39699999999999847,0.41040000000037224,0.423800000000746,0.43709999999963145,0.45030000000074466,0.46380000000074517,0.47719999999925733,0.49040000000037054,0.503900000000371,0.5171999999992565,0.5305000000000035,0.5439000000003702,0.5570000000000022,0.5705999999996294,0.5839000000003765,0.5971999999992548,0.6105999999996286,0.6238000000007489,0.6371999999992539,0.6505999999996277,0.6645000000000039,0.6771999999992531,0.6906999999992536,0.7036999999992588,0.7170999999996255,0.7309000000003749,0.743699999999258,0.7571999999992585,0.7708000000007473,0.7844000000003746,0.7975999999996262,0.8113000000007489,0.8246999999992539,0.8376999999992591,0.8509999999999991,0.8648000000007485,0.8775999999996316,0.8915000000000006,0.9044999999999987,0.9179999999999993,0.9313000000007463,0.945099999999627,0.9583000000007473,0.9713000000007455,0.9841999999992552,0.9974000000003755,1.0120999999996272,1.02459999999963,1.0380000000000038,1.0514000000003705,1.064300000000749,1.077699999999254,1.091000000000001,1.1043000000007481,1.118000000000002,1.1310000000000002,1.1445000000000007,1.158099999999628,1.1716999999992552]",13,0,13,0,1,0.3305,,,,
B123456789,2024-09-10_14h34.20.023,GoFitts,2023.2.3,Win32,75.18796992,"[-44.00816969985026,418.7097654876513]","[130.10114090903974,-400.41013954346977]",65,842.0322719,4.75,1,0.7043,"[-41,-41,-41,-41,-41,-41,-41,-41,-41,-41,-41,-41,-41,-41,-41,-41,-41,-41,-37,-31,-24,-14,-3,7,20,30,39,49,56,62,68,72,77,82,86,90,93,95,99,102,106,109,112,115,119,121,124,126,128,129,131,132,133,134,134,134,134,134,134,134,134,134,134,134,134,134,134,134,134,134,134,134,134,134,134,134,134,134,134,134,134,134,134,134,134,134,134,134,134,134,134,134]","[427,427,427,427,427,427,427,427,427,427,427,427,427,427,427,427,427,426,404,370,331,281,217,159,97,41,-3,-48,-79,-106,-133,-154,-177,-197,-213,-226,-238,-247,-258,-268,-277,-285,-293,-301,-310,-317,-324,-330,-336,-343,-351,-357,-364,-370,-376,-380,-384,-389,-392,-395,-398,-399,-400,-400,-400,-400,-400,-400,-400,-400,-400,-400,-400,-400,-400,-400,-400,-400,-400,-400,-400,-400,-400,-400,-400,-400,-400,-400,-400,-400,-400,-400]","[0,0,0,0,0,0,0,0,0,0,0,0,0,0,0,0,0,0,0,0,0,0,0,0,0,0,0,0,0,0,0,0,0,0,0,0,0,0,0,0,0,0,0,0,0,0,0,0,0,0,0,0,0,0,0,0,0,0,0,0,0,0,0,0,0,0,0,0,0,0,0,0,0,0,0,0,0,0,0,0,0,0,0,0,0,0,0,0,0,0,0,0]","[0,0,0,0,0,0,0,0,0,0,0,0,0,0,0,0,0,0,0,0,0,0,0,0,0,0,0,0,0,0,0,0,0,0,0,0,0,0,0,0,0,0,0,0,0,0,0,0,0,0,0,0,0,0,0,0,0,0,0,0,0,0,0,0,0,0,0,0,0,0,0,0,0,0,0,0,0,0,0,0,0,0,0,0,0,0,0,0,0,0,0,0]","[0,0,0,0,0,0,0,0,0,0,0,0,0,0,0,0,0,0,0,0,0,0,0,0,0,0,0,0,0,0,0,0,0,0,0,0,0,0,0,0,0,0,0,0,0,0,0,0,0,0,0,0,0,0,0,0,0,0,0,0,0,0,0,0,0,0,0,0,0,0,0,0,0,0,0,0,0,0,0,0,0,0,0,0,0,0,0,0,0,0,0,0]","[0,0.0107999999988877,0.024199999999254374,0.03779999999888872,0.05129999999888213,0.06500000000000483,0.07829999999888315,0.09140000000037674,0.10469999999925506,0.11740000000037298,0.1311999999992608,0.14429999999888565,0.15719999999925705,0.1715999999996285,0.18459999999963372,0.1980000000000004,0.2109000000003789,0.22409999999963048,0.23719999999925534,0.2505999999996291,0.26390000000037617,0.27709999999962776,0.2904000000003748,0.30349999999999966,0.31700000000000017,0.3302999999988856,0.3436999999992594,0.3569000000003726,0.3704000000003731,0.3835999999996318,0.39700000000000557,0.41040000000037224,0.42359999999963094,0.436900000000378,0.4504000000003785,0.4635999999996301,0.47690000000037713,0.4905999999996311,0.503699999999256,0.5170999999996297,0.5304000000003768,0.5436999999992551,0.5570000000000022,0.5706999999992561,0.5837999999988881,0.5970000000000013,0.6104000000003751,0.6236999999992605,0.6375000000000028,0.6505999999996277,0.6639000000003747,0.6771999999992602,0.6906999999992607,0.7042999999988879,0.7175000000000011,0.7307999999988866,0.7442999999988871,0.7577999999988876,0.770699999999259,0.7840999999996328,0.7974999999999994,0.8105999999996314,0.8241999999992586,0.8381999999992544,0.8512999999988864,0.8644999999999996,0.8774000000003781,0.8909000000003786,0.9041999999992569,0.9175999999996307,0.931199999999258,0.9441999999992561,0.957299999998888,0.9710000000000036,0.9840000000000018,0.9976999999992557,1.0110000000000028,1.0245000000000033,1.0380000000000038,1.0516999999992578,1.0645000000000024,1.0777999999988879,1.0905000000000058,1.1035999999996307,1.1170000000000044,1.130500000000005,1.1440000000000055,1.1577999999988862,1.1715000000000018,1.1845999999996337,1.199099999999632,1.2125000000000057]",14,0,14,0,1,0.2506,,,,
B123456789,2024-09-10_14h34.20.023,GoFitts,2023.2.3,Win32,75.18796992,,,,,,1,,,,,,,,,,,,,,1,0,0,1
B123456789,2024-09-10_14h34.20.023,GoFitts,2023.2.3,Win32,75.18796992,"[25,-89]","[432.4349010470003,192.53242247468287]",24,946.7178616,6.32,2,0.8264,"[25,25,25,25,25,25,25,25,25,25,25,25,25,25,25,25,25,25,25,25,25,25,25,25,25,25,25,25,36,65,98,144,193,248,304,348,387,416,432,439,441,442,443,443,443,443,443,443,443,443,443,443,443,443,443,443,443,443,443,443,442,441,440,439,438,437,437,437,436,436,436,436,436,436,436,436,436,436,436,436,436,436,436,436,436,436,436,436,436,436,436,436,436,436,436,436,436,436,436,436,436]","[-89,-88,-88,-88,-88,-88,-88,-88,-88,-88,-88,-88,-88,-88,-88,-88,-88,-88,-88,-88,-88,-88,-88,-88,-88,-88,-88,-88,-75,-45,-13,25,62,99,134,158,176,191,198,203,204,205,205,205,205,206,206,206,207,207,207,207,207,207,207,207,207,207,207,207,205,203,201,199,197,196,195,195,194,194,194,194,194,194,194,194,194,194,194,194,194,194,194,194,194,194,194,194,194,194,194,194,194,194,194,194,194,194,194,194,194]","[0,0,0,0,0,0,0,0,0,0,0,0,0,0,0,0,0,0,0,0,0,0,0,0,0,0,0,0,0,0,0,0,0,0,0,0,0,0,0,0,0,0,0,0,0,0,0,0,0,0,0,0,0,0,0,0,0,0,0,0,0,0,0,0,0,0,0,0,0,0,0,0,0,0,0,0,0,0,0,0,0,0,0,0,0,0,0,0,0,0,0,0,0,0,0,0,0,0,0,0,0]","[0,0,0,0,0,0,0,0,0,0,0,0,0,0,0,0,0,0,0,0,0,0,0,0,0,0,0,0,0,0,0,0,0,0,0,0,0,0,0,0,0,0,0,0,0,0,0,0,0,0,0,0,0,0,0,0,0,0,0,0,0,0,0,0,0,0,0,0,0,0,0,0,0,0,0,0,0,0,0,0,0,0,0,0,0,0,0,0,0,0,0,0,0,0,0,0,0,0,0,0,0]","[0,0,0,0,0,0,0,0,0,0,0,0,0,0,0,0,0,0,0,0,0,0,0,0,0,0,0,0,0,0,0,0,0,0,0,0,0,0,0,0,0,0,0,0,0,0,0,0,0,0,0,0,0,0,0,0,0,0,0,0,0,0,0,0,0,0,0,0,0,0,0,0,0,0,0,0,0,0,0,0,0,0,0,0,0,0,0,0,0,0,0,0,0,0,0,0,0,0,0,0,0]","[0,0.012000000000000455,0.02520000000112077,0.038800000000748014,0.052300000000748526,0.06580000000074904,0.07910000000148898,0.09250000000000114,0.10570000000112145,0.11980000000074398,0.13240000000037355,0.14590000000037406,0.15899999999999892,0.17220000000111924,0.18650000000000233,0.19940000000037372,0.21220000000111838,0.22610000000148744,0.23930000000074614,0.25220000000111753,0.2664000000003739,0.2791000000014918,0.29260000000149233,0.3066000000014881,0.3194999999999979,0.3322000000011158,0.34600000000000364,0.35860000000148773,0.3723000000007488,0.3852000000011202,0.3984000000003718,0.41170000000111884,0.4251000000014926,0.43840000000037094,0.451700000001118,0.4649000000003696,0.4784000000003701,0.4916000000014904,0.5054000000003711,0.5187000000011182,0.5322000000011187,0.5461000000014877,0.5596000000014882,0.5721000000014911,0.5854000000003765,0.5991000000014921,0.6129000000003728,0.6262000000011199,0.6390000000000029,0.6527000000011185,0.6658000000007434,0.6794000000003706,0.6924000000003758,0.7058000000007425,0.7199000000003721,0.7326000000014901,0.746300000000744,0.759400000000376,0.7723000000007474,0.7854000000003722,0.7999000000003704,0.8131000000014907,0.8264000000003762,0.8389000000003719,0.8521000000014922,0.8656000000014927,0.8787000000011176,0.892000000000003,0.9056000000014919,0.91860000000149,0.9317000000011149,0.9458000000007445,0.959300000000745,0.9722000000011164,0.9859000000003704,0.9992000000011174,1.0122000000011155,1.025700000001116,1.03940000000037,1.0529000000003705,1.0660000000000025,1.0793000000007424,1.0925000000000011,1.105900000000375,1.1191000000014881,1.1325000000000003,1.1462000000011159,1.1592000000011211,1.1722000000011192,1.186200000001115,1.1992000000011203,1.2123000000007451,1.226300000000748,1.2389999999999972,1.2523000000007443,1.2662000000011204,1.2793000000007453,1.2922000000011167,1.3056000000014905,1.3193000000007444,1.3324000000003764]",0,0,0,0,1,0.0119,,,,
B123456789,2024-09-10_14h34.20.023,GoFitts,2023.2.3,Win32,75.18796992,"[432.4349010470003,192.53242247468287]","[-382.9554194387336,-278.2333985523707]",24,946.7178616,6.32,2,0.6259,"[436,436,436,436,436,436,435,428,411,391,357,297,237,173,122,57,-1,-61,-112,-155,-186,-213,-232,-248,-258,-266,-272,-278,-285,-292,-301,-310,-319,-329,-337,-343,-349,-353,-356,-359,-360,-362,-364,-365,-367,-369,-371,-373,-375,-376,-377,-379,-379,-380,-380,-380,-380,-380,-380,-380,-380,-380,-380,-380,-380,-380,-380,-380,-380,-380,-380,-380,-380,-380,-380,-380,-380,-380,-380,-380,-380,-380,-380,-380,-380,-380]","[194,194,194,194,194,194,193,186,172,156,128,81,36,-11,-48,-93,-132,-169,-200,-226,-243,-258,-267,-273,-277,-280,-281,-283,-284,-286,-288,-289,-291,-291,-292,-292,-292,-291,-289,-288,-287,-286,-285,-284,-283,-283,-283,-282,-282,-282,-282,-282,-282,-282,-282,-282,-282,-282,-282,-282,-282,-282,-282,-282,-282,-282,-282,-282,-282,-282,-282,-282,-282,-282,-282,-281,-281,-281,-281,-281,-281,-281,-281,-281,-281,-281]","[0,0,0,0,0,0,0,0,0,0,0,0,0,0,0,0,0,0,0,0,0,0,0,0,0,0,0,0,0,0,0,0,0,0,0,0,0,0,0,0,0,0,0,0,0,0,0,0,0,0,0,0,0,0,0,0,0,0,0,0,0,0,0,0,0,0,0,0,0,0,0,0,0,0,0,0,0,0,0,0,0,0,0,0,0,0]","[0,0,0,0,0,0,0,0,0,0,0,0,0,0,0,0,0,0,0,0,0,0,0,0,0,0,0,0,0,0,0,0,0,0,0,0,0,0,0,0,0,0,0,0,0,0,0,0,0,0,0,0,0,0,0,0,0,0,0,0,0,0,0,0,0,0,0,0,0,0,0,0,0,0,0,0,0,0,0,0,0,0,0,0,0,0]","[0,0,0,0,0,0,0,0,0,0,0,0,0,0,0,0,0,0,0,0,0,0,0,0,0,0,0,0,0,0,0,0,0,0,0,0,0,0,0,0,0,0,0,0,0,0,0,0,0,0,0,0,0,0,0,0,0,0,0,0,0,0,0,0,0,0,0,0,0,0,0,0,0,0,0,0,0,0,0,0,0,0,0,0,0,0]","[0,0.012099999999627187,0.02569999999925443,0.03969999999925733,0.052299999998886904,0.06569999999925358,0.07889999999851227,0.09179999999888366,0.10489999999850852,0.1190999999996265,0.1322999999988852,0.14489999999851477,0.15800000000000125,0.17129999999888668,0.18489999999851392,0.19809999999962713,0.21139999999851256,0.2246999999992596,0.23829999999888685,0.25150000000000006,0.26469999999925875,0.27809999999963253,0.2914999999999992,0.3046999999992579,0.31829999999888514,0.3316999999992589,0.34499999999999886,0.35819999999925756,0.37159999999963134,0.3847999999988829,0.39829999999888344,0.41150000000000375,0.4248999999985088,0.4382999999988826,0.45139999999851455,0.4647999999988812,0.47839999999850846,0.49200000000000443,0.505500000000005,0.5185000000000031,0.5325999999996256,0.5451999999992552,0.5585000000000022,0.5721999999992562,0.5855000000000032,0.5982999999988863,0.6120999999996286,0.6258999999985093,0.6387999999988807,0.652000000000001,0.6651999999992597,0.6783999999985113,0.6923999999985142,0.7070000000000007,0.7184999999999988,0.7322999999988866,0.7458999999985139,0.7590000000000003,0.7725000000000009,0.785499999999999,0.7986999999992577,0.8125999999996267,0.8253999999985098,0.8392999999988859,0.8524999999999991,0.8660999999996264,0.8787999999988827,0.892000000000003,0.9058999999985105,0.9194999999999993,0.9325999999996313,0.9455999999996294,0.958799999998881,0.971899999998513,0.98519999999926,0.998899999998514,1.0128999999985098,1.0257999999988812,1.0390000000000015,1.0516999999992578,1.0656999999992536,1.0784999999999982,1.091699999999257,1.1051999999992574,1.119299999998887,1.132000000000005]",1,0,1,0,1,0.1049,,,,
B123456789,2024-09-10_14h34.20.023,GoFitts,2023.2.3,Win32,75.18796992,"[-382.9554194387336,-278.2333985523707]","[316.7389483770105,351.7742400013455]",24,946.7178616,6.32,2,0.9327,"[-380,-380,-380,-380,-380,-380,-380,-380,-380,-380,-380,-380,-380,-380,-380,-380,-380,-380,-380,-380,-380,-379,-371,-349,-312,-255,-179,-100,-17,59,118,164,198,225,240,246,247,247,247,248,249,250,251,251,253,254,256,260,264,269,277,283,288,293,297,300,302,303,303,303,303,304,304,304,304,304,304,304,304,305,306,308,309,311,313,316,317,318,318,318,318,318,318,318,318,318,318,318,318,318,318,318,318,318,318,318,318,318,318,318,318,318,318,318,318,318,318,318,318]","[-281,-281,-281,-281,-281,-281,-281,-281,-281,-281,-281,-281,-281,-281,-281,-281,-281,-281,-281,-281,-281,-280,-269,-244,-206,-154,-95,-38,25,88,144,187,220,247,261,266,268,268,269,269,271,272,274,276,278,283,288,297,305,313,322,328,334,338,342,344,346,346,346,347,347,347,347,347,347,347,347,347,347,347,348,350,351,353,355,356,357,358,358,358,358,358,358,358,358,358,358,358,358,358,358,358,358,358,358,358,358,358,358,358,358,358,358,358,358,358,358,358,358]","[0,0,0,0,0,0,0,0,0,0,0,0,0,0,0,0,0,0,0,0,0,0,0,0,0,0,0,0,0,0,0,0,0,0,0,0,0,0,0,0,0,0,0,0,0,0,0,0,0,0,0,0,0,0,0,0,0,0,0,0,0,0,0,0,0,0,0,0,0,0,0,0,0,0,0,0,0,0,0,0,0,0,0,0,0,0,0,0,0,0,0,0,0,0,0,0,0,0,0,0,0,0,0,0,0,0,0,0,0]","[0,0,0,0,0,0,0,0,0,0,0,0,0,0,0,0,0,0,0,0,0,0,0,0,0,0,0,0,0,0,0,0,0,0,0,0,0,0,0,0,0,0,0,0,0,0,0,0,0,0,0,0,0,0,0,0,0,0,0,0,0,0,0,0,0,0,0,0,0,0,0,0,0,0,0,0,0,0,0,0,0,0,0,0,0,0,0,0,0,0,0,0,0,0,0,0,0,0,0,0,0,0,0,0,0,0,0,0,0]","[0,0,0,0,0,0,0,0,0,0,0,0,0,0,0,0,0,0,0,0,0,0,0,0,0,0,0,0,0,0,0,0,0,0,0,0,0,0,0,0,0,0,0,0,0,0,0,0,0,0,0,0,0,0,0,0,0,0,0,0,0,0,0,0,0,0,0,0,0,0,0,0,0,0,0,0,0,0,0,0,0,0,0,0,0,0,0,0,0,0,0,0,0,0,0,0,0,0,0,0,0,0,0,0,0,0,0,0,0]","[0,0.012199999999253919,0.025400000000374234,0.038699999999252555,0.05250000000000199,0.06579999999888031,0.0789000000003739,0.09309999999963026,0.10579999999887946,0.11950000000000216,0.13190000000037116,0.14559999999962514,0.1595000000000013,0.1724000000003727,0.1859000000003732,0.19919999999925153,0.21329999999888116,0.22609999999962582,0.23940000000037287,0.25259999999962446,0.2656999999992564,0.2787999999988813,0.29190000000037486,0.30509999999962645,0.3185000000000002,0.3315999999996251,0.34499999999999886,0.35840000000037264,0.37169999999925807,0.384999999999998,0.3984000000003718,0.41179999999888395,0.4249000000003704,0.43840000000037094,0.45159999999962963,0.4649999999999963,0.47859999999962355,0.49199999999999733,0.5055999999996246,0.5189000000003716,0.5324000000003721,0.5457999999988843,0.5587999999988824,0.5722999999988829,0.5854999999999961,0.5989000000003699,0.6122999999988821,0.6255999999996291,0.6385000000000005,0.6519000000003743,0.6650999999996259,0.6782999999988846,0.6919000000003734,0.7052999999988785,0.7186999999992523,0.732099999999626,0.745199999999258,0.7589000000003736,0.7724000000003741,0.7854000000003722,0.799199999999253,0.8125,0.8255999999996249,0.8385999999996301,0.8522999999988841,0.8654999999999973,0.8785999999996292,0.8931999999992541,0.9059000000003721,0.9189000000003702,0.932699999999258,0.9454000000003688,0.958799999998881,0.972099999999628,0.9854000000003751,0.9990000000000023,1.0125000000000028,1.025500000000001,1.0386999999992526,1.0519000000003729,1.0654000000003734,1.0790000000000006,1.0925999999996279,1.1060000000000016,1.1194000000003754,1.1319000000003712,1.1456999999992519,1.1589000000003722,1.1721999999992576,1.185699999999251,1.1990999999996248,1.213000000000001,1.2259000000003724,1.2394000000003729,1.252799999998885,1.266099999999625,1.2789999999999964,1.2922999999988818,1.305500000000002,1.3195999999996246,1.3330999999996251,1.3457999999988814,1.3590000000000018,1.372599999999629,1.3855999999996271,1.3987999999988787,1.4122999999988792,1.4255999999996263,1.4392999999988803]",2,0,2,0,1,0.2919,,,,
B123456789,2024-09-10_14h34.20.023,GoFitts,2023.2.3,Win32,75.18796992,"[316.7389483770105,351.7742400013455]","[-236.6794653891097,-409.94085916217716]",24,946.7178616,6.32,2,0.5321,"[318,318,318,316,313,308,297,283,262,237,205,168,129,88,48,9,-27,-58,-82,-101,-120,-133,-144,-154,-160,-164,-169,-174,-179,-184,-189,-194,-199,-204,-209,-214,-219,-223,-226,-228,-229,-230,-231,-231,-231,-231,-231,-231,-231,-231,-231,-231,-231,-231,-231,-231,-231,-231,-231,-231,-231,-231,-231,-231,-231,-231,-231,-231,-231,-231,-231,-231,-231,-231,-231,-231,-231,-231,-231]","[358,358,357,355,350,342,328,308,279,244,200,148,95,40,-17,-70,-118,-158,-190,-215,-240,-258,-274,-288,-297,-304,-311,-318,-325,-332,-340,-347,-354,-362,-369,-376,-383,-390,-396,-399,-402,-404,-406,-407,-407,-407,-408,-408,-408,-408,-408,-408,-408,-408,-408,-408,-408,-408,-408,-408,-408,-408,-408,-408,-408,-408,-408,-408,-408,-408,-408,-408,-408,-408,-408,-408,-408,-408,-408]","[0,0,0,0,0,0,0,0,0,0,0,0,0,0,0,0,0,0,0,0,0,0,0,0,0,0,0,0,0,0,0,0,0,0,0,0,0,0,0,0,0,0,0,0,0,0,0,0,0,0,0,0,0,0,0,0,0,0,0,0,0,0,0,0,0,0,0,0,0,0,0,0,0,0,0,0,0,0,0]","[0,0,0,0,0,0,0,0,0,0,0,0,0,0,0,0,0,0,0,0,0,0,0,0,0,0,0,0,0,0,0,0,0,0,0,0,0,0,0,0,0,0,0,0,0,0,0,0,0,0,0,0,0,0,0,0,0,0,0,0,0,0,0,0,0,0,0,0,0,0,0,0,0,0,0,0,0,0,0]","[0,0,0,0,0,0,0,0,0,0,0,0,0,0,0,0,0,0,0,0,0,0,0,0,0,0,0,0,0,0,0,0,0,0,0,0,0,0,0,0,0,0,0,0,0,0,0,0,0,0,0,0,0,0,0,0,0,0,0,0,0,0,0,0,0,0,0,0,0,0,0,0,0,0,0,0,0,0,0]","[0,0.012000000000000455,0.024700000001118383,0.03809999999963054,0.05120000000111702,0.06470000000111753,0.07800000000000296,0.09100000000000108,0.10430000000074813,0.11759999999962645,0.13080000000074676,0.14430000000074727,0.1575999999996256,0.17090000000037264,0.18430000000074642,0.19780000000074693,0.2109000000003718,0.22420000000111884,0.23780000000074608,0.25099999999999767,0.2643000000007447,0.27780000000074523,0.2909000000003701,0.3044000000003706,0.31770000000111764,0.3310999999996298,0.3445000000000036,0.3577000000011168,0.37109999999962895,0.38450000000000273,0.3979000000003765,0.41120000000111645,0.42440000000037514,0.4377000000011151,0.4512000000011156,0.4644000000003743,0.47780000000074807,0.4914000000003753,0.5044000000003734,0.5178000000007472,0.5320999999996303,0.544900000000375,0.5577000000011196,0.5713000000007469,0.5848000000007474,0.5985000000000014,0.611300000000746,0.6245999999996315,0.6385000000000005,0.6525000000000034,0.6653000000007481,0.6787000000011219,0.6918000000007467,0.7055999999996274,0.7182000000011186,0.7317000000011191,0.7450999999996313,0.7590000000000003,0.7719999999999985,0.7855999999996257,0.7985000000000042,0.8115999999996291,0.8249000000003761,0.838200000001116,0.8517000000011166,0.8655999999996311,0.8787000000011176,0.8915999999996274,0.9048000000007477,0.9179999999999993,0.931400000000373,0.9447000000011201,0.9584000000003741,0.9714000000003722,0.9849999999999994,0.9989000000003756,1.0119000000003737,1.02459999999963,1.038200000001119]",3,0,3,0,1,0.0646,,,,
