指定代號,date,expName,psychopyVersion,OS,frameRate,from,to,w,a,id,sequence_loop.thisN,enter_time,leave_time,mouse.x,mouse.y,mouse.leftButton,mouse.midButton,mouse.rightButton,mouse.time,trial_loop.thisRepN,trial_loop.thisTrialN,trial_loop.thisN,trial_loop.thisIndex,trial_loop.ran,sequence_loop.thisRepN,sequence_loop.thisTrialN,sequence_loop.thisIndex,sequence_loop.ran
C000000000-1,2025-04-17_15h03.32.458,GoFitts,2023.2.3,Win32,59.95203837,,,,,,,,,,,,,,,,,,,,,,,
C000000000-1,2025-04-17_15h03.32.458,GoFitts,2023.2.3,Win32,59.95203837,,,,,,,,,,,,,,,,,,,,,,,
C000000000-1,2025-04-17_15h03.32.458,GoFitts,2023.2.3,Win32,59.95203837,"[-92.20001220703125,-199.5]","[156.02664867119825,173.2851486610904]",36,466.3563352,4.75,0,1.486,1.183,"[-92.20001220703125,-92.20001220703125,-92.20001220703125,-92.20001220703125,-92.20001220703125,-92.20001220703125,-92.20001220703125,-92.20001220703125,-92.20001220703125,-92.20001220703125,-92.20001220703125,-92.20001220703125,-92.20001220703125,-92.20001220703125,-92.20001220703125,-92.20001220703125,-92.20001220703125,-92.20001220703125,-73,-41.79998779296875,33.4000244140625,67,105.4000244140625,115.800048828125,120.5999755859375,123.800048828125,125.4000244140625,126.199951171875,130.199951171875,132.5999755859375,136.5999755859375,137.4000244140625,141.4000244140625,145.4000244140625,148.5999755859375,151,152.5999755859375,152.5999755859375,153.4000244140625,153.4000244140625,153.4000244140625,153.4000244140625,153.4000244140625,153.4000244140625,153.4000244140625,153.4000244140625,153.4000244140625,153.4000244140625,153.4000244140625,153.4000244140625,153.4000244140625,153.4000244140625,153.4000244140625,154.199951171875,154.199951171875,154.199951171875,154.199951171875,154.199951171875,154.199951171875,154.199951171875,154.199951171875,154.199951171875,154.199951171875,154.199951171875,154.199951171875,154.199951171875,154.199951171875,154.199951171875,154.199951171875,154.199951171875,154.199951171875,154.199951171875,154.199951171875,154.199951171875,154.199951171875,154.199951171875,154.199951171875,154.199951171875]","[-199.5,-199.5,-199.5,-199.5,-199.5,-199.5,-199.5,-199.5,-199.5,-199.5,-199.5,-199.5,-199.5,-199.5,-199.5,-199.5,-199.5,-199.5,-181.9000244140625,-158.70001220703125,-109.9000244140625,-88.29998779296875,-61.100006103515625,-45.899993896484375,-29.100006103515625,-15.5,-11.5,3.70001220703125,25.29998779296875,36.5,55.70001220703125,74.10000610351562,98.89999389648438,115.70001220703125,127.70001220703125,137.29998779296875,148.5,154.89999389648438,167.70001220703125,178.10000610351562,190.10000610351562,191.6999969482422,191.6999969482422,191.6999969482422,191.6999969482422,191.6999969482422,191.6999969482422,191.6999969482422,191.6999969482422,191.6999969482422,191.6999969482422,190.10000610351562,188.5,186.10000610351562,184.5,184.5,184.5,184.5,184.5,184.5,184.5,184.5,184.5,184.5,184.5,180.5,179.6999969482422,179.6999969482422,179.6999969482422,179.6999969482422,179.6999969482422,179.6999969482422,178.10000610351562,178.10000610351562,178.10000610351562,178.10000610351562,178.10000610351562,178.10000610351562]","[0,0,0,0,0,0,0,0,0,0,0,0,0,0,0,0,0,0,0,0,0,0,0,0,0,0,0,0,0,0,0,0,0,0,0,0,0,0,0,0,0,0,0,0,0,0,0,0,0,0,0,0,0,0,0,0,0,0,0,0,0,0,0,0,0,0,0,0,0,0,0,0,0,0,0,0,0,0]","[0,0,0,0,0,0,0,0,0,0,0,0,0,0,0,0,0,0,0,0,0,0,0,0,0,0,0,0,0,0,0,0,0,0,0,0,0,0,0,0,0,0,0,0,0,0,0,0,0,0,0,0,0,0,0,0,0,0,0,0,0,0,0,0,0,0,0,0,0,0,0,0,0,0,0,0,0,0]","[0,0,0,0,0,0,0,0,0,0,0,0,0,0,0,0,0,0,0,0,0,0,0,0,0,0,0,0,0,0,0,0,0,0,0,0,0,0,0,0,0,0,0,0,0,0,0,0,0,0,0,0,0,0,0,0,0,0,0,0,0,0,0,0,0,0,0,0,0,0,0,0,0,0,0,0,0,0]","[0,0.03200000000000358,0.06499999999999773,0.08400000000000318,0.11599999999999966,0.1490000000000009,0.1810000000000045,0.2010000000000005,0.23199999999999932,0.26500000000000057,0.30000000000000426,0.3160000000000025,0.34900000000000375,0.3819999999999979,0.3999999999999986,0.4340000000000046,0.4650000000000034,0.48400000000000176,0.5260000000000034,0.5519999999999996,0.5820000000000007,0.6009999999999991,0.6340000000000003,0.6660000000000039,0.6989999999999981,0.7319999999999993,0.7490000000000023,0.7830000000000013,0.8149999999999977,0.8340000000000032,0.865000000000002,0.8999999999999986,0.9320000000000022,0.9510000000000005,0.9830000000000041,1.0159999999999982,1.0500000000000043,1.0679999999999978,1.100999999999999,1.131999999999998,1.1670000000000016,1.1840000000000046,1.2169999999999987,1.2480000000000047,1.2860000000000014,1.3000000000000043,1.3329999999999984,1.3689999999999998,1.384999999999998,1.416000000000004,1.448999999999998,1.4860000000000042,1.4990000000000023,1.533999999999999,1.5660000000000025,1.5840000000000032,1.6189999999999998,1.6499999999999986,1.6820000000000022,1.7010000000000005,1.733000000000004,1.767000000000003,1.8000000000000043,1.8170000000000002,1.8490000000000038,1.8830000000000027,1.8999999999999986,1.9340000000000046,1.966000000000001,2,2.0159999999999982,2.0500000000000043,2.0859999999999985,2.100999999999999,2.1340000000000003,2.1670000000000016,2.198999999999998,2.2180000000000035]",0,0,0,0,1,,,,
C000000000-1,2025-04-17_15h03.32.458,GoFitts,2023.2.3,Win32,59.95203837,"[156.02664867119825,173.2851486610904]","[-116.589083796535,-201.93821674350374]",36,466.3563352,4.75,0,0.85,0.53,"[154.199951171875,154.199951171875,154.199951171875,154.199951171875,154.199951171875,154.199951171875,154.199951171875,154.199951171875,154.199951171875,154.199951171875,154.199951171875,154.199951171875,154.199951171875,154.199951171875,154.199951171875,154.199951171875,154.199951171875,153.4000244140625,125.4000244140625,51.800048828125,15,-39.4000244140625,-54.5999755859375,-55.4000244140625,-57.79998779296875,-61.79998779296875,-65,-76.20001220703125,-85.79998779296875,-103.4000244140625,-106.5999755859375,-107.4000244140625,-109,-111.4000244140625,-111.4000244140625,-112.20001220703125,-112.20001220703125,-112.20001220703125,-112.20001220703125,-112.20001220703125,-112.20001220703125,-112.20001220703125,-112.20001220703125,-112.20001220703125,-112.20001220703125,-112.20001220703125,-112.20001220703125,-112.20001220703125,-112.20001220703125,-112.20001220703125,-112.20001220703125,-112.20001220703125,-112.20001220703125,-112.20001220703125,-112.20001220703125,-112.20001220703125]","[178.10000610351562,178.10000610351562,178.10000610351562,178.10000610351562,178.10000610351562,178.10000610351562,178.10000610351562,178.10000610351562,178.10000610351562,178.10000610351562,178.10000610351562,178.10000610351562,178.10000610351562,178.10000610351562,178.10000610351562,178.10000610351562,178.10000610351562,174.89999389648438,128.5,17.29998779296875,-32.29998779296875,-102.70001220703125,-125.9000244140625,-129.9000244140625,-138.70001220703125,-149.0999755859375,-153.0999755859375,-163.5,-172.29998779296875,-191.5,-195.5,-197.0999755859375,-200.29998779296875,-201.0999755859375,-201.0999755859375,-201.0999755859375,-201.0999755859375,-201.0999755859375,-201.0999755859375,-201.0999755859375,-201.0999755859375,-201.0999755859375,-201.0999755859375,-201.0999755859375,-201.0999755859375,-201.0999755859375,-201.0999755859375,-201.0999755859375,-201.0999755859375,-201.0999755859375,-201.0999755859375,-201.0999755859375,-201.0999755859375,-201.0999755859375,-201.0999755859375,-201.0999755859375]","[0,0,0,0,0,0,0,0,0,0,0,0,0,0,0,0,0,0,0,0,0,0,0,0,0,0,0,0,0,0,0,0,0,0,0,0,0,0,0,0,0,0,0,0,0,0,0,0,0,0,0,0,0,0,0,0]","[0,0,0,0,0,0,0,0,0,0,0,0,0,0,0,0,0,0,0,0,0,0,0,0,0,0,0,0,0,0,0,0,0,0,0,0,0,0,0,0,0,0,0,0,0,0,0,0,0,0,0,0,0,0,0,0]","[0,0,0,0,0,0,0,0,0,0,0,0,0,0,0,0,0,0,0,0,0,0,0,0,0,0,0,0,0,0,0,0,0,0,0,0,0,0,0,0,0,0,0,0,0,0,0,0,0,0,0,0,0,0,0,0]","[0,0.030000000000001137,0.06400000000000006,0.08299999999999841,0.11500000000000199,0.1490000000000009,0.17999999999999972,0.20000000000000284,0.23100000000000165,0.2640000000000029,0.2980000000000018,0.3149999999999977,0.347999999999999,0.3810000000000002,0.4159999999999968,0.4339999999999975,0.4660000000000011,0.49799999999999756,0.5300000000000011,0.5649999999999977,0.5799999999999983,0.615000000000002,0.6480000000000032,0.6640000000000015,0.6980000000000004,0.7310000000000016,0.7640000000000029,0.7989999999999995,0.8149999999999977,0.8500000000000014,0.8810000000000002,0.9159999999999968,0.9309999999999974,0.9650000000000034,0.9990000000000023,1.0309999999999988,1.064,1.081000000000003,1.115000000000002,1.1510000000000034,1.1640000000000015,1.1980000000000004,1.2340000000000018,1.25,1.2809999999999988,1.3170000000000002,1.347999999999999,1.3840000000000003,1.3980000000000032,1.4320000000000022,1.4650000000000034,1.4979999999999976,1.5150000000000006,1.5489999999999995,1.581000000000003,1.6159999999999997]",1,0,1,0,1,,,,
C000000000-1,2025-04-17_15h03.32.458,GoFitts,2023.2.3,Win32,59.95203837,"[-116.589083796535,-201.93821674350374]","[72.0560165034682,221.76561574715242]",36,466.3563352,4.75,0,0.899,0.481,"[-112.20001220703125,-112.20001220703125,-112.20001220703125,-112.20001220703125,-112.20001220703125,-112.20001220703125,-112.20001220703125,-112.20001220703125,-112.20001220703125,-112.20001220703125,-112.20001220703125,-112.20001220703125,-112.20001220703125,-112.20001220703125,-112.20001220703125,-112.20001220703125,-112.20001220703125,-92.20001220703125,9.4000244140625,78.199951171875,88.5999755859375,99,103,103.800048828125,103.800048828125,103.800048828125,103.800048828125,103.800048828125,103.800048828125,103,99.800048828125,88.5999755859375,85.4000244140625,82.199951171875,82.199951171875,82.199951171875,82.199951171875,82.199951171875,82.199951171875,82.199951171875,82.199951171875,82.199951171875,82.199951171875,82.199951171875,82.199951171875,82.199951171875,82.199951171875,82.199951171875,82.199951171875,82.199951171875,82.199951171875,82.199951171875,82.199951171875,82.199951171875,82.199951171875,82.199951171875,82.199951171875,82.199951171875]","[-201.0999755859375,-201.0999755859375,-201.0999755859375,-201.0999755859375,-201.0999755859375,-201.0999755859375,-201.0999755859375,-201.0999755859375,-201.0999755859375,-201.0999755859375,-201.0999755859375,-201.0999755859375,-201.0999755859375,-201.0999755859375,-201.0999755859375,-201.0999755859375,-198.70001220703125,-159.5,10.100006103515625,143.70001220703125,172.5,204.5,220.5,222.89999389648438,223.6999969482422,223.6999969482422,223.6999969482422,223.6999969482422,223.6999969482422,224.5,225.3000030517578,225.3000030517578,223.6999969482422,222.10000610351562,222.10000610351562,222.10000610351562,222.10000610351562,222.10000610351562,222.10000610351562,222.10000610351562,222.10000610351562,222.10000610351562,222.10000610351562,222.10000610351562,222.10000610351562,222.10000610351562,222.10000610351562,222.10000610351562,222.10000610351562,222.10000610351562,222.10000610351562,222.10000610351562,222.10000610351562,222.10000610351562,222.10000610351562,222.10000610351562,222.10000610351562,222.10000610351562]","[0,0,0,0,0,0,0,0,0,0,0,0,0,0,0,0,0,0,0,0,0,0,0,0,0,0,0,0,0,0,0,0,0,0,0,0,0,0,0,0,0,0,0,0,0,0,0,0,0,0,0,0,0,0,0,0,0,0]","[0,0,0,0,0,0,0,0,0,0,0,0,0,0,0,0,0,0,0,0,0,0,0,0,0,0,0,0,0,0,0,0,0,0,0,0,0,0,0,0,0,0,0,0,0,0,0,0,0,0,0,0,0,0,0,0,0,0]","[0,0,0,0,0,0,0,0,0,0,0,0,0,0,0,0,0,0,0,0,0,0,0,0,0,0,0,0,0,0,0,0,0,0,0,0,0,0,0,0,0,0,0,0,0,0,0,0,0,0,0,0,0,0,0,0,0,0]","[0.0010000000000047748,0.014000000000002899,0.04800000000000182,0.0800000000000054,0.10000000000000142,0.13000000000000256,0.16400000000000148,0.19700000000000273,0.2150000000000034,0.24800000000000466,0.2810000000000059,0.31400000000000006,0.3300000000000054,0.36700000000000443,0.39700000000000557,0.4170000000000016,0.4480000000000004,0.48100000000000165,0.5150000000000006,0.5519999999999996,0.5650000000000048,0.5980000000000061,0.6330000000000027,0.6649999999999991,0.6820000000000022,0.7150000000000034,0.7480000000000047,0.7820000000000036,0.7980000000000018,0.8330000000000055,0.865000000000002,0.8990000000000009,0.9160000000000039,0.9490000000000052,0.9810000000000016,1.0160000000000053,1.0320000000000036,1.0650000000000048,1.1000000000000014,1.1310000000000002,1.1480000000000032,1.1810000000000045,1.2150000000000034,1.25,1.264000000000003,1.2980000000000018,1.331000000000003,1.3500000000000014,1.382000000000005,1.4179999999999993,1.4480000000000004,1.4680000000000035,1.4990000000000023,1.5320000000000036,1.568000000000005,1.5840000000000032,1.615000000000002,1.6510000000000034]",2,0,2,0,1,,,,
C000000000-1,2025-04-17_15h03.32.458,GoFitts,2023.2.3,Win32,59.95203837,"[72.0560165034682,221.76561574715242]","[-24.37375552607112,-231.90079319316064]",36,466.3563352,4.75,0,0.997,0.498,"[82.199951171875,82.199951171875,82.199951171875,82.199951171875,82.199951171875,82.199951171875,82.199951171875,82.199951171875,82.199951171875,82.199951171875,82.199951171875,82.199951171875,82.199951171875,82.199951171875,82.199951171875,82.199951171875,81.4000244140625,71.800048828125,54.199951171875,35,12.5999755859375,-6.5999755859375,-18.5999755859375,-19.4000244140625,-19.4000244140625,-19.4000244140625,-19.4000244140625,-19.4000244140625,-19.4000244140625,-19.4000244140625,-17,-17,-17,-18.5999755859375,-20.20001220703125,-20.20001220703125,-20.20001220703125,-21.79998779296875,-22.5999755859375,-22.5999755859375,-22.5999755859375,-22.5999755859375,-22.5999755859375,-22.5999755859375,-22.5999755859375,-22.5999755859375,-22.5999755859375,-22.5999755859375,-22.5999755859375,-22.5999755859375,-22.5999755859375,-22.5999755859375,-22.5999755859375,-22.5999755859375,-22.5999755859375,-22.5999755859375,-22.5999755859375,-22.5999755859375,-22.5999755859375,-22.5999755859375]","[222.10000610351562,222.10000610351562,222.10000610351562,222.10000610351562,222.10000610351562,222.10000610351562,222.10000610351562,222.10000610351562,222.10000610351562,222.10000610351562,222.10000610351562,222.10000610351562,222.10000610351562,222.10000610351562,222.10000610351562,222.10000610351562,215.6999969482422,182.10000610351562,105.29998779296875,2.100006103515625,-77.10000610351562,-127.5,-164.29998779296875,-171.5,-172.29998779296875,-172.29998779296875,-173.9000244140625,-176.29998779296875,-179.5,-184.29998779296875,-193.0999755859375,-199.5,-208.29998779296875,-214.70001220703125,-219.5,-219.5,-219.5,-220.29998779296875,-220.29998779296875,-220.29998779296875,-220.29998779296875,-220.29998779296875,-220.29998779296875,-220.29998779296875,-220.29998779296875,-220.29998779296875,-220.29998779296875,-220.29998779296875,-220.29998779296875,-220.29998779296875,-220.29998779296875,-220.29998779296875,-220.29998779296875,-220.29998779296875,-220.29998779296875,-220.29998779296875,-220.29998779296875,-220.29998779296875,-220.29998779296875,-220.29998779296875]","[0,0,0,0,0,0,0,0,0,0,0,0,0,0,0,0,0,0,0,0,0,0,0,0,0,0,0,0,0,0,0,0,0,0,0,0,0,0,0,0,0,0,0,0,0,0,0,0,0,0,0,0,0,0,0,0,0,0,0,0]","[0,0,0,0,0,0,0,0,0,0,0,0,0,0,0,0,0,0,0,0,0,0,0,0,0,0,0,0,0,0,0,0,0,0,0,0,0,0,0,0,0,0,0,0,0,0,0,0,0,0,0,0,0,0,0,0,0,0,0,0]","[0,0,0,0,0,0,0,0,0,0,0,0,0,0,0,0,0,0,0,0,0,0,0,0,0,0,0,0,0,0,0,0,0,0,0,0,0,0,0,0,0,0,0,0,0,0,0,0,0,0,0,0,0,0,0,0,0,0,0,0]","[0,0.029000000000003467,0.06300000000000239,0.0799999999999983,0.11299999999999955,0.14800000000000324,0.17999999999999972,0.19700000000000273,0.23000000000000398,0.2629999999999981,0.29700000000000415,0.3130000000000024,0.3470000000000013,0.3790000000000049,0.39800000000000324,0.4310000000000045,0.46399999999999864,0.49800000000000466,0.5309999999999988,0.5640000000000001,0.5820000000000007,0.6129999999999995,0.6460000000000008,0.6799999999999997,0.6980000000000004,0.730000000000004,0.7629999999999981,0.7959999999999994,0.8160000000000025,0.847999999999999,0.8800000000000026,0.9140000000000015,0.9470000000000027,0.9650000000000034,0.9969999999999999,1.0290000000000035,1.064,1.0799999999999983,1.1129999999999995,1.1460000000000008,1.1799999999999997,1.1970000000000027,1.2310000000000016,1.264000000000003,1.2970000000000041,1.331000000000003,1.3470000000000013,1.3810000000000002,1.4130000000000038,1.4320000000000022,1.4639999999999986,1.4969999999999999,1.5290000000000035,1.564,1.5799999999999983,1.615000000000002,1.6469999999999985,1.6810000000000045,1.6970000000000027,1.7310000000000016]",3,0,3,0,1,,,,
C000000000-1,2025-04-17_15h03.32.458,GoFitts,2023.2.3,Win32,59.95203837,"[-24.37375552607112,-231.90079319316064]","[-24.37375552607091,231.90079319316067]",36,466.3563352,4.75,0,1.252,0.5,"[-22.5999755859375,-22.5999755859375,-22.5999755859375,-22.5999755859375,-22.5999755859375,-22.5999755859375,-22.5999755859375,-22.5999755859375,-22.5999755859375,-22.5999755859375,-22.5999755859375,-22.5999755859375,-22.5999755859375,-22.5999755859375,-22.5999755859375,-22.5999755859375,-22.5999755859375,-23.4000244140625,-29,-29,-21.79998779296875,-20.20001220703125,-30.5999755859375,-34.5999755859375,-35.4000244140625,-37,-37,-37,-37,-37,-37,-37,-36.20001220703125,-36.20001220703125,-33,-29.79998779296875,-29.79998779296875,-29.79998779296875,-29.79998779296875,-29.79998779296875,-29.79998779296875,-29.79998779296875,-29.79998779296875,-29.79998779296875,-29.79998779296875,-29.79998779296875,-29.79998779296875,-29.79998779296875,-28.20001220703125,-27.4000244140625,-27.4000244140625,-27.4000244140625,-27.4000244140625,-27.4000244140625,-27.4000244140625,-27.4000244140625,-27.4000244140625,-27.4000244140625,-27.4000244140625,-27.4000244140625,-27.4000244140625,-27.4000244140625,-27.4000244140625,-27.4000244140625,-27.4000244140625,-27.4000244140625,-27.4000244140625,-27.4000244140625,-27.4000244140625,-27.4000244140625]","[-220.29998779296875,-220.29998779296875,-220.29998779296875,-220.29998779296875,-220.29998779296875,-220.29998779296875,-220.29998779296875,-220.29998779296875,-220.29998779296875,-220.29998779296875,-220.29998779296875,-220.29998779296875,-220.29998779296875,-220.29998779296875,-220.29998779296875,-220.29998779296875,-220.29998779296875,-213.0999755859375,-184.29998779296875,-112.29998779296875,74.89999389648438,238.10000610351562,284.5,306.9000015258789,316.5,317.3000030517578,317.3000030517578,317.3000030517578,317.3000030517578,317.3000030517578,317.3000030517578,314.9000015258789,310.0999984741211,292.5,270.1000061035156,216.5,202.10000610351562,201.3000030517578,201.3000030517578,201.3000030517578,201.3000030517578,202.10000610351562,207.6999969482422,217.3000030517578,221.3000030517578,222.10000610351562,222.89999389648438,223.6999969482422,225.3000030517578,227.6999969482422,227.6999969482422,227.6999969482422,227.6999969482422,227.6999969482422,227.6999969482422,227.6999969482422,227.6999969482422,227.6999969482422,227.6999969482422,227.6999969482422,227.6999969482422,227.6999969482422,227.6999969482422,227.6999969482422,227.6999969482422,227.6999969482422,227.6999969482422,227.6999969482422,227.6999969482422,227.6999969482422]","[0,0,0,0,0,0,0,0,0,0,0,0,0,0,0,0,0,0,0,0,0,0,0,0,0,0,0,0,0,0,0,0,0,0,0,0,0,0,0,0,0,0,0,0,0,0,0,0,0,0,0,0,0,0,0,0,0,0,0,0,0,0,0,0,0,0,0,0,0,0]","[0,0,0,0,0,0,0,0,0,0,0,0,0,0,0,0,0,0,0,0,0,0,0,0,0,0,0,0,0,0,0,0,0,0,0,0,0,0,0,0,0,0,0,0,0,0,0,0,0,0,0,0,0,0,0,0,0,0,0,0,0,0,0,0,0,0,0,0,0,0]","[0,0,0,0,0,0,0,0,0,0,0,0,0,0,0,0,0,0,0,0,0,0,0,0,0,0,0,0,0,0,0,0,0,0,0,0,0,0,0,0,0,0,0,0,0,0,0,0,0,0,0,0,0,0,0,0,0,0,0,0,0,0,0,0,0,0,0,0,0,0]","[0.0009999999999976694,0.03300000000000125,0.0660000000000025,0.08299999999999841,0.11599999999999966,0.1490000000000009,0.18299999999999983,0.19899999999999807,0.232999999999997,0.26599999999999824,0.2849999999999966,0.3160000000000025,0.3509999999999991,0.38400000000000034,0.3990000000000009,0.4350000000000023,0.4650000000000034,0.5,0.517000000000003,0.5499999999999972,0.5840000000000032,0.6180000000000021,0.6360000000000028,0.6659999999999968,0.6989999999999981,0.7340000000000018,0.7509999999999977,0.7830000000000013,0.8160000000000025,0.8350000000000009,0.8689999999999998,0.8999999999999986,0.9329999999999998,0.9669999999999987,0.9840000000000018,1.0180000000000007,1.051000000000002,1.0670000000000002,1.0989999999999966,1.1330000000000027,1.1510000000000034,1.1839999999999975,1.2169999999999987,1.2520000000000024,1.2680000000000007,1.2999999999999972,1.3329999999999984,1.3699999999999974,1.3830000000000027,1.4170000000000016,1.448999999999998,1.4679999999999964,1.5,1.5319999999999965,1.5670000000000002,1.5840000000000032,1.6159999999999997,1.6499999999999986,1.6659999999999968,1.698999999999998,1.7349999999999994,1.75,1.783999999999999,1.8160000000000025,1.8500000000000014,1.8669999999999973,1.8999999999999986,1.9339999999999975,1.9669999999999987,1.9840000000000018]",4,0,4,0,1,,,,
C000000000-1,2025-04-17_15h03.32.458,GoFitts,2023.2.3,Win32,59.95203837,"[-24.37375552607091,231.90079319316067]","[72.05601650346814,-221.76561574715245]",36,466.3563352,4.75,0,1.272,0.516,"[-27.4000244140625,-27.4000244140625,-27.4000244140625,-27.4000244140625,-27.4000244140625,-27.4000244140625,-27.4000244140625,-27.4000244140625,-27.4000244140625,-27.4000244140625,-27.4000244140625,-27.4000244140625,-27.4000244140625,-27.4000244140625,-27.4000244140625,-27.4000244140625,-27.4000244140625,-27.4000244140625,-25,-22.5999755859375,-22.5999755859375,-19.4000244140625,-19.4000244140625,-18.5999755859375,-17.79998779296875,-7.4000244140625,12.5999755859375,37.4000244140625,56.5999755859375,71.800048828125,80.5999755859375,83,83,83,83,83,83,83,83,83,83,83,83,83,82.199951171875,79.800048828125,79,79,79,79,79,79,79,79,79,79,79,79,79,79,79,79]","[227.6999969482422,227.6999969482422,227.6999969482422,227.6999969482422,227.6999969482422,227.6999969482422,227.6999969482422,227.6999969482422,227.6999969482422,227.6999969482422,227.6999969482422,227.6999969482422,227.6999969482422,227.6999969482422,227.6999969482422,227.6999969482422,217.3000030517578,157.29998779296875,53.29998779296875,-33.899993896484375,-95.5,-113.9000244140625,-116.29998779296875,-116.29998779296875,-116.29998779296875,-122.70001220703125,-137.9000244140625,-162.70001220703125,-187.5,-213.0999755859375,-229.0999755859375,-235.5,-236.29998779296875,-236.29998779296875,-236.29998779296875,-236.29998779296875,-236.29998779296875,-236.29998779296875,-236.29998779296875,-236.29998779296875,-235.5,-232.29998779296875,-232.29998779296875,-231.5,-225.9000244140625,-217.9000244140625,-215.5,-215.5,-215.5,-215.5,-215.5,-215.5,-215.5,-215.5,-215.5,-215.5,-215.5,-215.5,-215.5,-215.5,-215.5,-215.5]","[0,0,0,0,0,0,0,0,0,0,0,0,0,0,0,0,0,0,0,0,0,0,0,0,0,0,0,0,0,0,0,0,0,0,0,0,0,0,0,0,0,0,0,0,0,0,0,0,0,0,0,0,0,0,0,0,0,0,0,0,0,0]","[0,0,0,0,0,0,0,0,0,0,0,0,0,0,0,0,0,0,0,0,0,0,0,0,0,0,0,0,0,0,0,0,0,0,0,0,0,0,0,0,0,0,0,0,0,0,0,0,0,0,0,0,0,0,0,0,0,0,0,0,0,0]","[0,0,0,0,0,0,0,0,0,0,0,0,0,0,0,0,0,0,0,0,0,0,0,0,0,0,0,0,0,0,0,0,0,0,0,0,0,0,0,0,0,0,0,0,0,0,0,0,0,0,0,0,0,0,0,0,0,0,0,0,0,0]","[0,0.03300000000000125,0.06499999999999773,0.10000000000000142,0.117999999999995,0.14999999999999858,0.18499999999999517,0.21699999999999875,0.24899999999999523,0.2669999999999959,0.29999999999999716,0.33500000000000085,0.3649999999999949,0.3990000000000009,0.4339999999999975,0.45299999999999585,0.48499999999999943,0.5159999999999982,0.5509999999999948,0.5859999999999985,0.6159999999999997,0.6490000000000009,0.6859999999999999,0.7160000000000011,0.7349999999999994,0.7689999999999984,0.8019999999999996,0.8359999999999985,0.8689999999999998,0.902000000000001,0.9349999999999952,0.9699999999999989,1.0039999999999978,1.0349999999999966,1.0670000000000002,1.1019999999999968,1.1359999999999957,1.1829999999999998,1.2019999999999982,1.2369999999999948,1.2719999999999985,1.3170000000000002,1.3359999999999985,1.3709999999999951,1.4159999999999968,1.4510000000000005,1.4819999999999993,1.5159999999999982,1.5499999999999972,1.583999999999996,1.6159999999999997,1.649000000000001,1.6829999999999998,1.716000000000001,1.7489999999999952,1.7830000000000013,1.8170000000000002,1.8500000000000014,1.881999999999998,1.9170000000000016,1.9510000000000005,1.985999999999997]",5,0,5,0,1,,,,
C000000000-1,2025-04-17_15h03.32.458,GoFitts,2023.2.3,Win32,59.95203837,"[72.05601650346814,-221.76561574715245]","[-116.58908379653484,201.93821674350377]",36,466.3563352,4.75,0,1.382,0.531,"[79,79,79,79,79,79,79,79,79,79,79,79,79,79,79,76.5999755859375,57.4000244140625,19,-18.5999755859375,-38.5999755859375,-47.4000244140625,-48.20001220703125,-48.20001220703125,-48.20001220703125,-48.20001220703125,-48.20001220703125,-53.79998779296875,-118.5999755859375,-175.4000244140625,-182.5999755859375,-182.5999755859375,-182.5999755859375,-182.5999755859375,-181.79998779296875,-174.5999755859375,-164.20001220703125,-155.4000244140625,-144.20001220703125,-135.4000244140625,-135.4000244140625,-135.4000244140625,-133.79998779296875,-133,-129,-127.4000244140625,-127.4000244140625,-127.4000244140625,-127.4000244140625,-127.4000244140625,-127.4000244140625,-127.4000244140625,-127.4000244140625,-127.4000244140625,-127.4000244140625,-127.4000244140625,-127.4000244140625,-127.4000244140625,-127.4000244140625,-127.4000244140625,-127.4000244140625,-127.4000244140625,-127.4000244140625,-127.4000244140625]","[-215.5,-215.5,-215.5,-215.5,-215.5,-215.5,-215.5,-215.5,-215.5,-215.5,-215.5,-215.5,-215.5,-215.5,-215.5,-207.5,-159.5,-69.89999389648438,43.70001220703125,117.29998779296875,135.70001220703125,135.70001220703125,135.70001220703125,135.70001220703125,135.70001220703125,135.70001220703125,137.29998779296875,154.89999389648438,183.6999969482422,193.3000030517578,194.10000610351562,194.10000610351562,194.10000610351562,194.10000610351562,194.10000610351562,194.10000610351562,194.10000610351562,198.10000610351562,203.6999969482422,203.6999969482422,203.6999969482422,203.6999969482422,203.6999969482422,203.6999969482422,203.6999969482422,203.6999969482422,203.6999969482422,203.6999969482422,203.6999969482422,203.6999969482422,203.6999969482422,203.6999969482422,203.6999969482422,203.6999969482422,203.6999969482422,203.6999969482422,203.6999969482422,203.6999969482422,203.6999969482422,203.6999969482422,203.6999969482422,203.6999969482422,203.6999969482422]","[0,0,0,0,0,0,0,0,0,0,0,0,0,0,0,0,0,0,0,0,0,0,0,0,0,0,0,0,0,0,0,0,0,0,0,0,0,0,0,0,0,0,0,0,0,0,0,0,0,0,0,0,0,0,0,0,0,0,0,0,0,0,0]","[0,0,0,0,0,0,0,0,0,0,0,0,0,0,0,0,0,0,0,0,0,0,0,0,0,0,0,0,0,0,0,0,0,0,0,0,0,0,0,0,0,0,0,0,0,0,0,0,0,0,0,0,0,0,0,0,0,0,0,0,0,0,0]","[0,0,0,0,0,0,0,0,0,0,0,0,0,0,0,0,0,0,0,0,0,0,0,0,0,0,0,0,0,0,0,0,0,0,0,0,0,0,0,0,0,0,0,0,0,0,0,0,0,0,0,0,0,0,0,0,0,0,0,0,0,0,0]","[0,0.030000000000001137,0.06300000000000239,0.09600000000000364,0.13000000000000256,0.1630000000000038,0.19700000000000273,0.23000000000000398,0.2640000000000029,0.29700000000000415,0.3300000000000054,0.3640000000000043,0.39700000000000557,0.42900000000000205,0.46300000000000097,0.4969999999999999,0.5310000000000059,0.5650000000000048,0.5970000000000013,0.6310000000000002,0.6640000000000015,0.6980000000000004,0.7310000000000016,0.7640000000000029,0.7970000000000041,0.8330000000000055,0.865000000000002,0.8990000000000009,0.9310000000000045,0.9640000000000057,0.9960000000000022,1.031000000000006,1.0650000000000048,1.1000000000000014,1.1300000000000026,1.1680000000000064,1.213000000000001,1.2460000000000022,1.281000000000006,1.314,1.3470000000000013,1.382000000000005,1.4140000000000015,1.4470000000000027,1.4820000000000064,1.5210000000000008,1.564,1.5970000000000013,1.6470000000000056,1.6800000000000068,1.7140000000000057,1.7469999999999999,1.781000000000006,1.814,1.848000000000006,1.8810000000000002,1.9140000000000015,1.9500000000000028,1.9810000000000016,2.014000000000003,2.047000000000004,2.081000000000003,2.1140000000000043]",6,0,6,0,1,,,,
C000000000-1,2025-04-17_15h03.32.458,GoFitts,2023.2.3,Win32,59.95203837,"[-116.58908379653484,201.93821674350377]","[156.0266486711983,-173.28514866109037]",36,466.3563352,4.75,0,1.268,0.451,"[-127.4000244140625,-127.4000244140625,-127.4000244140625,-127.4000244140625,-127.4000244140625,-127.4000244140625,-127.4000244140625,-127.4000244140625,-127.4000244140625,-127.4000244140625,-127.4000244140625,-125,-109.79998779296875,-92.20001220703125,-65,-31.4000244140625,11.800048828125,47.800048828125,66.199951171875,77.4000244140625,80.5999755859375,83,83,83.800048828125,90.199951171875,100.5999755859375,111,121.4000244140625,128.5999755859375,130.199951171875,130.199951171875,130.199951171875,130.199951171875,130.199951171875,130.199951171875,130.199951171875,130.199951171875,134.199951171875,138.199951171875,147,148.5999755859375,153.4000244140625,154.199951171875,154.199951171875,154.199951171875,154.199951171875,154.199951171875,154.199951171875,154.199951171875,154.199951171875,154.199951171875,154.199951171875,154.199951171875,154.199951171875,154.199951171875,154.199951171875,154.199951171875,154.199951171875,154.199951171875,154.199951171875,154.199951171875,154.199951171875,154.199951171875,154.199951171875,154.199951171875]","[203.6999969482422,203.6999969482422,206.10000610351562,206.10000610351562,206.10000610351562,206.10000610351562,206.10000610351562,206.10000610351562,206.10000610351562,206.10000610351562,206.10000610351562,206.10000610351562,205.3000030517578,193.3000030517578,166.10000610351562,118.89999389648438,54.100006103515625,-1.100006103515625,-54.70001220703125,-79.5,-90.70001220703125,-97.0999755859375,-98.70001220703125,-104.29998779296875,-116.29998779296875,-130.70001220703125,-142.70001220703125,-156.29998779296875,-168.29998779296875,-169.9000244140625,-169.9000244140625,-169.9000244140625,-169.9000244140625,-169.9000244140625,-169.9000244140625,-169.9000244140625,-169.9000244140625,-169.9000244140625,-169.9000244140625,-169.9000244140625,-169.9000244140625,-169.9000244140625,-169.9000244140625,-169.9000244140625,-169.9000244140625,-169.9000244140625,-169.9000244140625,-169.9000244140625,-169.9000244140625,-169.9000244140625,-169.9000244140625,-169.9000244140625,-169.9000244140625,-169.9000244140625,-169.9000244140625,-169.9000244140625,-169.9000244140625,-169.9000244140625,-169.9000244140625,-169.9000244140625,-169.9000244140625,-169.9000244140625,-169.9000244140625,-169.9000244140625,-169.9000244140625]","[0,0,0,0,0,0,0,0,0,0,0,0,0,0,0,0,0,0,0,0,0,0,0,0,0,0,0,0,0,0,0,0,0,0,0,0,0,0,0,0,0,0,0,0,0,0,0,0,0,0,0,0,0,0,0,0,0,0,0,0,0,0,0,0,0]","[0,0,0,0,0,0,0,0,0,0,0,0,0,0,0,0,0,0,0,0,0,0,0,0,0,0,0,0,0,0,0,0,0,0,0,0,0,0,0,0,0,0,0,0,0,0,0,0,0,0,0,0,0,0,0,0,0,0,0,0,0,0,0,0,0]","[0,0,0,0,0,0,0,0,0,0,0,0,0,0,0,0,0,0,0,0,0,0,0,0,0,0,0,0,0,0,0,0,0,0,0,0,0,0,0,0,0,0,0,0,0,0,0,0,0,0,0,0,0,0,0,0,0,0,0,0,0,0,0,0,0]","[0,0.03300000000000125,0.07000000000000028,0.11500000000000199,0.1490000000000009,0.1839999999999975,0.21699999999999875,0.2530000000000001,0.28300000000000125,0.31700000000000017,0.3500000000000014,0.38299999999999557,0.41799999999999926,0.4510000000000005,0.48400000000000176,0.5169999999999959,0.5499999999999972,0.5839999999999961,0.6169999999999973,0.6509999999999962,0.6839999999999975,0.7179999999999964,0.7509999999999977,0.7849999999999966,0.8179999999999978,0.8509999999999991,0.8840000000000003,0.9189999999999969,0.9519999999999982,0.9840000000000018,1.0189999999999984,1.0360000000000014,1.0670000000000002,1.1019999999999968,1.1340000000000003,1.1499999999999986,1.1839999999999975,1.2179999999999964,1.2340000000000018,1.2680000000000007,1.2999999999999972,1.333999999999996,1.3500000000000014,1.3840000000000003,1.4179999999999993,1.4339999999999975,1.4679999999999964,1.5009999999999977,1.5189999999999984,1.551000000000002,1.583999999999996,1.6019999999999968,1.6340000000000003,1.6670000000000016,1.6999999999999957,1.7179999999999964,1.7520000000000024,1.783999999999999,1.8170000000000002,1.8359999999999985,1.868000000000002,1.9009999999999962,1.918999999999997,1.9510000000000005,1.985999999999997]",7,0,7,0,1,,,,
C000000000-1,2025-04-17_15h03.32.458,GoFitts,2023.2.3,Win32,59.95203837,"[156.0266486711983,-173.28514866109037]","[-188.64510030000307,137.05868806778915]",36,466.3563352,4.75,0,0.866,0.365,"[154.199951171875,154.199951171875,154.199951171875,154.199951171875,154.199951171875,154.199951171875,154.199951171875,154.199951171875,154.199951171875,154.199951171875,154.199951171875,154.199951171875,151.800048828125,139,73.4000244140625,13.4000244140625,-14.5999755859375,-65.79998779296875,-89.79998779296875,-91.4000244140625,-91.4000244140625,-93,-98.5999755859375,-101,-108.20001220703125,-115.4000244140625,-142.5999755859375,-156.20001220703125,-169.79998779296875,-173,-173.79998779296875,-174.5999755859375,-176.20001220703125,-179.4000244140625,-180.20001220703125,-181.79998779296875,-181.79998779296875,-181.79998779296875,-181.79998779296875,-181.79998779296875,-181.79998779296875,-181.79998779296875,-181.79998779296875,-181.79998779296875,-181.79998779296875,-181.79998779296875,-181.79998779296875,-181.79998779296875,-181.79998779296875,-181.79998779296875,-181.79998779296875,-181.79998779296875,-181.79998779296875,-181.79998779296875,-181.79998779296875,-181.79998779296875,-181.79998779296875,-181.79998779296875]","[-169.9000244140625,-169.9000244140625,-169.9000244140625,-169.9000244140625,-169.9000244140625,-169.9000244140625,-169.9000244140625,-169.9000244140625,-169.9000244140625,-169.9000244140625,-169.9000244140625,-169.9000244140625,-169.9000244140625,-157.9000244140625,-99.5,-48.29998779296875,-30.70001220703125,11.70001220703125,39.70001220703125,41.29998779296875,42.100006103515625,44.5,49.29998779296875,51.70001220703125,62.100006103515625,74.10000610351562,94.10000610351562,104.5,119.70001220703125,125.29998779296875,127.70001220703125,130.10000610351562,134.10000610351562,138.89999389648438,140.5,143.70001220703125,144.5,144.5,144.5,144.5,144.5,144.5,144.5,144.5,144.5,144.5,144.5,144.5,144.5,144.5,144.5,144.5,144.5,144.5,144.5,144.5,144.5,144.5]","[0,0,0,0,0,0,0,0,0,0,0,0,0,0,0,0,0,0,0,0,0,0,0,0,0,0,0,0,0,0,0,0,0,0,0,0,0,0,0,0,1,1,1,1,1,1,1,0,0,0,0,0,0,0,0,0,0,0]","[0,0,0,0,0,0,0,0,0,0,0,0,0,0,0,0,0,0,0,0,0,0,0,0,0,0,0,0,0,0,0,0,0,0,0,0,0,0,0,0,0,0,0,0,0,0,0,0,0,0,0,0,0,0,0,0,0,0]","[0,0,0,0,0,0,0,0,0,0,0,0,0,0,0,0,0,0,0,0,0,0,0,0,0,0,0,0,0,0,0,0,0,0,0,0,0,0,0,0,0,0,0,0,0,0,0,0,0,0,0,0,0,0,0,0,0,0]","[0,0.03200000000000358,0.04800000000000182,0.08200000000000074,0.11700000000000443,0.13300000000000267,0.16499999999999915,0.1980000000000004,0.23100000000000165,0.2680000000000007,0.2820000000000036,0.31500000000000483,0.34900000000000375,0.365000000000002,0.3999999999999986,0.4310000000000045,0.45000000000000284,0.4819999999999993,0.5160000000000053,0.5480000000000018,0.5650000000000048,0.6000000000000014,0.632000000000005,0.6510000000000034,0.6810000000000045,0.7150000000000034,0.7480000000000047,0.7650000000000006,0.7989999999999995,0.8320000000000007,0.8659999999999997,0.882000000000005,0.9160000000000039,0.9490000000000052,0.9669999999999987,0.9990000000000023,1.0320000000000036,1.0690000000000026,1.0820000000000007,1.1159999999999997,1.149000000000001,1.166000000000004,1.1990000000000052,1.2319999999999993,1.2660000000000053,1.2820000000000036,1.3160000000000025,1.347999999999999,1.365000000000002,1.399000000000001,1.4310000000000045,1.4500000000000028,1.483000000000004,1.5150000000000006,1.5500000000000043,1.568000000000005,1.597999999999999,1.6340000000000003]",8,0,8,0,1,,,,
C000000000-1,2025-04-17_15h03.32.458,GoFitts,2023.2.3,Win32,59.95203837,"[-188.64510030000307,137.05868806778915]","[213.01885582607406,-94.84210512537153]",36,466.3563352,4.75,0,1.116,0.484,"[-181.79998779296875,-181.79998779296875,-181.79998779296875,-181.79998779296875,-181.79998779296875,-181.79998779296875,-181.79998779296875,-181.79998779296875,-181.79998779296875,-181.79998779296875,-181.79998779296875,-181.79998779296875,-181.79998779296875,-181.79998779296875,-181.79998779296875,-181.79998779296875,-181,-148.20001220703125,-106.5999755859375,71,215,259.800048828125,267.800048828125,271,271,271,271,275.800048828125,285.4000244140625,290.199951171875,291,289.4000244140625,271,251.800048828125,248.5999755859375,245.4000244140625,240.5999755859375,234.199951171875,232.5999755859375,231,230.199951171875,229.4000244140625,227.800048828125,225.4000244140625,223.800048828125,223.800048828125,223,223,223,223,223,223,223,223,223,223,223,223,223,223,223,223,223,223,223]","[144.5,144.5,144.5,144.5,144.5,144.5,144.5,144.5,144.5,144.5,144.5,144.5,144.5,144.5,144.5,144.5,141.29998779296875,116.5,94.10000610351562,14.100006103515625,-50.70001220703125,-82.70001220703125,-89.9000244140625,-96.29998779296875,-96.29998779296875,-96.29998779296875,-97.9000244140625,-106.70001220703125,-122.70001220703125,-130.70001220703125,-130.70001220703125,-130.70001220703125,-123.5,-113.0999755859375,-111.5,-106.70001220703125,-100.29998779296875,-95.5,-94.70001220703125,-94.70001220703125,-94.70001220703125,-94.70001220703125,-94.70001220703125,-93.9000244140625,-92.29998779296875,-92.29998779296875,-92.29998779296875,-92.29998779296875,-92.29998779296875,-92.29998779296875,-92.29998779296875,-92.29998779296875,-92.29998779296875,-92.29998779296875,-92.29998779296875,-92.29998779296875,-92.29998779296875,-92.29998779296875,-92.29998779296875,-92.29998779296875,-92.29998779296875,-92.29998779296875,-92.29998779296875,-92.29998779296875,-92.29998779296875]","[0,0,0,0,0,0,0,0,0,0,0,0,0,0,0,0,0,0,0,0,0,0,0,0,0,0,0,0,0,0,0,0,0,0,0,0,0,0,0,0,0,0,0,0,0,0,0,0,0,0,0,0,0,0,0,0,0,0,0,0,0,0,0,0,0]","[0,0,0,0,0,0,0,0,0,0,0,0,0,0,0,0,0,0,0,0,0,0,0,0,0,0,0,0,0,0,0,0,0,0,0,0,0,0,0,0,0,0,0,0,0,0,0,0,0,0,0,0,0,0,0,0,0,0,0,0,0,0,0,0,0]","[0,0,0,0,0,0,0,0,0,0,0,0,0,0,0,0,0,0,0,0,0,0,0,0,0,0,0,0,0,0,0,0,0,0,0,0,0,0,0,0,0,0,0,0,0,0,0,0,0,0,0,0,0,0,0,0,0,0,0,0,0,0,0,0,0]","[0,0.015000000000000568,0.04899999999999949,0.08299999999999841,0.09799999999999898,0.132000000000005,0.16400000000000148,0.18299999999999983,0.2150000000000034,0.24800000000000466,0.2820000000000036,0.2980000000000018,0.3340000000000032,0.365000000000002,0.3810000000000002,0.41499999999999915,0.4480000000000004,0.48400000000000176,0.49900000000000233,0.5320000000000036,0.5650000000000048,0.6000000000000014,0.615000000000002,0.6490000000000009,0.6840000000000046,0.7150000000000034,0.7330000000000041,0.7650000000000006,0.7980000000000018,0.8320000000000007,0.847999999999999,0.8830000000000027,0.9149999999999991,0.9490000000000052,0.9650000000000034,0.9990000000000023,1.0330000000000013,1.0670000000000002,1.0840000000000032,1.1159999999999997,1.1469999999999985,1.1820000000000022,1.1980000000000004,1.2319999999999993,1.264000000000003,1.2989999999999995,1.3150000000000048,1.3490000000000038,1.382000000000005,1.4170000000000016,1.4490000000000052,1.466000000000001,1.5,1.5320000000000036,1.5660000000000025,1.5850000000000009,1.6159999999999997,1.6499999999999986,1.6820000000000022,1.7150000000000034,1.733000000000004,1.7659999999999982,1.7980000000000018,1.8329999999999984,1.8490000000000038]",9,0,9,0,1,,,,
C000000000-1,2025-04-17_15h03.32.458,GoFitts,2023.2.3,Win32,59.95203837,"[213.01885582607406,-94.84210512537153]","[-228.08266517466646,48.48046708606199]",36,466.3563352,4.75,0,1.433,0.533,"[223,223,223,223,223,223,223,223,223,223,223,223,223,223,223,223,223,219,167.800048828125,59,-68.20001220703125,-105.79998779296875,-109,-109,-109,-109,-109.79998779296875,-112.20001220703125,-119.4000244140625,-129.79998779296875,-135.4000244140625,-147.4000244140625,-160.20001220703125,-190.5999755859375,-209,-209.79998779296875,-209.79998779296875,-209.79998779296875,-209.79998779296875,-211.4000244140625,-211.4000244140625,-211.4000244140625,-211.4000244140625,-211.4000244140625,-211.4000244140625,-211.4000244140625,-212.20001220703125,-213,-214.5999755859375,-214.5999755859375,-215.4000244140625,-215.4000244140625,-218.5999755859375,-220.20001220703125,-220.20001220703125,-220.20001220703125,-220.20001220703125,-220.20001220703125,-220.20001220703125,-220.20001220703125,-220.20001220703125,-220.20001220703125,-220.20001220703125,-220.20001220703125,-220.20001220703125,-220.20001220703125,-220.20001220703125,-220.20001220703125,-220.20001220703125,-220.20001220703125,-220.20001220703125,-220.20001220703125]","[-92.29998779296875,-92.29998779296875,-92.29998779296875,-92.29998779296875,-92.29998779296875,-92.29998779296875,-92.29998779296875,-92.29998779296875,-92.29998779296875,-92.29998779296875,-92.29998779296875,-92.29998779296875,-92.29998779296875,-92.29998779296875,-92.29998779296875,-92.29998779296875,-92.29998779296875,-89.9000244140625,-73.10000610351562,-33.100006103515625,14.100006103515625,27.70001220703125,28.5,28.5,28.5,28.5,28.5,28.5,28.5,28.5,30.899993896484375,36.5,42.899993896484375,54.899993896484375,61.29998779296875,62.100006103515625,62.100006103515625,62.100006103515625,62.100006103515625,62.100006103515625,62.100006103515625,62.100006103515625,62.100006103515625,62.100006103515625,62.100006103515625,62.100006103515625,62.100006103515625,59.70001220703125,58.899993896484375,57.29998779296875,57.29998779296875,56.5,52.5,50.100006103515625,50.100006103515625,50.100006103515625,50.100006103515625,50.100006103515625,50.100006103515625,50.100006103515625,50.100006103515625,50.100006103515625,50.100006103515625,50.100006103515625,50.100006103515625,50.100006103515625,50.100006103515625,50.100006103515625,50.100006103515625,50.100006103515625,50.100006103515625,50.100006103515625]","[0,0,0,0,0,0,0,0,0,0,0,0,0,0,0,0,0,0,0,0,0,0,0,0,0,0,0,0,0,0,0,0,0,0,0,0,0,0,0,0,0,0,0,0,0,0,0,0,0,0,0,0,0,0,0,0,0,0,0,0,0,0,0,0,0,0,0,0,0,0,0,0]","[0,0,0,0,0,0,0,0,0,0,0,0,0,0,0,0,0,0,0,0,0,0,0,0,0,0,0,0,0,0,0,0,0,0,0,0,0,0,0,0,0,0,0,0,0,0,0,0,0,0,0,0,0,0,0,0,0,0,0,0,0,0,0,0,0,0,0,0,0,0,0,0]","[0,0,0,0,0,0,0,0,0,0,0,0,0,0,0,0,0,0,0,0,0,0,0,0,0,0,0,0,0,0,0,0,0,0,0,0,0,0,0,0,0,0,0,0,0,0,0,0,0,0,0,0,0,0,0,0,0,0,0,0,0,0,0,0,0,0,0,0,0,0,0,0]","[0,0.03200000000000358,0.06499999999999773,0.10099999999999909,0.11500000000000199,0.14999999999999858,0.18099999999999739,0.2150000000000034,0.23400000000000176,0.26599999999999824,0.2980000000000018,0.31700000000000017,0.34900000000000375,0.384999999999998,0.4159999999999968,0.44899999999999807,0.46699999999999875,0.5,0.5330000000000013,0.5649999999999977,0.5990000000000038,0.6169999999999973,0.6490000000000009,0.6829999999999998,0.7150000000000034,0.7349999999999994,0.7659999999999982,0.8010000000000019,0.8329999999999984,0.8659999999999997,0.8840000000000003,0.9170000000000016,0.9489999999999981,0.982999999999997,1.0159999999999982,1.0350000000000037,1.0660000000000025,1.0990000000000038,1.131999999999998,1.1659999999999968,1.1850000000000023,1.216000000000001,1.2509999999999977,1.2820000000000036,1.3160000000000025,1.3329999999999984,1.3659999999999997,1.4010000000000034,1.4329999999999998,1.4500000000000028,1.4840000000000018,1.517000000000003,1.5499999999999972,1.5820000000000007,1.5990000000000038,1.6330000000000027,1.6649999999999991,1.703000000000003,1.7150000000000034,1.7530000000000001,1.7820000000000036,1.8170000000000002,1.8340000000000032,1.8689999999999998,1.9029999999999987,1.948999999999998,1.9849999999999994,2.0150000000000006,2.0489999999999995,2.0820000000000007,2.1159999999999997,2.152000000000001]",10,0,10,0,1,,,,
C000000000-1,2025-04-17_15h03.32.458,GoFitts,2023.2.3,Win32,59.95203837,"[-228.08266517466646,48.48046708606199]","[233.1781675930698,0]",36,466.3563352,4.75,0,0.898,0.448,"[-220.20001220703125,-220.20001220703125,-220.20001220703125,-220.20001220703125,-220.20001220703125,-220.20001220703125,-220.20001220703125,-220.20001220703125,-220.20001220703125,-220.20001220703125,-220.20001220703125,-220.20001220703125,-217,-171.4000244140625,-98.5999755859375,1.4000244140625,48.5999755859375,79,94.199951171875,101.4000244140625,109.4000244140625,124.5999755859375,142.199951171875,167,203,219.800048828125,224.5999755859375,232.5999755859375,237.4000244140625,240.5999755859375,240.5999755859375,240.5999755859375,240.5999755859375,240.5999755859375,240.5999755859375,240.5999755859375,240.5999755859375,240.5999755859375,240.5999755859375,240.5999755859375,240.5999755859375,240.5999755859375,240.5999755859375,240.5999755859375,240.5999755859375,240.5999755859375]","[50.100006103515625,50.100006103515625,50.100006103515625,50.100006103515625,50.100006103515625,50.100006103515625,50.100006103515625,50.100006103515625,50.100006103515625,50.100006103515625,50.100006103515625,50.100006103515625,50.100006103515625,41.29998779296875,28.5,14.899993896484375,13.29998779296875,14.100006103515625,17.29998779296875,18.100006103515625,18.100006103515625,18.100006103515625,18.100006103515625,18.100006103515625,18.100006103515625,10.899993896484375,8.5,5.29998779296875,5.29998779296875,3.70001220703125,3.70001220703125,3.70001220703125,3.70001220703125,3.70001220703125,3.70001220703125,3.70001220703125,3.70001220703125,3.70001220703125,3.70001220703125,3.70001220703125,3.70001220703125,3.70001220703125,3.70001220703125,3.70001220703125,3.70001220703125,3.70001220703125]","[0,0,0,0,0,0,0,0,0,0,0,0,0,0,0,0,0,0,0,0,0,0,0,0,0,0,0,0,0,0,0,0,0,0,0,0,0,0,0,0,0,0,0,0,0,0]","[0,0,0,0,0,0,0,0,0,0,0,0,0,0,0,0,0,0,0,0,0,0,0,0,0,0,0,0,0,0,0,0,0,0,0,0,0,0,0,0,0,0,0,0,0,0]","[0,0,0,0,0,0,0,0,0,0,0,0,0,0,0,0,0,0,0,0,0,0,0,0,0,0,0,0,0,0,0,0,0,0,0,0,0,0,0,0,0,0,0,0,0,0]","[0,0.030999999999998806,0.06400000000000006,0.10799999999999699,0.1319999999999979,0.1700000000000017,0.21399999999999864,0.24799999999999756,0.2809999999999988,0.3149999999999977,0.3500000000000014,0.3810000000000002,0.41499999999999915,0.4480000000000004,0.48499999999999943,0.5319999999999965,0.5640000000000001,0.5989999999999966,0.6319999999999979,0.6689999999999969,0.7139999999999986,0.7479999999999976,0.7819999999999965,0.8130000000000024,0.8500000000000014,0.8979999999999961,0.9309999999999974,0.9669999999999987,0.9979999999999976,1.033999999999999,1.080999999999996,1.115000000000002,1.1479999999999961,1.1809999999999974,1.2209999999999965,1.2650000000000006,1.2999999999999972,1.3320000000000007,1.3699999999999974,1.4149999999999991,1.448999999999998,1.4870000000000019,1.5309999999999988,1.5649999999999977,1.6049999999999969,1.649000000000001]",11,0,11,0,1,,,,
C000000000-1,2025-04-17_15h03.32.458,GoFitts,2023.2.3,Win32,59.95203837,"[233.1781675930698,0]","[-228.08266517466646,-48.480467086061935]",36,466.3563352,4.75,0,1.32,0.449,"[240.5999755859375,240.5999755859375,240.5999755859375,240.5999755859375,240.5999755859375,240.5999755859375,240.5999755859375,240.5999755859375,240.5999755859375,240.5999755859375,240.5999755859375,207,141.4000244140625,38.199951171875,-46.5999755859375,-122.5999755859375,-125.79998779296875,-126.5999755859375,-136.20001220703125,-152.20001220703125,-172.20001220703125,-189.79998779296875,-205.79998779296875,-214.5999755859375,-216.20001220703125,-265,-286.5999755859375,-286.5999755859375,-286.5999755859375,-285,-281.79998779296875,-261,-242.5999755859375,-239.4000244140625,-237.79998779296875,-233,-231.4000244140625,-231.4000244140625,-231.4000244140625,-231.4000244140625,-231.4000244140625,-231.4000244140625,-231.4000244140625,-231.4000244140625,-231.4000244140625,-231.4000244140625,-231.4000244140625,-231.4000244140625,-231.4000244140625,-231.4000244140625]","[3.70001220703125,3.70001220703125,3.70001220703125,3.70001220703125,3.70001220703125,3.70001220703125,3.70001220703125,3.70001220703125,3.70001220703125,3.70001220703125,3.70001220703125,-9.899993896484375,-25.100006103515625,-35.5,-35.5,-35.5,-35.5,-35.5,-36.29998779296875,-36.29998779296875,-34.70001220703125,-34.70001220703125,-41.100006103515625,-43.5,-43.5,-50.70001220703125,-54.70001220703125,-54.70001220703125,-54.70001220703125,-54.70001220703125,-54.70001220703125,-52.29998779296875,-52.29998779296875,-52.29998779296875,-52.29998779296875,-52.29998779296875,-52.29998779296875,-52.29998779296875,-52.29998779296875,-52.29998779296875,-52.29998779296875,-52.29998779296875,-52.29998779296875,-52.29998779296875,-52.29998779296875,-52.29998779296875,-52.29998779296875,-52.29998779296875,-52.29998779296875,-52.29998779296875]","[0,0,0,0,0,0,0,0,0,0,0,0,0,0,0,0,0,0,0,0,0,0,0,0,0,0,0,0,0,0,0,0,0,0,0,0,0,0,0,0,0,0,0,0,0,0,0,0,0,0]","[0,0,0,0,0,0,0,0,0,0,0,0,0,0,0,0,0,0,0,0,0,0,0,0,0,0,0,0,0,0,0,0,0,0,0,0,0,0,0,0,0,0,0,0,0,0,0,0,0,0]","[0,0,0,0,0,0,0,0,0,0,0,0,0,0,0,0,0,0,0,0,0,0,0,0,0,0,0,0,0,0,0,0,0,0,0,0,0,0,0,0,0,0,0,0,0,0,0,0,0,0]","[0,0.03300000000000125,0.07099999999999795,0.11599999999999966,0.14999999999999858,0.18900000000000006,0.23199999999999932,0.26599999999999824,0.3159999999999954,0.3569999999999993,0.3990000000000009,0.44899999999999807,0.4819999999999993,0.5319999999999965,0.5659999999999954,0.6159999999999997,0.6490000000000009,0.6999999999999957,0.732999999999997,0.7740000000000009,0.8159999999999954,0.8560000000000016,0.8999999999999986,0.9369999999999976,0.9840000000000018,1.024000000000001,1.0659999999999954,1.1069999999999993,1.1499999999999986,1.2010000000000005,1.232999999999997,1.2830000000000013,1.3200000000000003,1.3669999999999973,1.4050000000000011,1.448999999999998,1.5,1.533999999999999,1.5829999999999984,1.6169999999999973,1.6670000000000016,1.7019999999999982,1.7530000000000001,1.7860000000000014,1.8350000000000009,1.8719999999999999,1.9179999999999993,1.955999999999996,2,2.0390000000000015]",12,0,12,0,1,,,,
C000000000-1,2025-04-17_15h03.32.458,GoFitts,2023.2.3,Win32,59.95203837,"[-228.08266517466646,-48.480467086061935]","[213.01885582607403,94.84210512537153]",36,466.3563352,4.75,0,1.015,0.51,"[-231.4000244140625,-231.4000244140625,-231.4000244140625,-231.4000244140625,-231.4000244140625,-231.4000244140625,-231.4000244140625,-231.4000244140625,-231.4000244140625,-231.4000244140625,-231.4000244140625,-228.20001220703125,-194.5999755859375,-94.5999755859375,142.199951171875,267,284.5999755859375,287,287.800048828125,290.199951171875,290.199951171875,290.199951171875,282.199951171875,268.5999755859375,229.4000244140625,224.5999755859375,222.199951171875,221.4000244140625,221.4000244140625,221.4000244140625,221.4000244140625,221.4000244140625,221.4000244140625,221.4000244140625,221.4000244140625,221.4000244140625,221.4000244140625,221.4000244140625,221.4000244140625,221.4000244140625,221.4000244140625,221.4000244140625]","[-52.29998779296875,-52.29998779296875,-52.29998779296875,-52.29998779296875,-52.29998779296875,-52.29998779296875,-52.29998779296875,-52.29998779296875,-52.29998779296875,-52.29998779296875,-52.29998779296875,-50.70001220703125,-42.70001220703125,-12.29998779296875,62.100006103515625,105.29998779296875,111.70001220703125,113.29998779296875,114.10000610351562,120.5,120.5,120.5,120.5,114.10000610351562,93.29998779296875,90.10000610351562,90.10000610351562,90.10000610351562,90.10000610351562,90.10000610351562,90.10000610351562,90.10000610351562,90.10000610351562,90.10000610351562,90.10000610351562,90.10000610351562,90.10000610351562,90.10000610351562,90.10000610351562,90.10000610351562,90.10000610351562,90.10000610351562]","[0,0,0,0,0,0,0,0,0,0,0,0,0,0,0,0,0,0,0,0,0,0,0,0,0,0,0,0,0,0,0,0,0,0,0,0,0,0,0,0,0,0]","[0,0,0,0,0,0,0,0,0,0,0,0,0,0,0,0,0,0,0,0,0,0,0,0,0,0,0,0,0,0,0,0,0,0,0,0,0,0,0,0,0,0]","[0,0,0,0,0,0,0,0,0,0,0,0,0,0,0,0,0,0,0,0,0,0,0,0,0,0,0,0,0,0,0,0,0,0,0,0,0,0,0,0,0,0]","[0,0.04399999999999693,0.08399999999999608,0.12700000000000244,0.1769999999999996,0.20899999999999608,0.2629999999999981,0.2949999999999946,0.3440000000000012,0.377999999999993,0.4280000000000044,0.46400000000000574,0.509999999999998,0.5489999999999995,0.5929999999999964,0.6439999999999984,0.6769999999999996,0.7269999999999968,0.7629999999999981,0.8129999999999953,0.8440000000000012,0.8939999999999984,0.9280000000000044,0.9769999999999968,1.0149999999999935,1.061,1.1000000000000014,1.1439999999999984,1.193000000000005,1.2269999999999968,1.276999999999994,1.311,1.360999999999997,1.3959999999999937,1.443000000000005,1.482999999999997,1.526999999999994,1.568000000000005,1.610999999999997,1.6600000000000037,1.6950000000000003,1.7439999999999927]",13,0,13,0,1,,,,
C000000000-1,2025-04-17_15h03.32.458,GoFitts,2023.2.3,Win32,59.95203837,"[213.01885582607403,94.84210512537153]","[-188.6451003000031,-137.0586880677891]",36,466.3563352,4.75,0,1.016,0.502,"[221.4000244140625,221.4000244140625,221.4000244140625,221.4000244140625,221.4000244140625,221.4000244140625,221.4000244140625,221.4000244140625,221.4000244140625,221.4000244140625,221.4000244140625,219,126.199951171875,-89.79998779296875,-138.5999755859375,-153.79998779296875,-153.79998779296875,-153.79998779296875,-153.79998779296875,-157.79998779296875,-157.79998779296875,-160.20001220703125,-164.20001220703125,-170.5999755859375,-173.79998779296875,-173.79998779296875,-173.79998779296875,-173.79998779296875,-173.79998779296875,-173.79998779296875,-173.79998779296875,-173.79998779296875,-173.79998779296875,-173.79998779296875,-173.79998779296875,-173.79998779296875,-173.79998779296875,-173.79998779296875,-173.79998779296875,-173.79998779296875,-173.79998779296875,-173.79998779296875]","[90.10000610351562,90.10000610351562,90.10000610351562,90.10000610351562,90.10000610351562,90.10000610351562,90.10000610351562,90.10000610351562,90.10000610351562,90.10000610351562,90.10000610351562,87.70001220703125,37.29998779296875,-97.0999755859375,-141.9000244140625,-153.9000244140625,-153.9000244140625,-153.9000244140625,-153.9000244140625,-153.0999755859375,-150.70001220703125,-145.9000244140625,-141.0999755859375,-137.9000244140625,-137.0999755859375,-137.0999755859375,-137.0999755859375,-137.0999755859375,-137.0999755859375,-137.0999755859375,-137.0999755859375,-137.0999755859375,-137.0999755859375,-137.0999755859375,-137.0999755859375,-137.0999755859375,-137.0999755859375,-137.0999755859375,-137.0999755859375,-137.0999755859375,-137.0999755859375,-137.0999755859375]","[0,0,0,0,0,0,0,0,0,0,0,0,0,0,0,0,0,0,0,0,0,0,0,0,0,0,0,0,0,0,0,0,0,0,0,0,0,0,0,0,0,0]","[0,0,0,0,0,0,0,0,0,0,0,0,0,0,0,0,0,0,0,0,0,0,0,0,0,0,0,0,0,0,0,0,0,0,0,0,0,0,0,0,0,0]","[0,0,0,0,0,0,0,0,0,0,0,0,0,0,0,0,0,0,0,0,0,0,0,0,0,0,0,0,0,0,0,0,0,0,0,0,0,0,0,0,0,0]","[0,0.034000000000006025,0.08200000000000784,0.11899999999999977,0.16500000000000625,0.20400000000000773,0.25,0.2890000000000015,0.33200000000000784,0.38299999999999557,0.41500000000000625,0.4660000000000082,0.5019999999999953,0.5499999999999972,0.585000000000008,0.6329999999999956,0.6700000000000017,0.7180000000000035,0.7560000000000002,0.7990000000000066,0.8500000000000085,0.8829999999999956,0.9330000000000069,0.9699999999999989,1.0160000000000053,1.0529999999999973,1.1000000000000085,1.1380000000000052,1.186000000000007,1.222999999999999,1.266999999999996,1.3160000000000025,1.3490000000000038,1.399000000000001,1.4399999999999977,1.483000000000004,1.5229999999999961,1.5690000000000026,1.6159999999999997,1.649000000000001,1.7000000000000028,1.7339999999999947]",14,0,14,0,1,,,,
C000000000-1,2025-04-17_15h03.32.458,GoFitts,2023.2.3,Win32,59.95203837,,,,,,0,,,,,,,,,,,,,,0,0,0,1
C000000000-1,2025-04-17_15h03.32.458,GoFitts,2023.2.3,Win32,59.95203837,"[-173.79998779296875,-137.0999755859375]","[85.68769180784798,-263.71959841556077]",21,554.5823911,5.75,1,2.669,1.517,"[-173.79998779296875,-173.79998779296875,-173.79998779296875,-173.79998779296875,-173.79998779296875,-173.79998779296875,-173.79998779296875,-173.79998779296875,-173.79998779296875,-173.79998779296875,-173.79998779296875,-173.79998779296875,-173.79998779296875,-173.79998779296875,-173.79998779296875,-173.79998779296875,-173.79998779296875,-173.79998779296875,-173.79998779296875,-173.79998779296875,-173.79998779296875,-173.79998779296875,-173.79998779296875,-173.79998779296875,-173.79998779296875,-173.79998779296875,-173.79998779296875,-173.79998779296875,-173.79998779296875,-173.79998779296875,-173.79998779296875,-173.79998779296875,-173.79998779296875,-173.79998779296875,-173.79998779296875,-173.79998779296875,-169.79998779296875,-130.5999755859375,-98.5999755859375,-92.20001220703125,-92.20001220703125,-92.20001220703125,-90.5999755859375,-82.5999755859375,-75.4000244140625,-71.4000244140625,-25.79998779296875,3.79998779296875,9.4000244140625,18.199951171875,33.4000244140625,45.4000244140625,54.199951171875,57.4000244140625,62.199951171875,65.4000244140625,67.800048828125,68.5999755859375,68.5999755859375,71.800048828125,73.4000244140625,75,75,79,80.5999755859375,80.5999755859375,80.5999755859375,80.5999755859375,80.5999755859375,81.4000244140625,81.4000244140625,81.4000244140625,81.4000244140625,81.4000244140625,81.4000244140625,81.4000244140625,81.4000244140625,81.4000244140625,81.4000244140625,81.4000244140625,81.4000244140625]","[-137.0999755859375,-137.0999755859375,-137.0999755859375,-137.0999755859375,-137.0999755859375,-137.0999755859375,-137.0999755859375,-137.0999755859375,-137.0999755859375,-137.0999755859375,-137.0999755859375,-137.0999755859375,-137.0999755859375,-137.0999755859375,-137.0999755859375,-137.0999755859375,-137.0999755859375,-137.0999755859375,-137.0999755859375,-137.0999755859375,-137.0999755859375,-137.0999755859375,-137.0999755859375,-137.0999755859375,-137.0999755859375,-137.0999755859375,-137.0999755859375,-137.0999755859375,-137.0999755859375,-137.0999755859375,-137.0999755859375,-137.0999755859375,-137.0999755859375,-137.0999755859375,-137.0999755859375,-137.0999755859375,-136.29998779296875,-116.29998779296875,-101.9000244140625,-98.70001220703125,-98.70001220703125,-98.70001220703125,-96.29998779296875,-89.0999755859375,-82.70001220703125,-81.10000610351562,-98.70001220703125,-133.0999755859375,-155.5,-167.5,-182.70001220703125,-195.5,-208.29998779296875,-214.70001220703125,-229.0999755859375,-245.9000244140625,-253.0999755859375,-256.29998779296875,-256.29998779296875,-258.70001220703125,-260.29998779296875,-261.0999755859375,-261.0999755859375,-261.0999755859375,-261.0999755859375,-261.0999755859375,-261.0999755859375,-261.0999755859375,-261.0999755859375,-261.0999755859375,-261.0999755859375,-261.0999755859375,-261.0999755859375,-261.0999755859375,-261.0999755859375,-261.0999755859375,-261.0999755859375,-261.0999755859375,-261.0999755859375,-261.0999755859375,-261.0999755859375]","[0,0,0,0,0,0,0,0,0,0,0,0,0,0,0,0,0,0,0,0,0,0,0,0,0,0,0,0,0,0,0,0,0,0,0,0,0,0,0,0,0,0,0,0,0,0,0,0,0,0,0,0,0,0,0,0,0,0,0,0,0,0,0,0,0,0,0,0,0,0,0,0,0,0,0,0,0,0,0,0,0]","[0,0,0,0,0,0,0,0,0,0,0,0,0,0,0,0,0,0,0,0,0,0,0,0,0,0,0,0,0,0,0,0,0,0,0,0,0,0,0,0,0,0,0,0,0,0,0,0,0,0,0,0,0,0,0,0,0,0,0,0,0,0,0,0,0,0,0,0,0,0,0,0,0,0,0,0,0,0,0,0,0]","[0,0,0,0,0,0,0,0,0,0,0,0,0,0,0,0,0,0,0,0,0,0,0,0,0,0,0,0,0,0,0,0,0,0,0,0,0,0,0,0,0,0,0,0,0,0,0,0,0,0,0,0,0,0,0,0,0,0,0,0,0,0,0,0,0,0,0,0,0,0,0,0,0,0,0,0,0,0,0,0,0]","[0,0.031999999999996476,0.08199999999999363,0.11499999999999488,0.16499999999999204,0.20399999999999352,0.24899999999999523,0.2879999999999967,0.33199999999999363,0.37299999999999045,0.4159999999999968,0.46699999999999875,0.5049999999999955,0.5519999999999925,0.5989999999999895,0.6329999999999956,0.6829999999999927,0.715999999999994,0.7659999999999911,0.8019999999999925,0.8489999999999895,0.8870000000000005,0.9329999999999927,0.9719999999999942,1.0159999999999911,1.0570000000000022,1.0999999999999943,1.1400000000000006,1.1820000000000022,1.222999999999999,1.2659999999999911,1.3070000000000022,1.3489999999999895,1.3900000000000006,1.4329999999999927,1.4829999999999899,1.516999999999996,1.5659999999999883,1.6029999999999944,1.649000000000001,1.6880000000000024,1.7319999999999993,1.774000000000001,1.8159999999999883,1.8569999999999993,1.899000000000001,1.9399999999999977,1.9829999999999899,2.0319999999999965,2.067999999999998,2.1159999999999997,2.152000000000001,2.198999999999998,2.2379999999999995,2.2830000000000013,2.3329999999999984,2.3669999999999902,2.4170000000000016,2.4499999999999886,2.5009999999999906,2.5360000000000014,2.5829999999999984,2.6199999999999974,2.669000000000004,2.7050000000000054,2.7520000000000024,2.789999999999999,2.833999999999996,2.8840000000000074,2.9179999999999993,2.967000000000006,3.0009999999999977,3.0489999999999995,3.0860000000000056,3.1340000000000074,3.172000000000004,3.216000000000001,3.256999999999998,3.3000000000000043,3.3500000000000014,3.3840000000000074]",0,0,0,0,1,,,,
C000000000-1,2025-04-17_15h03.32.458,GoFitts,2023.2.3,Win32,59.95203837,"[85.68769180784798,-263.71959841556077]","[-138.645597762624,240.14121957062272]",21,554.5823911,5.75,1,1.202,0.517,"[81.4000244140625,81.4000244140625,81.4000244140625,81.4000244140625,81.4000244140625,81.4000244140625,81.4000244140625,81.4000244140625,81.4000244140625,81.4000244140625,81.4000244140625,81.4000244140625,68.5999755859375,11.800048828125,-41,-61,-67.4000244140625,-87.4000244140625,-114.5999755859375,-128.20001220703125,-135.4000244140625,-138.5999755859375,-138.5999755859375,-138.5999755859375,-138.5999755859375,-138.5999755859375,-138.5999755859375,-138.5999755859375,-138.5999755859375,-138.5999755859375,-137.79998779296875,-137,-137,-137,-137,-137,-137,-137,-137,-137,-137,-137,-137,-137,-137,-137]","[-261.0999755859375,-261.0999755859375,-261.0999755859375,-261.0999755859375,-261.0999755859375,-261.0999755859375,-261.0999755859375,-261.0999755859375,-261.0999755859375,-261.0999755859375,-261.0999755859375,-261.0999755859375,-225.9000244140625,-93.0999755859375,20.5,53.29998779296875,58.899993896484375,78.89999389648438,115.70001220703125,145.29998779296875,178.89999389648438,204.5,218.10000610351562,224.5,227.6999969482422,227.6999969482422,227.6999969482422,227.6999969482422,230.10000610351562,232.5,235.6999969482422,240.5,240.5,240.5,240.5,240.5,240.5,240.5,240.5,240.5,240.5,240.5,240.5,240.5,240.5,240.5]","[0,0,0,0,0,0,0,0,0,0,0,0,0,0,0,0,0,0,0,0,0,0,0,0,0,0,0,0,0,0,0,0,0,0,0,0,0,0,0,0,0,0,0,0,0,0]","[0,0,0,0,0,0,0,0,0,0,0,0,0,0,0,0,0,0,0,0,0,0,0,0,0,0,0,0,0,0,0,0,0,0,0,0,0,0,0,0,0,0,0,0,0,0]","[0,0,0,0,0,0,0,0,0,0,0,0,0,0,0,0,0,0,0,0,0,0,0,0,0,0,0,0,0,0,0,0,0,0,0,0,0,0,0,0,0,0,0,0,0,0]","[0,0.04800000000000182,0.09100000000000819,0.132000000000005,0.16800000000000637,0.2150000000000034,0.2530000000000001,0.30000000000001137,0.34900000000000375,0.382000000000005,0.43200000000000216,0.4680000000000035,0.5170000000000101,0.5550000000000068,0.6000000000000085,0.6500000000000057,0.6890000000000072,0.7319999999999993,0.7820000000000107,0.8149999999999977,0.8650000000000091,0.9080000000000013,0.9500000000000028,0.987000000000009,1.0320000000000107,1.0730000000000075,1.115000000000009,1.1650000000000063,1.2019999999999982,1.2490000000000094,1.2870000000000061,1.3320000000000078,1.3719999999999999,1.416000000000011,1.4660000000000082,1.5010000000000048,1.5500000000000114,1.588000000000008,1.6330000000000098,1.686000000000007,1.7150000000000034,1.7690000000000055,1.8020000000000067,1.8490000000000038,1.8880000000000052,1.933000000000007]",1,0,1,0,1,,,,
C000000000-1,2025-04-17_15h03.32.458,GoFitts,2023.2.3,Win32,59.95203837,"[-138.645597762624,240.14121957062272]","[185.54402579978205,-206.06751710502843]",21,554.5823911,5.75,1,1.231,0.548,"[-137,-137,-137,-137,-137,-137,-137,-137,-137,-137,-137,-137,-135.4000244140625,-105,15,126.199951171875,214.199951171875,216.5999755859375,216.5999755859375,215.800048828125,213.4000244140625,210.199951171875,194.199951171875,146.199951171875,134.199951171875,134.199951171875,134.199951171875,135,148.5999755859375,180.5999755859375,192.5999755859375,193.4000244140625,193.4000244140625,193.4000244140625,193.4000244140625,193.4000244140625,193.4000244140625,193.4000244140625,193.4000244140625,193.4000244140625,193.4000244140625,193.4000244140625,193.4000244140625,193.4000244140625,193.4000244140625,193.4000244140625,193.4000244140625,193.4000244140625]","[240.5,240.5,240.5,240.5,240.5,240.5,240.5,240.5,240.5,240.5,240.5,240.5,238.89999389648438,196.5,61.29998779296875,-89.0999755859375,-231.5,-247.5,-249.9000244140625,-249.9000244140625,-250.70001220703125,-251.5,-241.9000244140625,-195.5,-178.70001220703125,-178.70001220703125,-178.70001220703125,-178.70001220703125,-184.29998779296875,-197.9000244140625,-203.5,-203.5,-203.5,-203.5,-203.5,-203.5,-203.5,-203.5,-203.5,-203.5,-203.5,-203.5,-203.5,-203.5,-203.5,-203.5,-203.5,-203.5]","[0,0,0,0,0,0,0,0,0,0,0,0,0,0,0,0,0,0,0,0,0,0,0,0,0,0,0,0,0,0,0,0,0,0,0,0,0,0,0,0,0,0,0,0,0,0,0,0]","[0,0,0,0,0,0,0,0,0,0,0,0,0,0,0,0,0,0,0,0,0,0,0,0,0,0,0,0,0,0,0,0,0,0,0,0,0,0,0,0,0,0,0,0,0,0,0,0]","[0,0,0,0,0,0,0,0,0,0,0,0,0,0,0,0,0,0,0,0,0,0,0,0,0,0,0,0,0,0,0,0,0,0,0,0,0,0,0,0,0,0,0,0,0,0,0,0]","[0,0.0379999999999967,0.08100000000000307,0.13400000000000034,0.16400000000000148,0.21699999999999875,0.24800000000000466,0.2980000000000018,0.3329999999999984,0.3810000000000002,0.4200000000000017,0.46399999999999864,0.5040000000000049,0.5480000000000018,0.597999999999999,0.6310000000000002,0.6820000000000022,0.7150000000000034,0.7660000000000053,0.8010000000000019,0.847999999999999,0.8850000000000051,0.9330000000000069,0.9710000000000036,1.0150000000000006,1.054000000000002,1.097999999999999,1.1389999999999958,1.1809999999999974,1.2310000000000088,1.2650000000000006,1.3160000000000025,1.347999999999999,1.399000000000001,1.4350000000000023,1.4819999999999993,1.5190000000000055,1.5640000000000072,1.6060000000000088,1.6479999999999961,1.698999999999998,1.7310000000000088,1.7819999999999965,1.8160000000000025,1.8659999999999997,1.899000000000001,1.9480000000000075,1.9840000000000089]",2,0,2,0,1,,,,
C000000000-1,2025-04-17_15h03.32.458,GoFitts,2023.2.3,Win32,59.95203837,"[185.54402579978205,-206.06751710502843]","[-224.33328957047206,162.98767532028947]",21,554.5823911,5.75,1,1.238,0.554,"[193.4000244140625,193.4000244140625,193.4000244140625,193.4000244140625,193.4000244140625,193.4000244140625,193.4000244140625,193.4000244140625,193.4000244140625,193.4000244140625,193.4000244140625,193.4000244140625,191.800048828125,142.199951171875,-3.4000244140625,-160.20001220703125,-192.20001220703125,-205,-215.4000244140625,-237,-249.79998779296875,-250.5999755859375,-250.5999755859375,-250.5999755859375,-245.79998779296875,-240.20001220703125,-231.4000244140625,-227.4000244140625,-225.79998779296875,-225,-224.20001220703125,-223.4000244140625,-223.4000244140625,-221.79998779296875,-221.79998779296875,-221.79998779296875,-221.79998779296875,-221.79998779296875,-221.79998779296875,-221.79998779296875,-221.79998779296875,-221.79998779296875,-221.79998779296875,-221.79998779296875,-221.79998779296875,-221.79998779296875,-221.79998779296875]","[-203.5,-203.5,-203.5,-203.5,-203.5,-203.5,-203.5,-203.5,-203.5,-203.5,-203.5,-203.5,-202.70001220703125,-162.70001220703125,-50.70001220703125,58.100006103515625,84.5,97.29998779296875,108.5,141.29998779296875,170.10000610351562,181.3000030517578,181.3000030517578,181.3000030517578,181.3000030517578,181.3000030517578,178.89999389648438,176.5,174.10000610351562,171.6999969482422,170.10000610351562,167.70001220703125,166.89999389648438,166.89999389648438,166.89999389648438,166.89999389648438,166.89999389648438,166.89999389648438,166.89999389648438,166.89999389648438,166.89999389648438,166.89999389648438,166.89999389648438,166.89999389648438,166.89999389648438,166.89999389648438,166.89999389648438]","[0,0,0,0,0,0,0,0,0,0,0,0,0,0,0,0,0,0,0,0,0,0,0,0,0,0,0,0,0,0,0,0,0,0,0,0,0,0,0,0,0,0,0,0,0,0,0]","[0,0,0,0,0,0,0,0,0,0,0,0,0,0,0,0,0,0,0,0,0,0,0,0,0,0,0,0,0,0,0,0,0,0,0,0,0,0,0,0,0,0,0,0,0,0,0]","[0,0,0,0,0,0,0,0,0,0,0,0,0,0,0,0,0,0,0,0,0,0,0,0,0,0,0,0,0,0,0,0,0,0,0,0,0,0,0,0,0,0,0,0,0,0,0]","[0,0.049000000000006594,0.08400000000000318,0.13100000000000023,0.16899999999999693,0.21300000000000807,0.2639999999999958,0.29999999999999716,0.34600000000000364,0.38400000000000034,0.4309999999999974,0.46999999999999886,0.5130000000000052,0.554000000000002,0.5960000000000036,0.6460000000000008,0.6800000000000068,0.730000000000004,0.7639999999999958,0.8140000000000072,0.8509999999999991,0.8970000000000056,0.936000000000007,0.980000000000004,1.031000000000006,1.0649999999999977,1.115000000000009,1.152000000000001,1.2000000000000028,1.2379999999999995,1.281000000000006,1.331000000000003,1.365000000000009,1.4129999999999967,1.4480000000000075,1.4980000000000047,1.5330000000000013,1.5799999999999983,1.6189999999999998,1.6640000000000015,1.7139999999999986,1.757000000000005,1.796999999999997,1.8329999999999984,1.8810000000000002,1.9180000000000064,1.9639999999999986]",3,0,3,0,1,,,,
C000000000-1,2025-04-17_15h03.32.458,GoFitts,2023.2.3,Win32,59.95203837,"[-224.33328957047206,162.98767532028947]","[253.3181121163767,-112.78449002241474]",21,554.5823911,5.75,1,1.318,0.517,"[-221.79998779296875,-221.79998779296875,-221.79998779296875,-221.79998779296875,-221.79998779296875,-221.79998779296875,-221.79998779296875,-221.79998779296875,-221.79998779296875,-221.79998779296875,-221.79998779296875,-214.5999755859375,-155.4000244140625,-97.79998779296875,-35.4000244140625,-11.4000244140625,31,54.199951171875,61.4000244140625,72.5999755859375,127,181.4000244140625,208.5999755859375,210.199951171875,212.5999755859375,216.5999755859375,223.800048828125,227.800048828125,232.5999755859375,236.5999755859375,239,244.5999755859375,244.5999755859375,244.5999755859375,244.5999755859375,244.5999755859375,250.199951171875,254.199951171875,254.199951171875,254.199951171875,254.199951171875,254.199951171875,254.199951171875,254.199951171875,254.199951171875,254.199951171875,254.199951171875,254.199951171875,254.199951171875]","[166.89999389648438,166.89999389648438,166.89999389648438,166.89999389648438,166.89999389648438,166.89999389648438,166.89999389648438,166.89999389648438,166.89999389648438,166.89999389648438,166.89999389648438,161.29998779296875,114.89999389648438,74.89999389648438,30.100006103515625,3.70001220703125,-46.70001220703125,-78.70001220703125,-86.70001220703125,-87.5,-89.0999755859375,-106.70001220703125,-119.5,-120.29998779296875,-120.29998779296875,-120.29998779296875,-120.29998779296875,-120.29998779296875,-118.70001220703125,-117.9000244140625,-117.9000244140625,-117.9000244140625,-117.9000244140625,-117.9000244140625,-117.9000244140625,-117.9000244140625,-115.5,-113.9000244140625,-113.9000244140625,-113.9000244140625,-113.9000244140625,-113.9000244140625,-113.9000244140625,-113.9000244140625,-113.9000244140625,-113.9000244140625,-113.9000244140625,-113.9000244140625,-113.9000244140625]","[0,0,0,0,0,0,0,0,0,0,0,0,0,0,0,0,0,0,0,0,0,0,0,0,0,0,0,0,0,0,0,0,0,0,0,0,0,0,0,0,0,0,0,0,0,0,0,0,0]","[0,0,0,0,0,0,0,0,0,0,0,0,0,0,0,0,0,0,0,0,0,0,0,0,0,0,0,0,0,0,0,0,0,0,0,0,0,0,0,0,0,0,0,0,0,0,0,0,0]","[0,0,0,0,0,0,0,0,0,0,0,0,0,0,0,0,0,0,0,0,0,0,0,0,0,0,0,0,0,0,0,0,0,0,0,0,0,0,0,0,0,0,0,0,0,0,0,0,0]","[0,0.04000000000000625,0.08299999999999841,0.13500000000000512,0.1670000000000016,0.21599999999999397,0.2540000000000049,0.29999999999999716,0.33899999999999864,0.38400000000000034,0.4329999999999927,0.465999999999994,0.5169999999999959,0.5489999999999924,0.5999999999999943,0.632000000000005,0.6820000000000022,0.7169999999999987,0.7669999999999959,0.8029999999999973,0.8509999999999991,0.8870000000000005,0.9320000000000022,0.9710000000000036,1.0160000000000053,1.0660000000000025,1.0999999999999943,1.1509999999999962,1.1829999999999927,1.233000000000004,1.266999999999996,1.3179999999999978,1.3529999999999944,1.4000000000000057,1.438999999999993,1.4839999999999947,1.5330000000000013,1.5690000000000026,1.6189999999999998,1.6500000000000057,1.7000000000000028,1.7369999999999948,1.784000000000006,1.8220000000000027,1.8670000000000044,1.9159999999999968,1.9539999999999935,2,2.0360000000000014]",4,0,4,0,1,,,,
C000000000-1,2025-04-17_15h03.32.458,GoFitts,2023.2.3,Win32,59.95203837,"[253.3181121163767,-112.78449002241474]","[-271.23171760763,57.652081310532225]",21,554.5823911,5.75,1,1.03,0.565,"[254.199951171875,254.199951171875,254.199951171875,254.199951171875,254.199951171875,254.199951171875,254.199951171875,254.199951171875,254.199951171875,254.199951171875,254.199951171875,254.199951171875,251.800048828125,179,13.4000244140625,-198.5999755859375,-236.20001220703125,-237,-238.5999755859375,-245.79998779296875,-252.20001220703125,-257.79998779296875,-261,-263.4000244140625,-269,-269.79998779296875,-269.79998779296875,-269.79998779296875,-269.79998779296875,-269.79998779296875,-269.79998779296875,-269.79998779296875,-269.79998779296875,-269.79998779296875,-269.79998779296875,-269.79998779296875,-269.79998779296875,-269.79998779296875,-269.79998779296875,-269.79998779296875,-269.79998779296875,-269.79998779296875]","[-113.9000244140625,-113.9000244140625,-113.9000244140625,-113.9000244140625,-113.9000244140625,-113.9000244140625,-113.9000244140625,-113.9000244140625,-113.9000244140625,-113.9000244140625,-113.9000244140625,-113.9000244140625,-111.5,-81.10000610351562,-33.899993896484375,2.899993896484375,10.899993896484375,11.70001220703125,12.5,18.899993896484375,26.100006103515625,35.70001220703125,40.5,43.70001220703125,56.5,60.5,60.5,60.5,60.5,60.5,60.5,60.5,60.5,60.5,60.5,60.5,60.5,60.5,60.5,60.5,60.5,60.5]","[0,0,0,0,0,0,0,0,0,0,0,0,0,0,0,0,0,0,0,0,0,0,0,0,0,0,0,0,0,1,1,1,1,0,0,0,0,0,0,0,0,0]","[0,0,0,0,0,0,0,0,0,0,0,0,0,0,0,0,0,0,0,0,0,0,0,0,0,0,0,0,0,0,0,0,0,0,0,0,0,0,0,0,0,0]","[0,0,0,0,0,0,0,0,0,0,0,0,0,0,0,0,0,0,0,0,0,0,0,0,0,0,0,0,0,0,0,0,0,0,0,0,0,0,0,0,0,0]","[0,0.04600000000000648,0.08500000000000796,0.13000000000000966,0.16800000000000637,0.21099999999999852,0.2609999999999957,0.2950000000000017,0.34499999999999886,0.38299999999999557,0.42900000000000205,0.46699999999999875,0.5120000000000005,0.5649999999999977,0.605000000000004,0.6460000000000008,0.6880000000000024,0.7310000000000088,0.7650000000000006,0.8130000000000024,0.8490000000000038,0.8979999999999961,0.936000000000007,0.9789999999999992,1.0300000000000011,1.0630000000000024,1.112000000000009,1.149000000000001,1.1950000000000074,1.2349999999999994,1.2800000000000011,1.3200000000000074,1.3629999999999995,1.4120000000000061,1.4480000000000075,1.4960000000000093,1.534000000000006,1.5799999999999983,1.6290000000000049,1.6620000000000061,1.713000000000008,1.7480000000000047]",5,0,5,0,1,,,,
C000000000-1,2025-04-17_15h03.32.458,GoFitts,2023.2.3,Win32,59.95203837,"[-271.23171760763,57.652081310532225]","[277.2911955252481,0]",21,554.5823911,5.75,1,1.45,0.513,"[-269.79998779296875,-269.79998779296875,-269.79998779296875,-269.79998779296875,-269.79998779296875,-269.79998779296875,-269.79998779296875,-269.79998779296875,-269.79998779296875,-269.79998779296875,-269.79998779296875,-266.5999755859375,-177.79998779296875,-43.4000244140625,67.800048828125,126.199951171875,177.4000244140625,200.5999755859375,200.5999755859375,200.5999755859375,203.800048828125,244.5999755859375,288.5999755859375,307.800048828125,307.800048828125,307.800048828125,307.800048828125,307.800048828125,307.800048828125,307.800048828125,303.800048828125,298.199951171875,293.4000244140625,293.4000244140625,285.4000244140625,284.5999755859375,284.5999755859375,281.4000244140625,279,279,279,279,279,279,279,279,279,279,279,279,279,279]","[60.5,60.5,60.5,60.5,60.5,60.5,60.5,60.5,60.5,60.5,60.5,60.5,60.5,60.5,44.5,30.100006103515625,19.70001220703125,15.70001220703125,15.70001220703125,15.70001220703125,15.70001220703125,13.29998779296875,6.899993896484375,2.100006103515625,2.100006103515625,2.100006103515625,2.100006103515625,2.100006103515625,2.100006103515625,2.100006103515625,2.100006103515625,2.100006103515625,2.100006103515625,2.100006103515625,2.100006103515625,2.100006103515625,2.100006103515625,2.100006103515625,2.100006103515625,2.100006103515625,2.100006103515625,2.100006103515625,2.100006103515625,2.100006103515625,2.100006103515625,2.100006103515625,2.100006103515625,2.100006103515625,2.100006103515625,2.100006103515625,2.100006103515625,2.100006103515625]","[0,0,0,0,0,0,0,0,0,0,0,0,0,0,0,0,0,0,0,0,0,0,0,0,0,0,0,0,0,0,0,0,0,0,0,0,0,0,0,0,0,0,0,0,0,0,0,0,0,0,0,0]","[0,0,0,0,0,0,0,0,0,0,0,0,0,0,0,0,0,0,0,0,0,0,0,0,0,0,0,0,0,0,0,0,0,0,0,0,0,0,0,0,0,0,0,0,0,0,0,0,0,0,0,0]","[0,0,0,0,0,0,0,0,0,0,0,0,0,0,0,0,0,0,0,0,0,0,0,0,0,0,0,0,0,0,0,0,0,0,0,0,0,0,0,0,0,0,0,0,0,0,0,0,0,0,0,0]","[0,0.04899999999999238,0.08399999999998897,0.13100000000000023,0.16899999999999693,0.21399999999999864,0.2639999999999958,0.30699999999998795,0.3469999999999942,0.38399999999998613,0.4309999999999974,0.46699999999999875,0.512999999999991,0.5529999999999973,0.5969999999999942,0.637999999999991,0.6799999999999926,0.7309999999999945,0.7639999999999958,0.813999999999993,0.8569999999999993,0.8969999999999914,0.9339999999999975,0.9809999999999945,1.0189999999999912,1.063999999999993,1.1149999999999949,1.1499999999999915,1.1979999999999933,1.2369999999999948,1.2809999999999917,1.3319999999999936,1.3659999999999997,1.4129999999999967,1.4499999999999886,1.4979999999999905,1.5349999999999966,1.5829999999999984,1.6259999999999906,1.6679999999999922,1.715999999999994,1.7549999999999955,1.7979999999999876,1.847999999999999,1.8869999999999862,1.9309999999999974,1.9709999999999894,2.0149999999999864,2.063999999999993,2.097999999999999,2.1469999999999914,2.181999999999988]",6,0,6,0,1,,,,
C000000000-1,2025-04-17_15h03.32.458,GoFitts,2023.2.3,Win32,59.95203837,"[277.2911955252481,0]","[-271.23171760763,-57.65208131053216]",21,554.5823911,5.75,1,1.783,0.517,"[279,279,279,279,279,279,279,279,279,279,279,278.199951171875,215,39,-180.20001220703125,-208.20001220703125,-208.20001220703125,-208.20001220703125,-208.20001220703125,-210.5999755859375,-218.5999755859375,-232.20001220703125,-233,-243.4000244140625,-251.4000244140625,-253,-253,-255.4000244140625,-258.5999755859375,-258.5999755859375,-258.5999755859375,-259.4000244140625,-261,-261,-261.79998779296875,-261.79998779296875,-263.4000244140625,-263.4000244140625,-275.4000244140625,-281.79998779296875,-281.79998779296875,-281.79998779296875,-281,-281,-281,-281,-281,-281,-281,-281,-281,-281,-281,-281,-281,-281,-281,-281,-281,-281]","[2.100006103515625,2.100006103515625,2.100006103515625,2.100006103515625,2.100006103515625,2.100006103515625,2.100006103515625,2.100006103515625,2.100006103515625,2.100006103515625,2.100006103515625,2.100006103515625,2.100006103515625,2.100006103515625,2.100006103515625,-1.100006103515625,-1.100006103515625,-1.100006103515625,-1.100006103515625,-1.899993896484375,-4.29998779296875,-14.70001220703125,-19.5,-49.899993896484375,-63.5,-65.10000610351562,-65.10000610351562,-63.5,-61.100006103515625,-61.100006103515625,-61.100006103515625,-61.100006103515625,-58.70001220703125,-58.70001220703125,-57.899993896484375,-57.899993896484375,-57.899993896484375,-57.100006103515625,-55.5,-56.29998779296875,-56.29998779296875,-56.29998779296875,-56.29998779296875,-56.29998779296875,-56.29998779296875,-56.29998779296875,-56.29998779296875,-56.29998779296875,-56.29998779296875,-56.29998779296875,-56.29998779296875,-56.29998779296875,-56.29998779296875,-56.29998779296875,-56.29998779296875,-56.29998779296875,-56.29998779296875,-56.29998779296875,-56.29998779296875,-56.29998779296875]","[0,0,0,0,0,0,0,0,0,0,0,0,0,0,0,0,0,0,0,0,0,0,0,0,0,0,0,0,0,0,0,0,0,0,0,0,0,0,0,0,0,0,0,0,0,0,0,0,0,0,0,0,0,0,0,0,0,0,0,0]","[0,0,0,0,0,0,0,0,0,0,0,0,0,0,0,0,0,0,0,0,0,0,0,0,0,0,0,0,0,0,0,0,0,0,0,0,0,0,0,0,0,0,0,0,0,0,0,0,0,0,0,0,0,0,0,0,0,0,0,0]","[0,0,0,0,0,0,0,0,0,0,0,0,0,0,0,0,0,0,0,0,0,0,0,0,0,0,0,0,0,0,0,0,0,0,0,0,0,0,0,0,0,0,0,0,0,0,0,0,0,0,0,0,0,0,0,0,0,0,0,0]","[0,0.049000000000006594,0.08500000000000796,0.132000000000005,0.17200000000001125,0.21600000000000819,0.2670000000000101,0.3020000000000067,0.34900000000000375,0.3830000000000098,0.4340000000000117,0.4660000000000082,0.5170000000000101,0.5530000000000115,0.6030000000000086,0.6370000000000005,0.6850000000000023,0.7220000000000084,0.7660000000000053,0.8050000000000068,0.8500000000000085,0.9030000000000058,0.9330000000000069,0.9819999999999993,1.0180000000000007,1.0660000000000025,1.1020000000000039,1.1500000000000057,1.1880000000000024,1.2349999999999994,1.2830000000000013,1.3170000000000073,1.3700000000000045,1.4000000000000057,1.4500000000000028,1.483000000000004,1.534000000000006,1.5700000000000074,1.6170000000000044,1.6550000000000011,1.7000000000000028,1.7409999999999997,1.7830000000000013,1.8329999999999984,1.8659999999999997,1.916000000000011,1.9490000000000123,1.9990000000000094,2.0330000000000013,2.0829999999999984,2.118000000000009,2.1670000000000016,2.206000000000003,2.25,2.3000000000000114,2.3329999999999984,2.3830000000000098,2.4170000000000016,2.466000000000008,2.5010000000000048]",7,0,7,0,1,,,,
C000000000-1,2025-04-17_15h03.32.458,GoFitts,2023.2.3,Win32,59.95203837,"[-271.23171760763,-57.65208131053216]","[253.31811211637668,112.78449002241474]",21,554.5823911,5.75,1,1.018,0.517,"[-281,-279.4000244140625,-278.5999755859375,-278.5999755859375,-278.5999755859375,-278.5999755859375,-278.5999755859375,-278.5999755859375,-278.5999755859375,-278.5999755859375,-276.20001220703125,-266.5999755859375,-175.4000244140625,19.800048828125,122.199951171875,127,131,140.5999755859375,153.4000244140625,191,211.800048828125,226.199951171875,233.4000244140625,242.199951171875,243.800048828125,243.800048828125,243.800048828125,243.800048828125,243.800048828125,243.800048828125,243.800048828125,243.800048828125,243.800048828125,243.800048828125,243.800048828125,243.800048828125,243.800048828125,243.800048828125,243.800048828125,243.800048828125,243.800048828125,243.800048828125]","[-56.29998779296875,-56.29998779296875,-56.29998779296875,-56.29998779296875,-56.29998779296875,-56.29998779296875,-56.29998779296875,-56.29998779296875,-56.29998779296875,-56.29998779296875,-56.29998779296875,-54.70001220703125,-29.100006103515625,22.100006103515625,43.70001220703125,45.29998779296875,48.5,55.70001220703125,64.5,79.70001220703125,88.5,96.5,102.89999389648438,108.5,110.89999389648438,110.89999389648438,110.89999389648438,110.89999389648438,110.89999389648438,110.89999389648438,110.89999389648438,110.89999389648438,110.89999389648438,110.89999389648438,110.89999389648438,110.89999389648438,110.89999389648438,110.89999389648438,110.89999389648438,110.89999389648438,110.89999389648438,110.89999389648438]","[0,0,0,0,0,0,0,0,0,0,0,0,0,0,0,0,0,0,0,0,0,0,0,0,0,0,0,0,0,0,0,0,0,0,0,0,0,0,0,0,0,0]","[0,0,0,0,0,0,0,0,0,0,0,0,0,0,0,0,0,0,0,0,0,0,0,0,0,0,0,0,0,0,0,0,0,0,0,0,0,0,0,0,0,0]","[0,0,0,0,0,0,0,0,0,0,0,0,0,0,0,0,0,0,0,0,0,0,0,0,0,0,0,0,0,0,0,0,0,0,0,0,0,0,0,0,0,0]","[0,0.049000000000006594,0.08599999999999852,0.132000000000005,0.16899999999999693,0.21699999999999875,0.2540000000000049,0.29999999999999716,0.3400000000000034,0.38299999999999557,0.43300000000000693,0.46699999999999875,0.5169999999999959,0.5510000000000019,0.5990000000000038,0.6389999999999958,0.6830000000000069,0.7240000000000038,0.7660000000000053,0.8170000000000073,0.8499999999999943,0.8990000000000009,0.9330000000000069,0.9830000000000041,1.0180000000000007,1.0670000000000073,1.1020000000000039,1.149000000000001,1.186000000000007,1.2349999999999994,1.2720000000000056,1.3170000000000073,1.3559999999999945,1.4000000000000057,1.4500000000000028,1.4839999999999947,1.5330000000000013,1.5690000000000026,1.617999999999995,1.6659999999999968,1.7019999999999982,1.75]",8,0,8,0,1,,,,
C000000000-1,2025-04-17_15h03.32.458,GoFitts,2023.2.3,Win32,59.95203837,"[253.31811211637668,112.78449002241474]","[-224.3332895704721,-162.9876753202894]",21,554.5823911,5.75,1,1.224,0.602,"[243.800048828125,243.800048828125,243.800048828125,243.800048828125,243.800048828125,243.800048828125,243.800048828125,243.800048828125,243.800048828125,243.800048828125,243.800048828125,243.800048828125,243.800048828125,176.5999755859375,-73,-164.20001220703125,-176.20001220703125,-182.5999755859375,-184.20001220703125,-185.79998779296875,-189.79998779296875,-199.4000244140625,-203.4000244140625,-204.20001220703125,-206.5999755859375,-211.4000244140625,-214.5999755859375,-217,-217.79998779296875,-218.5999755859375,-221.79998779296875,-223.4000244140625,-223.4000244140625,-223.4000244140625,-223.4000244140625,-223.4000244140625,-223.4000244140625,-223.4000244140625,-223.4000244140625,-223.4000244140625,-223.4000244140625,-223.4000244140625,-223.4000244140625,-223.4000244140625,-223.4000244140625]","[110.89999389648438,110.89999389648438,110.89999389648438,110.89999389648438,110.89999389648438,110.89999389648438,110.89999389648438,110.89999389648438,110.89999389648438,110.89999389648438,110.89999389648438,110.89999389648438,110.89999389648438,64.5,-92.29998779296875,-163.5,-183.5,-189.0999755859375,-189.0999755859375,-189.0999755859375,-189.0999755859375,-188.29998779296875,-184.29998779296875,-181.9000244140625,-178.70001220703125,-174.70001220703125,-171.5,-169.0999755859375,-167.5,-165.9000244140625,-163.5,-161.0999755859375,-161.0999755859375,-161.0999755859375,-161.0999755859375,-161.0999755859375,-161.0999755859375,-161.0999755859375,-161.0999755859375,-161.0999755859375,-161.0999755859375,-161.0999755859375,-161.0999755859375,-161.0999755859375,-161.0999755859375]","[0,0,0,0,0,0,0,0,0,0,0,0,0,0,0,0,0,0,0,0,0,0,0,0,0,0,0,0,0,0,0,0,0,0,0,0,0,0,0,0,0,0,0,0,0]","[0,0,0,0,0,0,0,0,0,0,0,0,0,0,0,0,0,0,0,0,0,0,0,0,0,0,0,0,0,0,0,0,0,0,0,0,0,0,0,0,0,0,0,0,0]","[0,0,0,0,0,0,0,0,0,0,0,0,0,0,0,0,0,0,0,0,0,0,0,0,0,0,0,0,0,0,0,0,0,0,0,0,0,0,0,0,0,0,0,0,0]","[0,0.03900000000000148,0.08299999999999841,0.13299999999999557,0.18299999999999272,0.2219999999999942,0.2680000000000007,0.31699999999999307,0.36599999999999966,0.4159999999999968,0.4549999999999983,0.5009999999999906,0.5510000000000019,0.6019999999999897,0.6499999999999915,0.688999999999993,0.7349999999999994,0.7839999999999918,0.8319999999999936,0.8709999999999951,0.9170000000000016,0.965999999999994,1.019999999999996,1.0529999999999973,1.1029999999999944,1.1389999999999958,1.1859999999999928,1.2239999999999895,1.2659999999999911,1.3179999999999978,1.3529999999999944,1.4029999999999916,1.438999999999993,1.4829999999999899,1.5319999999999965,1.5679999999999978,1.6159999999999997,1.652000000000001,1.6999999999999886,1.7369999999999948,1.7849999999999966,1.8329999999999984,1.8669999999999902,1.9170000000000016,1.9499999999999886]",9,0,9,0,1,,,,
C000000000-1,2025-04-17_15h03.32.458,GoFitts,2023.2.3,Win32,59.95203837,"[-224.3332895704721,-162.9876753202894]","[185.544025799782,206.0675171050285]",21,554.5823911,5.75,1,1.188,0.515,"[-223.4000244140625,-223.4000244140625,-223.4000244140625,-223.4000244140625,-223.4000244140625,-223.4000244140625,-223.4000244140625,-223.4000244140625,-223.4000244140625,-223.4000244140625,-223.4000244140625,-223.4000244140625,-210.5999755859375,-157,-20.20001220703125,66.199951171875,100.5999755859375,113.4000244140625,114.199951171875,116.5999755859375,122.199951171875,143.800048828125,163.800048828125,169.4000244140625,170.199951171875,170.199951171875,173.4000244140625,176.5999755859375,176.5999755859375,176.5999755859375,177.4000244140625,177.4000244140625,177.4000244140625,177.4000244140625,177.4000244140625,177.4000244140625,177.4000244140625,177.4000244140625,177.4000244140625,177.4000244140625,177.4000244140625,177.4000244140625,177.4000244140625,177.4000244140625,178.199951171875]","[-161.0999755859375,-161.0999755859375,-161.0999755859375,-161.0999755859375,-161.0999755859375,-161.0999755859375,-161.0999755859375,-161.0999755859375,-161.0999755859375,-161.0999755859375,-161.0999755859375,-161.0999755859375,-149.0999755859375,-101.9000244140625,23.70001220703125,103.70001220703125,130.10000610351562,138.89999389648438,139.70001220703125,142.89999389648438,148.5,170.10000610351562,190.89999389648438,198.10000610351562,198.89999389648438,198.89999389648438,203.6999969482422,206.10000610351562,206.89999389648438,206.89999389648438,206.89999389648438,208.5,208.5,208.5,208.5,208.5,208.5,208.5,208.5,208.5,208.5,208.5,208.5,208.5,208.5]","[0,0,0,0,0,0,0,0,0,0,0,0,0,0,0,0,0,0,0,0,0,0,0,0,0,0,0,0,0,0,0,1,1,1,1,1,0,0,0,0,0,0,0,0,0]","[0,0,0,0,0,0,0,0,0,0,0,0,0,0,0,0,0,0,0,0,0,0,0,0,0,0,0,0,0,0,0,0,0,0,0,0,0,0,0,0,0,0,0,0,0]","[0,0,0,0,0,0,0,0,0,0,0,0,0,0,0,0,0,0,0,0,0,0,0,0,0,0,0,0,0,0,0,0,0,0,0,0,0,0,0,0,0,0,0,0,0]","[0,0.049000000000006594,0.08500000000000796,0.13500000000000512,0.17100000000000648,0.21600000000000819,0.26500000000000057,0.2980000000000018,0.34900000000000375,0.38299999999999557,0.43300000000000693,0.4660000000000082,0.5150000000000006,0.5529999999999973,0.6020000000000039,0.6490000000000009,0.6830000000000069,0.7330000000000041,0.7830000000000013,0.8190000000000026,0.8659999999999997,0.9170000000000016,0.9660000000000082,1.0040000000000049,1.0499999999999972,1.100999999999999,1.152000000000001,1.1880000000000024,1.233000000000004,1.2830000000000013,1.323999999999998,1.3689999999999998,1.4170000000000016,1.4660000000000082,1.5049999999999955,1.5499999999999972,1.5990000000000038,1.649000000000001,1.6869999999999976,1.733000000000004,1.784000000000006,1.8220000000000027,1.8689999999999998,1.9159999999999968,1.9500000000000028]",10,0,10,0,1,,,,
C000000000-1,2025-04-17_15h03.32.458,GoFitts,2023.2.3,Win32,59.95203837,"[185.544025799782,206.0675171050285]","[-138.64559776262416,-240.14121957062267]",21,554.5823911,5.75,1,1.101,0.617,"[178.199951171875,179.800048828125,180.5999755859375,180.5999755859375,180.5999755859375,180.5999755859375,180.5999755859375,180.5999755859375,180.5999755859375,180.5999755859375,180.5999755859375,180.5999755859375,182.199951171875,180.5999755859375,141.4000244140625,21.4000244140625,-22.5999755859375,-45.79998779296875,-54.5999755859375,-63.4000244140625,-82.5999755859375,-97.79998779296875,-113.79998779296875,-125,-127.4000244140625,-129,-129.79998779296875,-131.4000244140625,-131.4000244140625,-131.4000244140625,-131.4000244140625,-131.4000244140625,-131.4000244140625,-131.4000244140625,-131.4000244140625,-131.4000244140625,-131.4000244140625,-131.4000244140625,-131.4000244140625,-131.4000244140625,-131.4000244140625,-131.4000244140625,-131.4000244140625]","[208.5,209.3000030517578,210.10000610351562,210.10000610351562,210.10000610351562,210.10000610351562,210.10000610351562,210.10000610351562,210.10000610351562,210.10000610351562,210.10000610351562,210.10000610351562,210.10000610351562,201.3000030517578,135.70001220703125,-24.29998779296875,-80.29998779296875,-109.0999755859375,-117.9000244140625,-129.0999755859375,-153.0999755859375,-181.0999755859375,-218.70001220703125,-236.29998779296875,-237.9000244140625,-238.70001220703125,-238.70001220703125,-239.5,-239.5,-239.5,-239.5,-239.5,-239.5,-239.5,-239.5,-239.5,-239.5,-239.5,-239.5,-239.5,-239.5,-239.5,-239.5]","[0,0,0,0,0,0,0,0,0,0,0,0,0,0,0,0,0,0,0,0,0,0,0,0,0,0,0,0,0,0,0,0,0,0,0,0,0,0,0,0,0,0,0]","[0,0,0,0,0,0,0,0,0,0,0,0,0,0,0,0,0,0,0,0,0,0,0,0,0,0,0,0,0,0,0,0,0,0,0,0,0,0,0,0,0,0,0]","[0,0,0,0,0,0,0,0,0,0,0,0,0,0,0,0,0,0,0,0,0,0,0,0,0,0,0,0,0,0,0,0,0,0,0,0,0,0,0,0,0,0,0]","[0,0.04999999999999716,0.10299999999999443,0.13599999999999568,0.1839999999999975,0.23399999999999466,0.2710000000000008,0.3160000000000025,0.35599999999999454,0.40099999999999625,0.4509999999999934,0.4830000000000041,0.5349999999999966,0.5690000000000026,0.6170000000000044,0.652000000000001,0.6989999999999981,0.7379999999999995,0.784000000000006,0.8239999999999981,0.8700000000000045,0.9200000000000017,0.9669999999999987,1.007000000000005,1.054000000000002,1.100999999999999,1.1500000000000057,1.1899999999999977,1.2349999999999994,1.284000000000006,1.3220000000000027,1.3659999999999997,1.4170000000000016,1.4500000000000028,1.5,1.5360000000000014,1.5840000000000032,1.6209999999999951,1.6670000000000016,1.715999999999994,1.75,1.7999999999999972,1.8359999999999985]",11,0,11,0,1,,,,
C000000000-1,2025-04-17_15h03.32.458,GoFitts,2023.2.3,Win32,59.95203837,"[-138.64559776262416,-240.14121957062267]","[85.68769180784804,263.7195984155607]",21,554.5823911,5.75,1,1.365,0.597,"[-131.4000244140625,-131.4000244140625,-131.4000244140625,-131.4000244140625,-131.4000244140625,-131.4000244140625,-131.4000244140625,-131.4000244140625,-131.4000244140625,-131.4000244140625,-131.4000244140625,-131.4000244140625,-131.4000244140625,-130.5999755859375,-116.20001220703125,-60.20001220703125,51,119,143.800048828125,147.800048828125,147.800048828125,150.199951171875,155,155,150.199951171875,137.4000244140625,123,115.800048828125,108.5999755859375,103,103,97.4000244140625,91,91,90.199951171875,89.4000244140625,89.4000244140625,89.4000244140625,89.4000244140625,89.4000244140625,89.4000244140625,89.4000244140625,89.4000244140625,89.4000244140625,89.4000244140625,89.4000244140625,89.4000244140625,89.4000244140625,89.4000244140625,89.4000244140625]","[-239.5,-239.5,-239.5,-239.5,-239.5,-239.5,-239.5,-239.5,-239.5,-239.5,-239.5,-239.5,-239.5,-237.9000244140625,-206.70001220703125,-88.29998779296875,125.29998779296875,242.10000610351562,279.6999969482422,285.3000030517578,285.3000030517578,288.5,293.3000030517578,294.1000061035156,294.1000061035156,288.5,277.3000030517578,270.1000061035156,265.3000030517578,263.6999969482422,263.6999969482422,262.1000061035156,261.3000030517578,261.3000030517578,261.3000030517578,261.3000030517578,263.6999969482422,263.6999969482422,263.6999969482422,263.6999969482422,263.6999969482422,263.6999969482422,263.6999969482422,263.6999969482422,263.6999969482422,263.6999969482422,263.6999969482422,263.6999969482422,263.6999969482422,263.6999969482422]","[0,0,0,0,0,0,0,0,0,0,0,0,0,0,0,0,0,0,0,0,0,0,0,0,0,0,0,0,0,0,0,0,0,0,0,0,0,0,0,0,0,0,0,0,0,0,0,0,0,0]","[0,0,0,0,0,0,0,0,0,0,0,0,0,0,0,0,0,0,0,0,0,0,0,0,0,0,0,0,0,0,0,0,0,0,0,0,0,0,0,0,0,0,0,0,0,0,0,0,0,0]","[0,0,0,0,0,0,0,0,0,0,0,0,0,0,0,0,0,0,0,0,0,0,0,0,0,0,0,0,0,0,0,0,0,0,0,0,0,0,0,0,0,0,0,0,0,0,0,0,0,0]","[0,0.05100000000000193,0.08500000000000796,0.13100000000000023,0.17100000000000648,0.21399999999999864,0.2639999999999958,0.2980000000000018,0.34900000000000375,0.3810000000000002,0.4300000000000068,0.465999999999994,0.5130000000000052,0.5499999999999972,0.5969999999999942,0.6370000000000005,0.6809999999999974,0.7210000000000036,0.7639999999999958,0.8149999999999977,0.847999999999999,0.8979999999999961,0.9339999999999975,0.9809999999999945,1.0190000000000055,1.0649999999999977,1.105000000000004,1.1479999999999961,1.1980000000000075,1.2319999999999993,1.281000000000006,1.3160000000000025,1.3649999999999949,1.399000000000001,1.4480000000000075,1.4869999999999948,1.531000000000006,1.570999999999998,1.6149999999999949,1.6640000000000015,1.7010000000000076,1.7480000000000047,1.784000000000006,1.8320000000000078,1.8700000000000045,1.9159999999999968,1.9549999999999983,1.9980000000000047,2.048000000000002,2.082000000000008]",12,0,12,0,1,,,,
C000000000-1,2025-04-17_15h03.32.458,GoFitts,2023.2.3,Win32,59.95203837,"[85.68769180784804,263.7195984155607]","[-28.984822545904823,-275.7721653427042]",21,554.5823911,5.75,1,1.1,0.549,"[89.4000244140625,89.4000244140625,89.4000244140625,89.4000244140625,89.4000244140625,89.4000244140625,89.4000244140625,89.4000244140625,89.4000244140625,89.4000244140625,89.4000244140625,89.4000244140625,89.4000244140625,91,88.5999755859375,67.800048828125,27.800048828125,8.5999755859375,4.5999755859375,3.79998779296875,-1.79998779296875,-26.5999755859375,-41.79998779296875,-41,-36.20001220703125,-30.5999755859375,-28.20001220703125,-26.5999755859375,-26.5999755859375,-26.5999755859375,-26.5999755859375,-26.5999755859375,-26.5999755859375,-26.5999755859375,-26.5999755859375,-26.5999755859375,-26.5999755859375,-26.5999755859375,-26.5999755859375,-26.5999755859375,-26.5999755859375,-26.5999755859375,-26.5999755859375,-26.5999755859375]","[263.6999969482422,263.6999969482422,263.6999969482422,263.6999969482422,263.6999969482422,263.6999969482422,263.6999969482422,263.6999969482422,263.6999969482422,263.6999969482422,263.6999969482422,263.6999969482422,258.8999938964844,227.6999969482422,82.89999389648438,-9.100006103515625,-106.70001220703125,-139.5,-144.29998779296875,-147.5,-157.0999755859375,-194.70001220703125,-223.5,-227.5,-234.70001220703125,-251.5,-269.9000244140625,-276.29998779296875,-276.29998779296875,-276.29998779296875,-276.29998779296875,-276.29998779296875,-276.29998779296875,-276.29998779296875,-276.29998779296875,-276.29998779296875,-276.29998779296875,-276.29998779296875,-276.29998779296875,-276.29998779296875,-276.29998779296875,-276.29998779296875,-276.29998779296875,-276.29998779296875]","[0,0,0,0,0,0,0,0,0,0,0,0,0,0,0,0,0,0,0,0,0,0,0,0,0,0,0,0,0,0,0,0,0,0,0,0,0,0,0,0,0,0,0,0]","[0,0,0,0,0,0,0,0,0,0,0,0,0,0,0,0,0,0,0,0,0,0,0,0,0,0,0,0,0,0,0,0,0,0,0,0,0,0,0,0,0,0,0,0]","[0,0,0,0,0,0,0,0,0,0,0,0,0,0,0,0,0,0,0,0,0,0,0,0,0,0,0,0,0,0,0,0,0,0,0,0,0,0,0,0,0,0,0,0]","[0,0.04999999999999716,0.08399999999998897,0.13299999999999557,0.16699999999998738,0.21699999999999875,0.2530000000000001,0.2989999999999924,0.3359999999999985,0.3819999999999908,0.4229999999999876,0.465999999999994,0.5159999999999911,0.5499999999999972,0.5989999999999895,0.6349999999999909,0.6829999999999927,0.7179999999999893,0.7659999999999911,0.8039999999999878,0.8519999999999897,0.8889999999999958,0.9339999999999975,0.972999999999999,1.016999999999996,1.066999999999993,1.0999999999999943,1.1499999999999915,1.184999999999988,1.2349999999999994,1.2719999999999914,1.316999999999993,1.3559999999999945,1.3999999999999915,1.4399999999999977,1.4829999999999899,1.5239999999999867,1.5659999999999883,1.6169999999999902,1.6529999999999916,1.7019999999999982,1.7369999999999948,1.7849999999999966,1.8219999999999885]",13,0,13,0,1,,,,
