key_resp_4.keys,key_resp_4.rt,身分證字號,date,expName,psychopyVersion,OS,frameRate,mouse_2.x,mouse_2.y,mouse_2.leftButton,mouse_2.midButton,mouse_2.rightButton,mouse_2.time,cont.keys,cont.rt,retry_testing.thisRepN,retry_testing.thisTrialN,retry_testing.thisN,retry_testing.thisIndex,retry_testing.ran,key_resp.keys,key_resp.rt,key_resp_3.keys,key_resp_3.rt,from,to,w,a,sequence_loop.thisN,mouse.x,mouse.y,mouse.leftButton,mouse.midButton,mouse.rightButton,mouse.time,key_resp_2.keys,trial_loop.thisRepN,trial_loop.thisTrialN,trial_loop.thisN,trial_loop.thisIndex,trial_loop.ran,sequence_loop.thisRepN,sequence_loop.thisTrialN,sequence_loop.thisIndex,sequence_loop.ran
return,4.1354,D222027967,2024-05-23_10h23.00.375,GoFitts,2022.2.4,Win32,60.60606061,,,,,,,,,,,,,,,,,,,,,,,,,,,,,,,,,,,,,,
,,D222027967,2024-05-23_10h23.00.375,GoFitts,2022.2.4,Win32,60.60606061,"[375.2000732421875,375.2000732421875,375.2000732421875,375.2000732421875,375.2000732421875,375.2000732421875,375.2000732421875,375.2000732421875,375.2000732421875,375.2000732421875,375.2000732421875,375.2000732421875,375.2000732421875,375.2000732421875,375.2000732421875,375.2000732421875,375.2000732421875,373.5999755859375,372.800048828125,372,372,372,371.2000732421875,370.4000244140625,370.4000244140625,370.4000244140625,370.4000244140625,368,359.2000732421875,355.2000732421875,354.4000244140625,354.4000244140625,351.2000732421875,342.4000244140625,335.2000732421875,329.5999755859375,326.4000244140625,326.4000244140625,332,343.2000732421875,344.800048828125,345.5999755859375,345.5999755859375,349.5999755859375,350.4000244140625,351.2000732421875,353.5999755859375,355.2000732421875,358.4000244140625,358.4000244140625,358.4000244140625,359.2000732421875,359.2000732421875,359.2000732421875,359.2000732421875,359.2000732421875,360,360,360,360,360,360,360,360,360,360,360,360,360,360,360,360,360,331.2000732421875,262.4000244140625,172.800048828125,131.2000732421875,91.2000732421875,66.4000244140625,57.5999755859375,56.800048828125,55.2000732421875,53.5999755859375,52,48,45.5999755859375,44.800048828125,44.800048828125,44.800048828125,44.800048828125,44.800048828125,44.800048828125,41.5999755859375,9.5999755859375,-4,-10.39996337890625,-10.39996337890625,-10.39996337890625,-10.39996337890625,-10.39996337890625,-10.39996337890625,-10.39996337890625,-10.39996337890625,-10.39996337890625,-10.39996337890625,-10.39996337890625,-10.39996337890625,-10.39996337890625,-10.39996337890625,-10.39996337890625,-10.39996337890625,-10.39996337890625,-32,-71.20001220703125,-124.79998779296875,-168,-214.39996337890625,-247.20001220703125,-273.5999755859375,-292,-304,-312,-315.20001220703125,-319.20001220703125,-320,-321.5999755859375,-324,-324,-327.20001220703125,-328.79998779296875,-332.79998779296875,-338.39996337890625,-346.39996337890625,-354.39996337890625,-358.39996337890625,-358.39996337890625,-358.39996337890625,-358.39996337890625,-358.39996337890625,-358.39996337890625,-358.39996337890625,-358.39996337890625,-358.39996337890625,-358.39996337890625,-358.39996337890625,-358.39996337890625,-358.39996337890625,-358.39996337890625,-358.39996337890625,-358.39996337890625,-358.39996337890625,-358.39996337890625,-348.79998779296875,-323.20001220703125,-272,-219.20001220703125,-123.20001220703125,-44.79998779296875,1.5999755859375,19.2000732421875,24,28,29.5999755859375,31.2000732421875,33.5999755859375,35.2000732421875,36,36,36,20.800048828125,13.5999755859375,-2.39996337890625]","[-334.4000244140625,-334.4000244140625,-334.4000244140625,-334.4000244140625,-334.4000244140625,-334.4000244140625,-334.4000244140625,-334.4000244140625,-334.4000244140625,-334.4000244140625,-334.4000244140625,-334.4000244140625,-334.4000244140625,-334.4000244140625,-334.4000244140625,-334.4000244140625,-334.4000244140625,-336.79998779296875,-336.79998779296875,-337.60003662109375,-337.60003662109375,-337.60003662109375,-337.60003662109375,-337.60003662109375,-337.60003662109375,-337.60003662109375,-337.60003662109375,-337.60003662109375,-334.4000244140625,-332.79998779296875,-332,-332,-328,-322.4000244140625,-316,-304,-284.79998779296875,-264.79998779296875,-240.79998779296875,-190.4000244140625,-148.79998779296875,-104,-75.20001220703125,-55.20001220703125,-44,-36.79998779296875,-33.60003662109375,-28.79998779296875,-20.79998779296875,-14.4000244140625,-9.60003662109375,-1.60003662109375,1.5999755859375,1.5999755859375,1.5999755859375,1.5999755859375,1.5999755859375,-1.60003662109375,-1.60003662109375,-1.60003662109375,-1.60003662109375,-1.60003662109375,-1.60003662109375,-1.60003662109375,-1.60003662109375,-1.60003662109375,-1.60003662109375,-1.60003662109375,-2.4000244140625,-4,-4,-4,-4,16.79998779296875,72.79998779296875,169.60000610351562,216,266.3999938964844,311.1999816894531,327.1999969482422,337.59999084472656,343.1999969482422,348,350.3999938964844,354.3999938964844,356.8000030517578,357.59999084472656,357.59999084472656,357.59999084472656,357.59999084472656,357.59999084472656,357.59999084472656,358.3999938964844,358.3999938964844,358.3999938964844,358.3999938964844,358.3999938964844,358.3999938964844,358.3999938964844,359.1999969482422,359.1999969482422,359.1999969482422,359.1999969482422,359.1999969482422,359.1999969482422,359.1999969482422,359.1999969482422,359.1999969482422,359.1999969482422,359.1999969482422,359.1999969482422,359.1999969482422,321.59999084472656,276,231.19998168945312,192.79998779296875,160.79998779296875,138.39999389648438,116.79998779296875,102.39999389648438,94.39999389648438,88.79998779296875,87.19998168945312,83.19998168945312,82.39999389648438,81.60000610351562,80,73.60000610351562,60.79998779296875,47.20001220703125,38.39996337890625,28,16,-1.60003662109375,-11.20001220703125,-13.60003662109375,-13.60003662109375,-14.4000244140625,-14.4000244140625,-14.4000244140625,-14.4000244140625,-14.4000244140625,-14.4000244140625,-14.4000244140625,-14.4000244140625,-14.4000244140625,-14.4000244140625,-14.4000244140625,-14.4000244140625,-14.4000244140625,-14.4000244140625,-14.4000244140625,-29.60003662109375,-67.20001220703125,-140.79998779296875,-226.4000244140625,-339.20001220703125,-407.20001220703125,-432,-436,-436,-436,-434.4000244140625,-431.20001220703125,-425.60003662109375,-421.60003662109375,-420.79998779296875,-417.60003662109375,-410.4000244140625,-388,-380,-368]","[0,0,0,0,0,0,0,0,0,0,0,0,0,0,0,0,0,0,0,0,0,0,0,0,0,0,0,0,0,0,0,0,0,0,0,0,0,0,0,0,0,0,0,0,0,0,0,0,0,0,0,0,0,0,0,0,0,0,0,0,0,0,0,0,0,0,0,0,0,0,0,0,0,0,0,0,0,0,0,0,0,0,0,0,0,0,0,0,0,0,0,0,0,0,0,0,0,0,0,0,0,0,0,0,0,0,0,0,0,0,0,0,0,0,0,0,0,0,0,0,0,0,0,0,0,0,0,0,0,0,0,0,0,0,0,0,0,0,0,0,0,0,0,0,0,0,0,0,0,0,0,0,0,0,0,0,0,0,0,0,0,0,0,0,0,0,0,0,0,0,0,0]","[0,0,0,0,0,0,0,0,0,0,0,0,0,0,0,0,0,0,0,0,0,0,0,0,0,0,0,0,0,0,0,0,0,0,0,0,0,0,0,0,0,0,0,0,0,0,0,0,0,0,0,0,0,0,0,0,0,0,0,0,0,0,0,0,0,0,0,0,0,0,0,0,0,0,0,0,0,0,0,0,0,0,0,0,0,0,0,0,0,0,0,0,0,0,0,0,0,0,0,0,0,0,0,0,0,0,0,0,0,0,0,0,0,0,0,0,0,0,0,0,0,0,0,0,0,0,0,0,0,0,0,0,0,0,0,0,0,0,0,0,0,0,0,0,0,0,0,0,0,0,0,0,0,0,0,0,0,0,0,0,0,0,0,0,0,0,0,0,0,0,0,0]","[0,0,0,0,0,0,0,0,0,0,0,0,0,0,0,0,0,0,0,0,0,0,0,0,0,0,0,0,0,0,0,0,0,0,0,0,0,0,0,0,0,0,0,0,0,0,0,0,0,0,0,0,0,0,0,0,0,0,0,0,0,0,0,0,0,0,0,0,0,0,0,0,0,0,0,0,0,0,0,0,0,0,0,0,0,0,0,0,0,0,0,0,0,0,0,0,0,0,0,0,0,0,0,0,0,0,0,0,0,0,0,0,0,0,0,0,0,0,0,0,0,0,0,0,0,0,0,0,0,0,0,0,0,0,0,0,0,0,0,0,0,0,0,0,0,0,0,0,0,0,0,0,0,0,0,0,0,0,0,0,0,0,0,0,0,0,0,0,0,0,0,0]","[0.0024999999999977263,0.01929999999981291,0.02949999999999875,0.038000000000000256,0.05459999999962761,0.07120000000018578,0.08759999999962531,0.10540000000037253,0.12120000000018649,0.13779999999981385,0.1547999999998133,0.1714999999999982,0.18799999999999883,0.2049999999999983,0.22120000000018436,0.23759999999962744,0.25470000000018445,0.2717000000001839,0.28800000000000026,0.3045999999996276,0.32140000000037006,0.33820000000018524,0.3632000000001838,0.379999999999999,0.3962999999998118,0.40490000000037085,0.429900000000373,0.44640000000037006,0.46359999999962653,0.48029999999981143,0.4967000000001853,0.513200000000186,0.5300999999996279,0.5464999999999982,0.5637000000001855,0.5802999999998129,0.5967999999998135,0.6137000000001862,0.6305999999996281,0.6469999999999985,0.6632999999998113,0.6802999999998143,0.6970999999996259,0.7137000000001841,0.7302999999998114,0.7469999999999999,0.7639999999999993,0.7805999999996267,0.7975999999996262,0.8142999999998111,0.8327999999998141,0.8464999999999989,0.8634999999999984,0.8797000000001844,0.8885000000000005,0.9049000000003709,0.9219000000003703,0.945999999999998,0.9589999999999996,0.9722999999998123,0.9889000000003705,1.013200000000186,1.0219999999999985,1.0387999999998137,1.0554000000003718,1.072099999999626,1.0887999999998144,1.1137000000001862,1.122400000000372,1.1470999999996252,1.1639000000003712,1.1720999999996273,1.1890999999996268,1.2139999999999986,1.2304000000003725,1.2482999999998121,1.2644999999999982,1.2810999999996255,1.2972999999998116,1.3144000000003722,1.3309000000003728,1.3472999999998123,1.3645999999996263,1.3812999999998112,1.3974000000003706,1.4142000000001858,1.4309999999999974,1.447099999999626,1.4555999999996274,1.4802999999998114,1.4889999999999972,1.5137000000001848,1.5227999999998119,1.5474000000003727,1.5662999999998135,1.5809999999999995,1.5975000000000001,1.6139999999999972,1.6225999999996255,1.6399000000003703,1.6640999999996247,1.6769999999999996,1.6894000000003722,1.7059999999999995,1.7304000000003725,1.7474999999999987,1.7560000000000002,1.7727999999998119,1.7892999999998125,1.8139000000003698,1.8232000000001847,1.8394000000003707,1.8645999999996263,1.8812999999998112,1.8977999999998119,1.9149999999999991,1.931400000000373,1.9477999999998126,1.963400000000373,1.9807000000001835,1.9979999999999976,2.014499999999998,2.0305999999996267,2.0470000000000006,2.0642000000001843,2.0807999999998117,2.0977000000001844,2.114799999999814,2.1314000000003723,2.147799999999812,2.1649000000003724,2.1815999999996265,2.1975999999996247,2.216099999999628,2.232700000000186,2.2475999999996255,2.264099999999626,2.2729999999999997,2.28940000000037,2.306299999999812,2.3307999999998117,2.3395999999996278,2.35640000000037,2.3810000000000002,2.397799999999812,2.4067000000001855,2.423099999999625,2.4475999999996247,2.4645999999996278,2.473599999999628,2.489799999999814,2.506499999999999,2.5314999999999976,2.548099999999625,2.5655,2.581700000000186,2.597999999999999,2.614799999999814,2.631599999999626,2.6482999999998142,2.6649000000003724,2.681700000000184,2.698099999999627,2.714900000000373,2.7317000000001848,2.748099999999628,2.7650999999996273,2.781599999999628,2.798099999999625,2.814900000000371,2.831700000000186,2.848599999999628]",space,8.4451,0,0,0,0,1,,,,,,,,,,,,,,,,,,,,,,,,,
,,D222027967,2024-05-23_10h23.00.375,GoFitts,2022.2.4,Win32,60.60606061,"[104.800048828125,104.800048828125,104.800048828125,104.800048828125,104.800048828125,104.800048828125,104.800048828125,104.800048828125,104.800048828125,104.800048828125,104.800048828125,104.800048828125,104.800048828125,104.800048828125,104.800048828125,104.800048828125,100.800048828125,87.2000732421875,61.5999755859375,42.4000244140625,33.5999755859375,11.2000732421875,-12.79998779296875,-34.39996337890625,-56.79998779296875,-68.79998779296875,-68.79998779296875,-68.79998779296875,-65.5999755859375,-6.39996337890625,37.5999755859375,127.2000732421875,209.5999755859375,283.2000732421875,337.5999755859375,364.800048828125,380.800048828125,384,381.5999755859375,374.4000244140625,373.5999755859375,366.4000244140625,363.2000732421875,363.2000732421875,362.4000244140625,361.5999755859375,360,359.2000732421875,356,356,355.2000732421875,355.2000732421875,355.2000732421875,355.2000732421875,355.2000732421875,355.2000732421875,355.2000732421875,355.2000732421875,355.2000732421875,355.2000732421875,355.2000732421875,355.2000732421875,355.2000732421875,355.2000732421875,355.2000732421875,355.2000732421875,355.2000732421875,355.2000732421875,355.2000732421875,355.2000732421875,354.4000244140625,352,334.4000244140625,297.5999755859375,272,236.800048828125,185.5999755859375,148,111.2000732421875,100.800048828125,96.800048828125,91.2000732421875,78.4000244140625,64.800048828125,49.5999755859375,40.800048828125,34.4000244140625,31.2000732421875,29.5999755859375,29.5999755859375,29.5999755859375,29.5999755859375,21.5999755859375,11.2000732421875,-5.5999755859375,-8.79998779296875,-12.79998779296875,-12.79998779296875,-12.79998779296875,-12.79998779296875,-12.79998779296875,-13.5999755859375,-13.5999755859375,-13.5999755859375,-13.5999755859375,-13.5999755859375,-13.5999755859375,-13.5999755859375,-13.5999755859375,-13.5999755859375,-16,-47.20001220703125,-90.39996337890625,-158.39996337890625,-251.20001220703125,-301.5999755859375,-321.5999755859375,-332,-332,-332,-332,-332,-332.79998779296875,-337.5999755859375,-350.39996337890625,-368,-387.20001220703125,-391.20001220703125,-392,-392,-392,-390.39996337890625,-390.39996337890625,-389.5999755859375,-387.20001220703125,-380.79998779296875,-376,-368,-360.79998779296875,-355.20001220703125,-350.39996337890625,-347.20001220703125,-346.39996337890625,-346.39996337890625,-346.39996337890625,-346.39996337890625,-346.39996337890625,-346.39996337890625,-346.39996337890625,-346.39996337890625,-346.39996337890625,-346.39996337890625,-346.39996337890625,-346.39996337890625,-341.5999755859375,-327.20001220703125,-300.79998779296875,-245.5999755859375,-162.39996337890625,-70.39996337890625,-12]","[-178.4000244140625,-178.4000244140625,-178.4000244140625,-178.4000244140625,-178.4000244140625,-178.4000244140625,-178.4000244140625,-178.4000244140625,-178.4000244140625,-178.4000244140625,-178.4000244140625,-178.4000244140625,-178.4000244140625,-178.4000244140625,-178.4000244140625,-178.4000244140625,-176.79998779296875,-176,-169.60003662109375,-164,-159.20001220703125,-150.4000244140625,-143.20001220703125,-139.20001220703125,-136.79998779296875,-135.20001220703125,-135.20001220703125,-135.20001220703125,-130.4000244140625,-124.79998779296875,-124,-112.79998779296875,-96,-83.20001220703125,-75.20001220703125,-67.20001220703125,-61.60003662109375,-58.4000244140625,-48.79998779296875,-40,-37.60003662109375,-34.4000244140625,-32.79998779296875,-32.79998779296875,-32.79998779296875,-32,-28.79998779296875,-28,-26.4000244140625,-26.4000244140625,-25.60003662109375,-23.20001220703125,-20.79998779296875,-16.79998779296875,-16.79998779296875,-13.60003662109375,-12.79998779296875,-12.79998779296875,-12.79998779296875,-12.79998779296875,-12.79998779296875,-12.79998779296875,-12.79998779296875,-12.79998779296875,-12.79998779296875,-12.79998779296875,-12.79998779296875,-12.79998779296875,-12.79998779296875,-12.79998779296875,-12,-11.20001220703125,0.79998779296875,23.20001220703125,44.79998779296875,76,120,160,216,252,268,282.3999938964844,308,326.3999938964844,344,353.59999084472656,360.8000030517578,363.1999969482422,364,364,364,364,364,364,364,364,364,364,364,364,364,364,364,364,364,364,364,364,364,364,360.8000030517578,312,263.1999816894531,200.79998779296875,120.79998779296875,80.79998779296875,60,48,48,48,48,48,46.39996337890625,44.79998779296875,40,24.79998779296875,-8.79998779296875,-25.60003662109375,-28.79998779296875,-28.79998779296875,-29.60003662109375,-29.60003662109375,-29.60003662109375,-28.79998779296875,-27.20001220703125,-20.79998779296875,-16.79998779296875,-9.60003662109375,-4,0,2.39996337890625,5.5999755859375,6.39996337890625,6.39996337890625,6.39996337890625,6.39996337890625,6.39996337890625,6.39996337890625,6.39996337890625,6.39996337890625,6.39996337890625,6.39996337890625,6.39996337890625,4.79998779296875,-7.20001220703125,-27.20001220703125,-68,-154.4000244140625,-258.4000244140625,-340,-360]","[0,0,0,0,0,0,0,0,0,0,0,0,0,0,0,0,0,0,0,0,0,0,0,0,0,0,0,0,0,0,0,0,0,0,0,0,0,0,0,0,0,0,0,0,0,0,0,0,0,0,0,0,0,0,0,0,0,0,0,0,0,0,0,0,0,0,0,0,0,0,0,0,0,0,0,0,0,0,0,0,0,0,0,0,0,0,0,0,0,0,0,0,0,0,0,0,0,0,0,0,0,0,0,0,0,0,0,0,0,0,0,0,0,0,0,0,0,0,0,0,0,0,0,0,0,0,0,0,0,0,0,0,0,0,0,0,0,0,0,0,0,0,0,0,0,0,0,0,0,0,0,0,0,0,0,0,0,0,0,0,0]","[0,0,0,0,0,0,0,0,0,0,0,0,0,0,0,0,0,0,0,0,0,0,0,0,0,0,0,0,0,0,0,0,0,0,0,0,0,0,0,0,0,0,0,0,0,0,0,0,0,0,0,0,0,0,0,0,0,0,0,0,0,0,0,0,0,0,0,0,0,0,0,0,0,0,0,0,0,0,0,0,0,0,0,0,0,0,0,0,0,0,0,0,0,0,0,0,0,0,0,0,0,0,0,0,0,0,0,0,0,0,0,0,0,0,0,0,0,0,0,0,0,0,0,0,0,0,0,0,0,0,0,0,0,0,0,0,0,0,0,0,0,0,0,0,0,0,0,0,0,0,0,0,0,0,0,0,0,0,0,0,0]","[0,0,0,0,0,0,0,0,0,0,0,0,0,0,0,0,0,0,0,0,0,0,0,0,0,0,0,0,0,0,0,0,0,0,0,0,0,0,0,0,0,0,0,0,0,0,0,0,0,0,0,0,0,0,0,0,0,0,0,0,0,0,0,0,0,0,0,0,0,0,0,0,0,0,0,0,0,0,0,0,0,0,0,0,0,0,0,0,0,0,0,0,0,0,0,0,0,0,0,0,0,0,0,0,0,0,0,0,0,0,0,0,0,0,0,0,0,0,0,0,0,0,0,0,0,0,0,0,0,0,0,0,0,0,0,0,0,0,0,0,0,0,0,0,0,0,0,0,0,0,0,0,0,0,0,0,0,0,0,0,0]","[0.0012999999998157818,0.00989999999944402,0.01769999999925531,0.03509999999963043,0.05839999999944112,0.06839999999944268,0.08479999999981658,0.10139999999944393,0.1180000000000021,0.1390000000000029,0.1513999999994411,0.16809999999962955,0.1925999999996293,0.20919999999925665,0.21829999999981453,0.2346999999992576,0.25939999999944163,0.27600000000000335,0.29309999999962955,0.3100000000000023,0.32659999999962963,0.34309999999963026,0.3595000000000006,0.37650000000000006,0.39329999999981524,0.41000000000000014,0.4261999999992554,0.435099999999629,0.45209999999962847,0.4761999999992561,0.49329999999981666,0.5097999999998137,0.5263999999994411,0.5432999999998138,0.5600000000000023,0.5765999999996296,0.5932999999998145,0.610000000000003,0.6266999999992571,0.6437999999998141,0.6600999999996304,0.6763999999994432,0.693299999999816,0.7097999999998166,0.7190000000000012,0.7432999999998167,0.760199999999255,0.7767999999998167,0.7928999999994417,0.8091999999992581,0.8263999999994418,0.8427999999998157,0.8553999999994417,0.8767999999998146,0.8938999999994444,0.9101999999992572,0.9268999999994421,0.9435000000000002,0.9601999999992579,0.9685999999996291,0.9933999999994434,1.002299999999817,1.0188999999994444,1.0355000000000025,1.061199999999257,1.0766999999992564,1.0856999999992567,1.1020999999996306,1.1267999999998146,1.135799999999815,1.1525000000000034,1.1695999999996296,1.1938999999994415,1.2105000000000032,1.2275000000000027,1.2440000000000033,1.2602999999998161,1.2775999999996301,1.2931999999992563,1.309699999999257,1.3190999999996293,1.33559999999963,1.3601999999992564,1.3777999999998158,1.3943999999994432,1.4108999999994438,1.4281999999992578,1.444399999999444,1.4610999999996288,1.4773999999994416,1.485899999999443,1.5045000000000002,1.5267999999998167,1.543399999999444,1.5637999999998158,1.5775999999996309,1.5933999999994413,1.6097999999998152,1.6192999999998143,1.6356999999992574,1.6527999999998144,1.677500000000002,1.6863999999994412,1.71059999999963,1.7193999999994425,1.7360000000000007,1.7526999999992583,1.7775000000000034,1.7863999999994427,1.8027999999998165,1.819799999999816,1.844399999999446,1.8611999999992577,1.8780999999996268,1.8950000000000031,1.9112999999998124,1.9280000000000044,1.9446999999992585,1.9610999999996324,1.9770999999996306,1.9861999999992577,2.002500000000005,2.0192999999998165,2.0392999999998125,2.052799999999813,2.069500000000005,2.0941999999992547,2.11169999999926,2.1282999999998182,2.1445999999996275,2.153299999999817,2.179000000000002,2.1940999999996293,2.2110999999996324,2.2270999999996306,2.2465000000000046,2.2608999999994452,2.278500000000001,2.2950999999996284,2.312799999999818,2.3284999999999982,2.3450999999996256,2.36169999999926,2.3781999999992536,2.395000000000003,2.403299999999817,2.4280000000000044,2.4367999999998133,2.4533999999994407,2.469999999999999,2.494500000000002,2.5032999999998182,2.520000000000003,2.5370999999996258,2.561299999999818,2.5783999999994407,2.5950999999996256,2.611599999999626,2.628099999999627,2.644699999999254,2.6615000000000038]",return,2.5019,1,0,1,0,1,,,,,,,,,,,,,,,,,,,,,,,,,
,,D222027967,2024-05-23_10h23.00.375,GoFitts,2022.2.4,Win32,60.60606061,,,,,,,,,,,,,,return,3.902,,,,,,,,,,,,,,,,,,,,,,,
,,D222027967,2024-05-23_10h23.00.375,GoFitts,2022.2.4,Win32,60.60606061,,,,,,,,,,,,,,,,return,2.7745,"[36.800048828125,-257.60003662109375]","[85,0]",77.8,170,0,"[36.800048828125,36.800048828125,36.800048828125,36.800048828125,36.800048828125,36.800048828125,36.800048828125,36.800048828125,36.800048828125,36.800048828125,36.800048828125,36.800048828125,36.800048828125,36.800048828125,36.800048828125,36.800048828125,36.800048828125,36.800048828125,36.800048828125,36.800048828125,36.800048828125,37.5999755859375,45.5999755859375,58.4000244140625,76,86.4000244140625,95.2000732421875,103.2000732421875,107.2000732421875,110.4000244140625,112.800048828125,112.800048828125,112.800048828125,112.800048828125,115.2000732421875,115.2000732421875,116,116.800048828125,116.800048828125,116.800048828125,116.800048828125,116.800048828125,115.2000732421875]","[-257.60003662109375,-257.60003662109375,-257.60003662109375,-257.60003662109375,-257.60003662109375,-257.60003662109375,-257.60003662109375,-257.60003662109375,-257.60003662109375,-257.60003662109375,-257.60003662109375,-257.60003662109375,-257.60003662109375,-257.60003662109375,-257.60003662109375,-257.60003662109375,-257.60003662109375,-257.60003662109375,-257.60003662109375,-257.60003662109375,-257.60003662109375,-256,-239.20001220703125,-204.79998779296875,-164.79998779296875,-128.79998779296875,-102.4000244140625,-84.79998779296875,-72,-63.20001220703125,-59.20001220703125,-56,-55.20001220703125,-55.20001220703125,-51.20001220703125,-48.79998779296875,-44,-40,-36,-34.4000244140625,-31.20001220703125,-25.60003662109375,-16.79998779296875]","[0,0,0,0,0,0,0,0,0,0,0,0,0,0,0,0,0,0,0,0,0,0,0,0,0,0,0,0,0,0,0,0,0,0,0,0,0,0,0,0,0,0,0]","[0,0,0,0,0,0,0,0,0,0,0,0,0,0,0,0,0,0,0,0,0,0,0,0,0,0,0,0,0,0,0,0,0,0,0,0,0,0,0,0,0,0,0]","[0,0,0,0,0,0,0,0,0,0,0,0,0,0,0,0,0,0,0,0,0,0,0,0,0,0,0,0,0,0,0,0,0,0,0,0,0,0,0,0,0,0,0]","[0.0025000000000048317,0.02360000000056317,0.03990000000037952,0.049000000000006594,0.06550000000000011,0.08260000000056067,0.09900000000000375,0.11590000000037293,0.13250000000000028,0.1495000000000033,0.16610000000056147,0.1826000000005621,0.20380000000074716,0.21620000000019246,0.23270000000019309,0.249700000000189,0.2659000000003786,0.2906000000005591,0.29940000000037514,0.3160000000000025,0.3407000000001901,0.3499000000003747,0.37490000000037327,0.391700000000192,0.4081000000005588,0.4248000000007508,0.44170000000018916,0.45860000000056544,0.4754000000003771,0.4916000000005596,0.5083000000007516,0.5250000000000057,0.5418000000007481,0.5580000000000069,0.5752000000001871,0.5915000000000035,0.6085000000000065,0.6253000000007489,0.641700000000192,0.6588000000007455,0.6754000000003728,0.6916000000005624,0.7081000000005631]",,0,0,0,0,1,,,,
,,D222027967,2024-05-23_10h23.00.375,GoFitts,2022.2.4,Win32,60.60606061,,,,,,,,,,,,,,,,,,"[85,0]","[-83.14254606237348,-17.67249371950952]",77.8,170,0,"[115.2000732421875,113.5999755859375,113.5999755859375,113.5999755859375,113.5999755859375,113.5999755859375,113.5999755859375,113.5999755859375,113.5999755859375,113.5999755859375,113.5999755859375,113.5999755859375,113.5999755859375,113.5999755859375,113.5999755859375,113.5999755859375,113.5999755859375,113.5999755859375,113.5999755859375,113.5999755859375,113.5999755859375,113.5999755859375,113.5999755859375,113.5999755859375,112,84,55.2000732421875,22.4000244140625,-2.39996337890625,-26.39996337890625,-36,-38.39996337890625,-38.39996337890625,-38.39996337890625,-38.39996337890625,-38.39996337890625,-38.39996337890625,-38.39996337890625,-38.39996337890625,-38.39996337890625,-40,-48]","[-16.79998779296875,-4.79998779296875,-1.60003662109375,-0.79998779296875,-0.79998779296875,-0.79998779296875,-0.79998779296875,-0.79998779296875,-0.79998779296875,-0.79998779296875,-0.79998779296875,-0.79998779296875,-0.79998779296875,-0.79998779296875,-0.79998779296875,-0.79998779296875,-0.79998779296875,-0.79998779296875,-0.79998779296875,-0.79998779296875,-0.79998779296875,-0.79998779296875,-0.79998779296875,-0.79998779296875,0.79998779296875,-2.4000244140625,-4,-4,-4,-4,-4,-4,-4,-4,-4,-4,-4,-4,-4,-4,-4,-4.79998779296875]","[0,0,0,0,0,0,0,0,0,0,0,0,0,0,0,0,0,0,0,0,0,0,0,0,0,0,0,0,0,0,0,0,0,0,0,0,0,0,0,0,0,0]","[0,0,0,0,0,0,0,0,0,0,0,0,0,0,0,0,0,0,0,0,0,0,0,0,0,0,0,0,0,0,0,0,0,0,0,0,0,0,0,0,0,0]","[0,0,0,0,0,0,0,0,0,0,0,0,0,0,0,0,0,0,0,0,0,0,0,0,0,0,0,0,0,0,0,0,0,0,0,0,0,0,0,0,0,0]","[0.0009999999999976694,0.015000000000000568,0.03170000000018547,0.048200000000186094,0.06470000000018672,0.07320000000018467,0.09000000000000341,0.1102000000001837,0.12370000000018422,0.14020000000018484,0.15670000000018547,0.17340000000037037,0.1902000000001891,0.20679999999981646,0.22340000000037463,0.240299999999813,0.25690000000037116,0.2809000000003721,0.2899000000003724,0.30640000000037304,0.3232000000001847,0.33979999999981203,0.3566000000005616,0.37329999999981567,0.3904000000003691,0.4146000000005614,0.4317999999998108,0.4487999999998138,0.4657999999998168,0.48260000000055925,0.4992000000001866,0.5159999999999982,0.5319000000003697,0.5406000000005591,0.5572000000001864,0.5739999999999981,0.5910000000000011,0.615299999999813,0.6312999999998112,0.6407000000001872,0.6576000000005564,0.6817999999998108]",,1,0,1,0,1,,,,
,,D222027967,2024-05-23_10h23.00.375,GoFitts,2022.2.4,Win32,60.60606061,,,,,,,,,,,,,,,,,,"[-83.14254606237348,-17.67249371950952]","[77.65136389962107,34.57261466144301]",77.8,170,0,"[-48,-52.79998779296875,-58.39996337890625,-64.79998779296875,-70.39996337890625,-73.5999755859375,-75.20001220703125,-75.20001220703125,-75.20001220703125,-75.20001220703125,-75.20001220703125,-75.20001220703125,-75.20001220703125,-75.20001220703125,-75.20001220703125,-75.20001220703125,-75.20001220703125,-75.20001220703125,-56,16,39.2000732421875,54.4000244140625]","[-4.79998779296875,-6.4000244140625,-8,-8,-8,-8.79998779296875,-9.60003662109375,-9.60003662109375,-9.60003662109375,-9.60003662109375,-9.60003662109375,-9.60003662109375,-9.60003662109375,-9.60003662109375,-9.60003662109375,-9.60003662109375,-9.60003662109375,-9.60003662109375,-9.60003662109375,8.79998779296875,14.39996337890625,18.39996337890625]","[0,0,0,0,0,0,0,0,0,0,0,0,0,0,0,0,0,0,0,0,0,0]","[0,0,0,0,0,0,0,0,0,0,0,0,0,0,0,0,0,0,0,0,0,0]","[0,0,0,0,0,0,0,0,0,0,0,0,0,0,0,0,0,0,0,0,0,0]","[0.0007000000001866624,0.016800000000742443,0.033200000000185526,0.049900000000370426,0.0668000000007467,0.08230000000074256,0.09900000000000375,0.11590000000037293,0.13230000000074682,0.14180000000074244,0.15880000000074546,0.1754000000003728,0.19190000000037344,0.2088000000007426,0.2252000000001857,0.2419000000003706,0.2664000000003739,0.27520000000018996,0.2931000000005568,0.3168000000007467,0.3338000000007426,0.35040000000036997]",,2,0,2,0,1,,,,
,,D222027967,2024-05-23_10h23.00.375,GoFitts,2022.2.4,Win32,60.60606061,,,,,,,,,,,,,,,,,,"[77.65136389962107,34.57261466144301]","[-68.76644452187054,-49.96174644486021]",77.8,170,0,"[54.4000244140625,60,61.5999755859375,62.4000244140625,62.4000244140625,63.2000732421875,64,64,64,64,64,64,64,64,64,64,64,64,64,54.4000244140625,28.800048828125,-32.79998779296875,-57.5999755859375]","[18.39996337890625,20.79998779296875,22.39996337890625,22.39996337890625,22.39996337890625,23.20001220703125,24,24,24,24,24,24,24,24,24,24,24,24,24,23.20001220703125,8,-20,-30.4000244140625]","[0,0,0,0,0,0,0,0,0,0,0,0,0,0,0,0,0,0,0,0,0,0,0]","[0,0,0,0,0,0,0,0,0,0,0,0,0,0,0,0,0,0,0,0,0,0,0]","[0,0,0,0,0,0,0,0,0,0,0,0,0,0,0,0,0,0,0,0,0,0,0]","[0.0010000000000047748,0.016100000000562886,0.03290000000037452,0.049500000000001876,0.0660000000000025,0.08330000000074733,0.09949999999999903,0.11599999999999966,0.13260000000055783,0.14880000000074745,0.16600000000000392,0.18250000000000455,0.19899999999999807,0.21600000000000108,0.23240000000037497,0.24930000000074415,0.2659000000003715,0.27460000000056084,0.2918000000007481,0.3162000000001868,0.33330000000074733,0.3496000000005637,0.3664000000003753]",,3,0,3,0,1,,,,
,,D222027967,2024-05-23_10h23.00.375,GoFitts,2022.2.4,Win32,60.60606061,,,,,,,,,,,,,,,,,,"[-68.76644452187054,-49.96174644486021]","[56.87610154050295,63.16731016557851]",77.8,170,0,"[-57.5999755859375,-72,-74.39996337890625,-74.39996337890625,-74.39996337890625,-74.39996337890625,-74.39996337890625,-74.39996337890625,-74.39996337890625,-74.39996337890625,-74.39996337890625,-74.39996337890625,-74.39996337890625,-74.39996337890625,-74.39996337890625,-74.39996337890625,-73.5999755859375,-43.20001220703125,-0.79998779296875,27.2000732421875,59.2000732421875]","[-30.4000244140625,-32.79998779296875,-35.20001220703125,-35.20001220703125,-35.20001220703125,-35.20001220703125,-35.20001220703125,-35.20001220703125,-35.20001220703125,-35.20001220703125,-35.20001220703125,-35.20001220703125,-35.20001220703125,-35.20001220703125,-35.20001220703125,-35.20001220703125,-34.4000244140625,-18.4000244140625,-0.79998779296875,18.39996337890625,37.5999755859375]","[0,0,0,0,0,0,0,0,0,0,0,0,0,0,0,0,0,0,0,0,0]","[0,0,0,0,0,0,0,0,0,0,0,0,0,0,0,0,0,0,0,0,0]","[0,0,0,0,0,0,0,0,0,0,0,0,0,0,0,0,0,0,0,0,0]","[0.0009999999999976694,0.016200000000182513,0.03280000000074068,0.04920000000018376,0.05740000000037071,0.07430000000073989,0.0994000000003723,0.10770000000018598,0.12430000000074415,0.1489999999999938,0.15780000000074068,0.17449999999999477,0.19840000000036895,0.20810000000055595,0.22449999999999903,0.24940000000037088,0.26220000000018473,0.2828000000007407,0.30020000000018143,0.31690000000036633,0.3332000000001827]",,4,0,4,0,1,,,,
,,D222027967,2024-05-23_10h23.00.375,GoFitts,2022.2.4,Win32,60.60606061,,,,,,,,,,,,,,,,,,"[56.87610154050295,63.16731016557851]","[-42.500000000000036,-73.61215932167727]",77.8,170,0,"[59.2000732421875,82.4000244140625,85.5999755859375,85.5999755859375,85.5999755859375,85.5999755859375,85.5999755859375,85.5999755859375,85.5999755859375,85.5999755859375,85.5999755859375,85.5999755859375,85.5999755859375,85.5999755859375,85.5999755859375,85.5999755859375,85.5999755859375,74.4000244140625,64,16,-13.5999755859375,-44.79998779296875]","[37.5999755859375,51.20001220703125,52.79998779296875,52.79998779296875,52.79998779296875,52.79998779296875,52.79998779296875,52.79998779296875,52.79998779296875,52.79998779296875,52.79998779296875,52.79998779296875,52.79998779296875,52.79998779296875,52.79998779296875,52.79998779296875,52,39.20001220703125,28.79998779296875,-8.79998779296875,-40,-72.79998779296875]","[0,0,0,0,0,0,0,0,0,0,0,0,0,0,0,0,0,0,0,0,0,0]","[0,0,0,0,0,0,0,0,0,0,0,0,0,0,0,0,0,0,0,0,0,0]","[0,0,0,0,0,0,0,0,0,0,0,0,0,0,0,0,0,0,0,0,0,0]","[0.0012000000001890498,0.016500000000000625,0.031700000000192574,0.04790000000037509,0.05729999999981317,0.07360000000056033,0.0977999999998147,0.10710000000056397,0.12349999999999994,0.14029999999981868,0.15710000000056112,0.1737999999998152,0.19040000000037338,0.20700000000000074,0.22370000000018564,0.24040000000037764,0.26490000000037384,0.2817999999998193,0.29460000000056397,0.3154000000003734,0.3322000000001921,0.3486000000005589]",,5,0,5,0,1,,,,
,,D222027967,2024-05-23_10h23.00.375,GoFitts,2022.2.4,Win32,60.60606061,,,,,,,,,,,,,,,,,,"[-42.500000000000036,-73.61215932167727]","[26.266444521870532,80.83980388508805]",77.8,170,0,"[-44.79998779296875,-58.39996337890625,-60.79998779296875,-61.5999755859375,-61.5999755859375,-61.5999755859375,-61.5999755859375,-61.5999755859375,-61.5999755859375,-61.5999755859375,-61.5999755859375,-61.5999755859375,-61.5999755859375,-61.5999755859375,-61.5999755859375,-61.5999755859375,-60.79998779296875,-48.79998779296875,-35.20001220703125,-16.79998779296875,-4,11.2000732421875]","[-72.79998779296875,-88.79998779296875,-92.79998779296875,-93.60003662109375,-93.60003662109375,-93.60003662109375,-93.60003662109375,-93.60003662109375,-93.60003662109375,-93.60003662109375,-93.60003662109375,-93.60003662109375,-93.60003662109375,-93.60003662109375,-93.60003662109375,-93.60003662109375,-87.20001220703125,-64,-39.20001220703125,1.5999755859375,28.79998779296875,53.5999755859375]","[0,0,0,0,0,0,0,0,0,0,0,0,0,0,0,0,0,0,0,0,0,0]","[0,0,0,0,0,0,0,0,0,0,0,0,0,0,0,0,0,0,0,0,0,0]","[0,0,0,0,0,0,0,0,0,0,0,0,0,0,0,0,0,0,0,0,0,0]","[0.0009999999999976694,0.01620000000018962,0.03309999999962798,0.049400000000375144,0.06629999999981351,0.08279999999981413,0.09140000000037674,0.1082999999998151,0.12490000000037327,0.14909999999962764,0.15809999999962798,0.175099999999631,0.19940000000037372,0.20809999999962514,0.22509999999962815,0.24940000000037088,0.26629999999981635,0.28300000000000125,0.29890000000037276,0.31590000000037577,0.33259999999962986,0.349200000000188]",,6,0,6,0,1,,,,
,,D222027967,2024-05-23_10h23.00.375,GoFitts,2022.2.4,Win32,60.60606061,,,,,,,,,,,,,,,,,,"[26.266444521870532,80.83980388508805]","[-8.88491937775061,-84.53436110630322]",77.8,170,0,"[11.2000732421875,13.5999755859375,14.4000244140625,15.2000732421875,15.2000732421875,15.2000732421875,16,16,16,16,16,16,16.800048828125,16.800048828125,16.800048828125,16.800048828125,16.800048828125,16.800048828125,16.800048828125,12,7.2000732421875,2.4000244140625,0]","[53.5999755859375,60.79998779296875,63.20001220703125,64.79998779296875,64.79998779296875,65.60000610351562,66.39999389648438,66.39999389648438,66.39999389648438,66.39999389648438,66.39999389648438,66.39999389648438,67.19998168945312,67.19998168945312,67.19998168945312,67.19998168945312,67.19998168945312,67.19998168945312,63.20001220703125,12,-10.4000244140625,-46.4000244140625,-68]","[0,0,0,0,0,0,0,0,0,0,0,0,0,0,0,0,0,0,0,0,0,0,0]","[0,0,0,0,0,0,0,0,0,0,0,0,0,0,0,0,0,0,0,0,0,0,0]","[0,0,0,0,0,0,0,0,0,0,0,0,0,0,0,0,0,0,0,0,0,0,0]","[0.00029999999981811243,0.01669999999925409,0.03429999999981703,0.05069999999925301,0.06729999999981828,0.08429999999981419,0.10059999999963054,0.11729999999981544,0.12559999999962912,0.1424999999999983,0.1595000000000013,0.17609999999962866,0.19299999999999784,0.21719999999925932,0.22579999999981482,0.24289999999944456,0.25950000000000273,0.27600000000000335,0.2928999999994417,0.317399999999445,0.3342999999998142,0.35119999999925966,0.36779999999981783]",,7,0,7,0,1,,,,
,,D222027967,2024-05-23_10h23.00.375,GoFitts,2022.2.4,Win32,60.60606061,,,,,,,,,,,,,,,,,,"[-8.88491937775061,-84.53436110630322]","[-8.884919377750533,84.53436110630324]",77.8,170,0,"[0,0,0,0,0,0,0,0,0,0,0,0,0,0,0,0,0.800048828125,0.800048828125,-0.79998779296875,-2.39996337890625,-2.39996337890625,-2.39996337890625]","[-68,-81.60003662109375,-84,-84,-84,-84,-84,-84,-84,-84,-84,-84,-84,-84,-84,-84,-79.20001220703125,-71.20001220703125,-54.4000244140625,-32,38.39996337890625,90.39999389648438]","[0,0,0,0,0,0,0,0,0,0,0,0,0,0,0,0,0,0,0,0,0,0]","[0,0,0,0,0,0,0,0,0,0,0,0,0,0,0,0,0,0,0,0,0,0]","[0,0,0,0,0,0,0,0,0,0,0,0,0,0,0,0,0,0,0,0,0,0]","[0.0008999999994401264,0.015899999999440695,0.03239999999944132,0.04899999999999949,0.06579999999981112,0.08229999999981175,0.0988999999994391,0.11569999999925074,0.13219999999925136,0.14889999999943626,0.165699999999255,0.17419999999925295,0.19119999999924886,0.20789999999944087,0.22459999999962577,0.24119999999925312,0.2661999999992517,0.28299999999999415,0.29969999999924823,0.31639999999944024,0.33229999999981175,0.348599999999621]",,8,0,8,0,1,,,,
,,D222027967,2024-05-23_10h23.00.375,GoFitts,2022.2.4,Win32,60.60606061,,,,,,,,,,,,,,,,,,"[-8.884919377750533,84.53436110630324]","[26.266444521870515,-80.83980388508806]",77.8,170,0,"[-2.39996337890625,-2.39996337890625,-6.39996337890625,-9.5999755859375,-10.39996337890625,-10.39996337890625,-10.39996337890625,-10.39996337890625,-10.39996337890625,-10.39996337890625,-10.39996337890625,-10.39996337890625,-10.39996337890625,-10.39996337890625,-10.39996337890625,-10.39996337890625,-10.39996337890625,-10.39996337890625,-10.39996337890625,-10.39996337890625,-10.39996337890625,-10.39996337890625,-10.39996337890625,-10.39996337890625,-9.5999755859375,-9.5999755859375,-9.5999755859375,-8,-5.5999755859375,-0.79998779296875,4.800048828125,8.800048828125,9.5999755859375,11.2000732421875,11.2000732421875,12]","[90.39999389648438,128.79998779296875,146.39999389648438,155.19998168945312,156,156,156,156,156,156,156,156,156,156,156,154.39999389648438,145.60000610351562,132,112.79998779296875,88,68,53.5999755859375,48.79998779296875,43.20001220703125,41.5999755859375,41.5999755859375,40,33.5999755859375,24,11.20001220703125,-5.60003662109375,-24,-28,-36,-44,-47.20001220703125]","[0,0,0,0,0,0,0,0,0,0,0,0,0,0,0,0,0,0,0,0,0,0,0,0,0,0,0,0,0,0,0,0,0,0,0,0]","[0,0,0,0,0,0,0,0,0,0,0,0,0,0,0,0,0,0,0,0,0,0,0,0,0,0,0,0,0,0,0,0,0,0,0,0]","[0,0,0,0,0,0,0,0,0,0,0,0,0,0,0,0,0,0,0,0,0,0,0,0,0,0,0,0,0,0,0,0,0,0,0,0]","[0.000299999999811007,0.016599999999627357,0.03329999999981226,0.050099999999630995,0.06719999999925363,0.08389999999943853,0.09209999999962548,0.1090999999996285,0.13369999999925852,0.14219999999925648,0.16609999999963065,0.1758999999994444,0.1925999999996293,0.2160999999996278,0.2254999999999967,0.24229999999981544,0.26709999999962974,0.2838999999994414,0.3005999999996263,0.3172999999998112,0.3340999999996299,0.3506999999992573,0.3671999999992579,0.3836999999992585,0.400799999999812,0.41689999999944405,0.42639999999943967,0.45059999999962486,0.4663999999994388,0.4840999999996285,0.5010999999996244,0.5193999999994432,0.5332999999998123,0.5499999999999972,0.5665999999996245,0.5835999999996275]",,9,0,9,0,1,,,,
,,D222027967,2024-05-23_10h23.00.375,GoFitts,2022.2.4,Win32,60.60606061,,,,,,,,,,,,,,,,,,"[26.266444521870515,-80.83980388508806]","[-42.49999999999998,73.6121593216773]",77.8,170,0,"[12,12.800048828125,12.800048828125,12.800048828125,12.800048828125,13.5999755859375,13.5999755859375,14.4000244140625,14.4000244140625,14.4000244140625,14.4000244140625,14.4000244140625,14.4000244140625,14.4000244140625,14.4000244140625,14.4000244140625,14.4000244140625,14.4000244140625,14.4000244140625,11.2000732421875,1.5999755859375,-10.39996337890625,-16.79998779296875,-27.20001220703125]","[-47.20001220703125,-49.60003662109375,-52,-55.20001220703125,-58.4000244140625,-62.4000244140625,-62.4000244140625,-63.20001220703125,-63.20001220703125,-63.20001220703125,-63.20001220703125,-65.60003662109375,-68,-68,-68,-68,-68,-68,-68,-57.60003662109375,-28.79998779296875,0,13.5999755859375,42.39996337890625]","[0,0,0,0,0,0,0,0,0,0,0,0,0,0,0,0,0,0,0,0,0,0,0,0]","[0,0,0,0,0,0,0,0,0,0,0,0,0,0,0,0,0,0,0,0,0,0,0,0]","[0,0,0,0,0,0,0,0,0,0,0,0,0,0,0,0,0,0,0,0,0,0,0,0]","[0.000299999999811007,0.016799999999811632,0.03379999999980754,0.05019999999925062,0.0670999999996269,0.08399999999999608,0.10009999999962105,0.11299999999999955,0.1330999999996223,0.14219999999924937,0.15889999999944138,0.17559999999962628,0.20029999999981385,0.2168999999994412,0.22529999999981243,0.24249999999999972,0.25900000000000034,0.275799999999812,0.2924999999999969,0.30939999999943524,0.33309999999962514,0.35089999999944155,0.36729999999980834,0.3838999999994357]",,10,0,10,0,1,,,,
,,D222027967,2024-05-23_10h23.00.375,GoFitts,2022.2.4,Win32,60.60606061,,,,,,,,,,,,,,,,,,"[-42.49999999999998,73.6121593216773]","[56.87610154050297,-63.16731016557849]",77.8,170,0,"[-27.20001220703125,-31.20001220703125,-32.79998779296875,-33.5999755859375,-33.5999755859375,-33.5999755859375,-33.5999755859375,-33.5999755859375,-33.5999755859375,-33.5999755859375,-33.5999755859375,-33.5999755859375,-33.5999755859375,-33.5999755859375,-33.5999755859375,-33.5999755859375,-33.5999755859375,-32.79998779296875,-20.79998779296875,-9.5999755859375,0.800048828125,13.5999755859375,21.5999755859375,31.2000732421875]","[42.39996337890625,53.5999755859375,61.5999755859375,63.20001220703125,64.79998779296875,65.60000610351562,65.60000610351562,65.60000610351562,65.60000610351562,65.60000610351562,65.60000610351562,65.60000610351562,65.60000610351562,65.60000610351562,65.60000610351562,65.60000610351562,65.60000610351562,64,45.5999755859375,30.39996337890625,10.39996337890625,-12,-25.60003662109375,-46.4000244140625]","[0,0,0,0,0,0,0,0,0,0,0,0,0,0,0,0,0,0,0,0,0,0,0,0]","[0,0,0,0,0,0,0,0,0,0,0,0,0,0,0,0,0,0,0,0,0,0,0,0]","[0,0,0,0,0,0,0,0,0,0,0,0,0,0,0,0,0,0,0,0,0,0,0,0]","[0.0011999999992582389,0.015999999999998238,0.03300000000000125,0.04959999999962861,0.0660000000000025,0.08319999999925898,0.09879999999981237,0.10789999999943944,0.13250000000000028,0.1490000000000009,0.16579999999981254,0.18219999999925562,0.19139999999944024,0.21589999999944354,0.22449999999999903,0.24150000000000205,0.25819999999925614,0.2752999999998167,0.29839999999943956,0.31539999999944257,0.33229999999981175,0.35029999999981243,0.3655000000000044,0.38300000000000267]",,11,0,11,0,1,,,,
,,D222027967,2024-05-23_10h23.00.375,GoFitts,2022.2.4,Win32,60.60606061,,,,,,,,,,,,,,,,,,"[56.87610154050297,-63.16731016557849]","[-68.76644452187053,49.961746444860225]",77.8,170,0,"[31.2000732421875,39.2000732421875,41.5999755859375,41.5999755859375,41.5999755859375,41.5999755859375,41.5999755859375,41.5999755859375,41.5999755859375,41.5999755859375,41.5999755859375,41.5999755859375,41.5999755859375,41.5999755859375,41.5999755859375,41.5999755859375,41.5999755859375,41.5999755859375,40,23.2000732421875,14.4000244140625,2.4000244140625,-11.20001220703125,-24.79998779296875,-33.5999755859375]","[-46.4000244140625,-66.4000244140625,-69.60003662109375,-69.60003662109375,-69.60003662109375,-69.60003662109375,-69.60003662109375,-69.60003662109375,-69.60003662109375,-69.60003662109375,-69.60003662109375,-69.60003662109375,-69.60003662109375,-69.60003662109375,-69.60003662109375,-69.60003662109375,-69.60003662109375,-69.60003662109375,-65.60003662109375,-32.79998779296875,-20.79998779296875,6.39996337890625,29.5999755859375,51.20001220703125,60]","[0,0,0,0,0,0,0,0,0,0,0,0,0,0,0,0,0,0,0,0,0,0,0,0,0]","[0,0,0,0,0,0,0,0,0,0,0,0,0,0,0,0,0,0,0,0,0,0,0,0,0]","[0,0,0,0,0,0,0,0,0,0,0,0,0,0,0,0,0,0,0,0,0,0,0,0,0]","[0.0009999999999976694,0.018200000000184957,0.03290000000036741,0.04940000000036804,0.05779999999980845,0.07450000000000045,0.09129999999981209,0.10820000000018126,0.12490000000036616,0.14099999999999824,0.1579000000003674,0.1745999999996215,0.19090000000036866,0.20809999999962514,0.22490000000036758,0.2492000000001866,0.2580999999996223,0.2750999999996253,0.2919999999999945,0.3164999999999978,0.33340000000036696,0.35009999999962105,0.36679999999981305,0.38320000000017984,0.3997999999998143]",,12,0,12,0,1,,,,
,,D222027967,2024-05-23_10h23.00.375,GoFitts,2022.2.4,Win32,60.60606061,,,,,,,,,,,,,,,,,,"[-68.76644452187053,49.961746444860225]","[77.65136389962109,-34.57261466144301]",77.8,170,0,"[-33.5999755859375,-37.5999755859375,-39.20001220703125,-39.20001220703125,-39.20001220703125,-39.20001220703125,-39.20001220703125,-39.20001220703125,-39.20001220703125,-39.20001220703125,-39.20001220703125,-39.20001220703125,-39.20001220703125,-39.20001220703125,-39.20001220703125,-39.20001220703125,-39.20001220703125,-39.20001220703125,-40.79998779296875,-34.39996337890625,-23.20001220703125,-6.39996337890625,11.2000732421875,21.5999755859375,35.2000732421875,36.800048828125,40.800048828125,41.5999755859375,43.2000732421875,44,44.800048828125,44.800048828125,45.5999755859375,47.2000732421875,48,48.800048828125,51.2000732421875]","[60,61.5999755859375,63.20001220703125,63.20001220703125,63.20001220703125,63.20001220703125,63.20001220703125,63.20001220703125,63.20001220703125,63.20001220703125,63.20001220703125,63.20001220703125,63.20001220703125,63.20001220703125,63.20001220703125,63.20001220703125,63.20001220703125,63.20001220703125,63.20001220703125,52.79998779296875,43.20001220703125,31.20001220703125,21.5999755859375,16.79998779296875,9.5999755859375,8,4.79998779296875,4,3.20001220703125,1.5999755859375,0.79998779296875,0,-0.79998779296875,-2.4000244140625,-3.20001220703125,-4,-7.20001220703125]","[0,0,0,0,0,0,0,0,0,0,0,0,0,0,0,0,0,0,0,0,0,0,0,0,0,0,0,0,0,0,0,0,0,0,0,0,0]","[0,0,0,0,0,0,0,0,0,0,0,0,0,0,0,0,0,0,0,0,0,0,0,0,0,0,0,0,0,0,0,0,0,0,0,0,0]","[0,0,0,0,0,0,0,0,0,0,0,0,0,0,0,0,0,0,0,0,0,0,0,0,0,0,0,0,0,0,0,0,0,0,0,0,0]","[0.0009000000003709374,0.016100000000562886,0.032799999999816976,0.0492999999998176,0.06590000000037577,0.07560000000056277,0.0994000000003723,0.10790000000037026,0.12479999999981573,0.14160000000055817,0.15820000000018553,0.17490000000037043,0.19160000000056243,0.20790000000037168,0.2249000000003747,0.2416000000005596,0.2582999999998137,0.2749999999999986,0.2920000000000016,0.3164999999999978,0.33340000000037406,0.35029999999981243,0.367400000000373,0.3831000000005602,0.39990000000037185,0.4164999999999992,0.4334000000003755,0.4501000000005604,0.466600000000561,0.48340000000037264,0.5001000000005575,0.5167000000001849,0.5335000000000036,0.5501000000005618,0.5667000000001892,0.5832999999998165,0.5999000000003747]",,13,0,13,0,1,,,,
,,D222027967,2024-05-23_10h23.00.375,GoFitts,2022.2.4,Win32,60.60606061,,,,,,,,,,,,,,,,,,"[77.65136389962109,-34.57261466144301]","[-83.14254606237348,17.672493719509543]",77.8,170,0,"[51.2000732421875,52.800048828125,56,56.800048828125,57.5999755859375,59.2000732421875,62.4000244140625,64,65.5999755859375,66.4000244140625,66.4000244140625,66.4000244140625,66.4000244140625,66.4000244140625,66.4000244140625,66.4000244140625,66.4000244140625,66.4000244140625,66.4000244140625,64,40,20,4.800048828125,-17.5999755859375,-23.20001220703125,-32.79998779296875,-38.39996337890625,-44,-48]","[-7.20001220703125,-9.60003662109375,-11.20001220703125,-12.79998779296875,-14.4000244140625,-16,-19.20001220703125,-20.79998779296875,-22.4000244140625,-23.20001220703125,-23.20001220703125,-23.20001220703125,-23.20001220703125,-23.20001220703125,-23.20001220703125,-23.20001220703125,-23.20001220703125,-23.20001220703125,-23.20001220703125,-23.20001220703125,-16,-9.60003662109375,-3.20001220703125,4,6.39996337890625,9.5999755859375,10.39996337890625,11.20001220703125,13.5999755859375]","[0,0,0,0,0,0,0,0,0,0,0,0,0,0,0,0,0,0,0,0,0,0,0,0,0,0,0,0,0]","[0,0,0,0,0,0,0,0,0,0,0,0,0,0,0,0,0,0,0,0,0,0,0,0,0,0,0,0,0]","[0,0,0,0,0,0,0,0,0,0,0,0,0,0,0,0,0,0,0,0,0,0,0,0,0,0,0,0,0]","[0.0007999999998133944,0.018400000000369232,0.032999999999994145,0.04970000000018615,0.06679999999980879,0.08299999999999841,0.09979999999981004,0.11640000000036821,0.1331000000005531,0.1497999999998143,0.16599999999999682,0.17470000000018615,0.19920000000018234,0.20790000000037168,0.2247000000001833,0.24170000000018632,0.26599999999999824,0.27460000000055373,0.2917000000001835,0.3084000000003684,0.3332000000001827,0.35010000000055896,0.3666000000005596,0.38210000000055544,0.39960000000055373,0.41660000000055675,0.4334000000003684,0.4501000000005533,0.4666000000005539]",,14,0,14,0,1,,,,
,,D222027967,2024-05-23_10h23.00.375,GoFitts,2022.2.4,Win32,60.60606061,,,,,,,,,,,,,,,,,,,,,,0,,,,,,,,,,,,,0,0,0,1
,,D222027967,2024-05-23_10h23.00.375,GoFitts,2022.2.4,Win32,60.60606061,,,,,,,,,,,,,,,,return,1.3631,"[-79.20001220703125,22.39996337890625]","[-20.905692653530668,198.90437907365467]",48,400,1,"[-79.20001220703125,-79.20001220703125,-79.20001220703125,-79.20001220703125,-79.20001220703125,-79.20001220703125,-79.20001220703125,-79.20001220703125,-79.20001220703125,-79.20001220703125,-79.20001220703125,-79.20001220703125,-79.20001220703125,-79.20001220703125,-79.20001220703125,-79.20001220703125,-79.20001220703125,-79.20001220703125,-79.20001220703125,-79.20001220703125,-79.20001220703125,-79.20001220703125,-79.20001220703125,-79.20001220703125,-67.20001220703125,-60.79998779296875,-55.20001220703125,-55.20001220703125,-55.20001220703125,-55.20001220703125,-55.20001220703125,-55.20001220703125,-55.20001220703125,-55.20001220703125,-54.39996337890625,-52.79998779296875,-48.79998779296875,-42.39996337890625,-34.39996337890625,-21.5999755859375]","[22.39996337890625,22.39996337890625,22.39996337890625,22.39996337890625,22.39996337890625,22.39996337890625,22.39996337890625,22.39996337890625,22.39996337890625,22.39996337890625,22.39996337890625,22.39996337890625,22.39996337890625,22.39996337890625,22.39996337890625,22.39996337890625,22.39996337890625,22.39996337890625,22.39996337890625,22.39996337890625,22.39996337890625,22.39996337890625,22.39996337890625,25.5999755859375,46.39996337890625,61.5999755859375,78.39999389648438,108.79998779296875,136,143.19998168945312,147.19998168945312,149.60000610351562,150.39999389648438,150.39999389648438,152.79998779296875,153.60000610351562,157.60000610351562,162.39999389648438,172,192]","[0,0,0,0,0,0,0,0,0,0,0,0,0,0,0,0,0,0,0,0,0,0,0,0,0,0,0,0,0,0,0,0,0,0,0,0,0,0,0,0]","[0,0,0,0,0,0,0,0,0,0,0,0,0,0,0,0,0,0,0,0,0,0,0,0,0,0,0,0,0,0,0,0,0,0,0,0,0,0,0,0]","[0,0,0,0,0,0,0,0,0,0,0,0,0,0,0,0,0,0,0,0,0,0,0,0,0,0,0,0,0,0,0,0,0,0,0,0,0,0,0,0]","[0.0011000000005552124,0.023600000000556065,0.04020000000018342,0.04899999999999949,0.07340000000036895,0.08279999999981413,0.09990000000036758,0.11640000000036821,0.14110000000055578,0.15779999999980987,0.1737999999998081,0.18299999999999983,0.20679999999980936,0.21599999999999397,0.2411000000005572,0.2575000000000003,0.27440000000036946,0.2912000000001811,0.3077000000001817,0.32420000000018234,0.34120000000018536,0.3577999999998127,0.3664000000003682,0.3841000000005579,0.40829999999981226,0.4251000000005547,0.4416000000005553,0.45840000000036696,0.4749999999999943,0.4919000000003706,0.5086000000005555,0.5254000000003671,0.5414999999999992,0.5581000000005574,0.5751000000005533,0.5917000000001806,0.6087000000001836,0.6254000000003685,0.6417999999998116,0.6572999999998146]",,0,0,0,0,1,,,,
,,D222027967,2024-05-23_10h23.00.375,GoFitts,2022.2.4,Win32,60.60606061,,,,,,,,,,,,,,,,,,"[-20.905692653530668,198.90437907365467]","[61.80339887498945,-190.21130325903073]",48,400,1,"[-21.5999755859375,-15.20001220703125,-11.20001220703125,-11.20001220703125,-11.20001220703125,-11.20001220703125,-11.20001220703125,-11.20001220703125,-11.20001220703125,-11.20001220703125,-11.20001220703125,-11.20001220703125,-11.20001220703125,-11.20001220703125,-11.20001220703125,-11.20001220703125,-11.20001220703125,-11.20001220703125,-10.39996337890625,-7.20001220703125,-0.79998779296875,14.4000244140625,25.5999755859375,43.2000732421875,74.4000244140625,88,94.4000244140625,100,101.5999755859375,102.4000244140625,102.4000244140625,102.4000244140625,102.4000244140625,102.4000244140625,102.4000244140625,102.4000244140625,102.4000244140625,102.4000244140625,100.800048828125,86.4000244140625,69.5999755859375,56]","[192,197.60000610351562,201.60000610351562,201.60000610351562,201.60000610351562,201.60000610351562,201.60000610351562,201.60000610351562,201.60000610351562,201.60000610351562,201.60000610351562,201.60000610351562,201.60000610351562,201.60000610351562,201.60000610351562,201.60000610351562,201.60000610351562,201.60000610351562,195.19998168945312,171.19998168945312,131.19998168945312,48.79998779296875,-53.60003662109375,-148.79998779296875,-240.79998779296875,-260.79998779296875,-266.4000244140625,-268.79998779296875,-269.60003662109375,-270.4000244140625,-270.4000244140625,-270.4000244140625,-270.4000244140625,-270.4000244140625,-270.4000244140625,-270.4000244140625,-269.60003662109375,-266.4000244140625,-259.20001220703125,-245.60003662109375,-214.4000244140625,-195.20001220703125]","[0,0,0,0,0,0,0,0,0,0,0,0,0,0,0,0,0,0,0,0,0,0,0,0,0,0,0,0,0,0,0,0,0,0,0,0,0,0,0,0,0,0]","[0,0,0,0,0,0,0,0,0,0,0,0,0,0,0,0,0,0,0,0,0,0,0,0,0,0,0,0,0,0,0,0,0,0,0,0,0,0,0,0,0,0]","[0,0,0,0,0,0,0,0,0,0,0,0,0,0,0,0,0,0,0,0,0,0,0,0,0,0,0,0,0,0,0,0,0,0,0,0,0,0,0,0,0,0]","[0.000199999999253464,0.016599999999627357,0.03300000000000125,0.05009999999962389,0.06609999999962923,0.07579999999981624,0.09279999999981214,0.10949999999999704,0.12619999999925113,0.14289999999944314,0.15959999999962804,0.1761999999992554,0.19299999999999784,0.2171999999992522,0.22609999999962582,0.2430000000000021,0.26339999999944297,0.27629999999981436,0.29329999999981027,0.31779999999981356,0.3345999999996252,0.35139999999944393,0.3680000000000021,0.38450000000000273,0.4010999999996301,0.4178999999994417,0.43409999999962423,0.45079999999981624,0.46729999999981686,0.4835999999996261,0.5005000000000024,0.5176999999992518,0.5260999999996301,0.5508999999994444,0.5675999999996293,0.5841999999992566,0.6012999999998101,0.6178999999994375,0.6347999999998137,0.6515999999996254,0.6679999999999993,0.6846999999992534]",,1,0,1,0,1,,,,
,,D222027967,2024-05-23_10h23.00.375,GoFitts,2022.2.4,Win32,60.60606061,,,,,,,,,,,,,,,,,,"[61.80339887498945,-190.21130325903073]","[-99.99999999999996,173.20508075688775]",48,400,1,"[56,51.2000732421875,50.4000244140625,49.5999755859375,49.5999755859375,49.5999755859375,49.5999755859375,49.5999755859375,49.5999755859375,49.5999755859375,49.5999755859375,49.5999755859375,49.5999755859375,49.5999755859375,49.5999755859375,49.5999755859375,49.5999755859375,48.800048828125,40.800048828125,20.800048828125,16,-2.39996337890625,-13.5999755859375,-24.79998779296875,-30.39996337890625,-35.20001220703125,-38.39996337890625,-40.79998779296875,-41.5999755859375,-45.5999755859375,-47.20001220703125,-48,-51.20001220703125,-55.20001220703125,-64,-85.5999755859375]","[-195.20001220703125,-183.20001220703125,-177.60003662109375,-175.20001220703125,-175.20001220703125,-175.20001220703125,-175.20001220703125,-175.20001220703125,-175.20001220703125,-175.20001220703125,-175.20001220703125,-175.20001220703125,-175.20001220703125,-175.20001220703125,-175.20001220703125,-175.20001220703125,-175.20001220703125,-174.4000244140625,-152.79998779296875,-67.20001220703125,-8.79998779296875,46.39996337890625,77.60000610351562,98.39999389648438,113.60000610351562,125.60000610351562,133.60000610351562,140,144.79998779296875,153.60000610351562,156.79998779296875,157.60000610351562,157.60000610351562,157.60000610351562,158.39999389648438,162.39999389648438]","[0,0,0,0,0,0,0,0,0,0,0,0,0,0,0,0,0,0,0,0,0,0,0,0,0,0,0,0,0,0,0,0,0,0,0,0]","[0,0,0,0,0,0,0,0,0,0,0,0,0,0,0,0,0,0,0,0,0,0,0,0,0,0,0,0,0,0,0,0,0,0,0,0]","[0,0,0,0,0,0,0,0,0,0,0,0,0,0,0,0,0,0,0,0,0,0,0,0,0,0,0,0,0,0,0,0,0,0,0,0]","[0.0007999999998133944,0.015799999999813963,0.032799999999816976,0.04939999999944433,0.06559999999962685,0.08250000000000313,0.09900000000000375,0.10759999999962844,0.1241999999992558,0.1411999999992588,0.1578999999994437,0.1745999999996286,0.1912999999998135,0.2080000000000055,0.2243999999994415,0.24119999999926023,0.25769999999925375,0.2750000000000057,0.29919999999926006,0.31619999999925597,0.3330000000000055,0.3496999999992596,0.36629999999981777,0.38319999999925614,0.39969999999925676,0.41609999999963065,0.4331999999992604,0.44979999999981857,0.4663999999994459,0.4830000000000041,0.49959999999963145,0.5161999999992588,0.5328999999994437,0.5497999999998129,0.5663999999994402,0.5832999999998165]",,2,0,2,0,1,,,,
,,D222027967,2024-05-23_10h23.00.375,GoFitts,2022.2.4,Win32,60.60606061,,,,,,,,,,,,,,,,,,"[-99.99999999999996,173.20508075688775]","[133.82612127177168,-148.6289650954788]",48,400,1,"[-85.5999755859375,-93.5999755859375,-105.5999755859375,-110.39996337890625,-110.39996337890625,-110.39996337890625,-110.39996337890625,-110.39996337890625,-110.39996337890625,-110.39996337890625,-110.39996337890625,-110.39996337890625,-110.39996337890625,-110.39996337890625,-110.39996337890625,-110.39996337890625,-110.39996337890625,-110.39996337890625,-112,-90.39996337890625,-73.5999755859375,-51.20001220703125,-36.79998779296875,-11.20001220703125,9.5999755859375,16.800048828125,19.2000732421875,20.800048828125,23.2000732421875,23.2000732421875,24,31.2000732421875,32.800048828125,41.5999755859375,56,76.800048828125,88,100.800048828125,109.5999755859375,116.800048828125,118.4000244140625,120,121.5999755859375]","[162.39999389648438,162.39999389648438,166.39999389648438,168.79998779296875,168.79998779296875,168.79998779296875,168.79998779296875,168.79998779296875,168.79998779296875,168.79998779296875,168.79998779296875,168.79998779296875,168.79998779296875,168.79998779296875,168.79998779296875,168.79998779296875,168.79998779296875,168.79998779296875,161.60000610351562,132,112,80,58.39996337890625,14.39996337890625,-23.20001220703125,-33.60003662109375,-34.4000244140625,-36,-36,-36,-36,-37.60003662109375,-38.4000244140625,-42.4000244140625,-48,-53.60003662109375,-60,-74.4000244140625,-92.79998779296875,-108.79998779296875,-116.79998779296875,-123.20001220703125,-128.79998779296875]","[0,0,0,0,0,0,0,0,0,0,0,0,0,0,0,0,0,0,0,0,0,0,0,0,0,0,0,0,0,0,0,0,0,0,0,0,0,0,0,0,0,0,0]","[0,0,0,0,0,0,0,0,0,0,0,0,0,0,0,0,0,0,0,0,0,0,0,0,0,0,0,0,0,0,0,0,0,0,0,0,0,0,0,0,0,0,0]","[0,0,0,0,0,0,0,0,0,0,0,0,0,0,0,0,0,0,0,0,0,0,0,0,0,0,0,0,0,0,0,0,0,0,0,0,0,0,0,0,0,0,0]","[0.0007999999998133944,0.015999999999998238,0.032200000000187856,0.04920000000018376,0.06559999999962685,0.08200000000000074,0.09049999999999869,0.10759999999962844,0.12400000000000233,0.14849999999999852,0.15740000000037213,0.17409999999962622,0.1910000000000025,0.20779999999981413,0.2244000000003723,0.2410999999996264,0.2577999999998113,0.27409999999962764,0.29109999999963065,0.3157000000001844,0.3325000000000031,0.34820000000018325,0.3657999999998154,0.38129999999981123,0.39940000000036946,0.4162000000001882,0.43279999999981555,0.44950000000000045,0.4662999999998121,0.482400000000375,0.49129999999981067,0.5157000000001872,0.532799999999817,0.5495000000000019,0.566400000000371,0.5827999999998141,0.5995999999996258,0.6164000000003753,0.6315999999996293,0.6485999999996253,0.6654000000003748,0.6822000000001864,0.6985000000000028]",,3,0,3,0,1,,,,
,,D222027967,2024-05-23_10h23.00.375,GoFitts,2022.2.4,Win32,60.60606061,,,,,,,,,,,,,,,,,,"[133.82612127177168,-148.6289650954788]","[-161.80339887498945,117.55705045849464]",48,400,1,"[121.5999755859375,121.5999755859375,121.5999755859375,122.4000244140625,122.4000244140625,123.2000732421875,123.2000732421875,123.2000732421875,123.2000732421875,125.5999755859375,128.800048828125,128.800048828125,128.800048828125,128.800048828125,128.800048828125,128.800048828125,129.5999755859375,121.5999755859375,106.4000244140625,77.5999755859375,39.2000732421875,3.2000732421875,-21.5999755859375,-67.20001220703125,-87.20001220703125,-96.79998779296875,-100,-104,-111.20001220703125,-121.5999755859375,-130.39996337890625,-136.79998779296875,-140.79998779296875,-145.5999755859375,-148.79998779296875,-154.39996337890625,-158.39996337890625,-162.39996337890625]","[-128.79998779296875,-131.20001220703125,-132,-135.20001220703125,-135.20001220703125,-136,-136,-136,-136,-137.60003662109375,-140,-140,-140,-140,-140,-140,-138.4000244140625,-113.60003662109375,-81.60003662109375,-40,-4.79998779296875,21.5999755859375,45.5999755859375,76.79998779296875,86.39999389648438,88,88,88,88,88,88,87.19998168945312,87.19998168945312,87.19998168945312,87.19998168945312,88.79998779296875,91.19998168945312,96]","[0,0,0,0,0,0,0,0,0,0,0,0,0,0,0,0,0,0,0,0,0,0,0,0,0,0,0,0,0,0,0,0,0,0,0,0,0,0]","[0,0,0,0,0,0,0,0,0,0,0,0,0,0,0,0,0,0,0,0,0,0,0,0,0,0,0,0,0,0,0,0,0,0,0,0,0,0]","[0,0,0,0,0,0,0,0,0,0,0,0,0,0,0,0,0,0,0,0,0,0,0,0,0,0,0,0,0,0,0,0,0,0,0,0,0,0]","[0.000299999999811007,0.0167000000001849,0.033200000000185526,0.04999999999999716,0.06739999999943791,0.08439999999944092,0.1004999999999967,0.1090999999996285,0.13379999999981607,0.1427999999998093,0.16739999999943933,0.1839999999999975,0.2007000000001824,0.20920000000018746,0.2259999999999991,0.24289999999943745,0.259999999999998,0.28489999999943905,0.3000999999996239,0.31770000000018683,0.33359999999962753,0.3512999999998101,0.3668999999994398,0.3833999999994404,0.4000999999996253,0.41720000000018587,0.43439999999944234,0.45139999999943825,0.46809999999962315,0.4847000000001884,0.5015999999996268,0.5177999999998093,0.533399999999439,0.5507000000001838,0.5667999999998159,0.5837000000001851,0.6007000000001881,0.6174999999999997]",,4,0,4,0,1,,,,
,,D222027967,2024-05-23_10h23.00.375,GoFitts,2022.2.4,Win32,60.60606061,,,,,,,,,,,,,,,,,,"[-161.80339887498945,117.55705045849464]","[182.7090915285202,-81.34732861516002]",48,400,1,"[-162.39996337890625,-163.20001220703125,-165.5999755859375,-166.39996337890625,-167.20001220703125,-168,-168,-168,-168,-168,-168,-168,-168,-166.39996337890625,-161.5999755859375,-149.5999755859375,-139.20001220703125,-117.5999755859375,-90.39996337890625,-43.20001220703125,15.2000732421875,74.4000244140625,103.2000732421875,118.4000244140625,126.4000244140625,130.4000244140625,132.800048828125,135.2000732421875,138.4000244140625,139.2000732421875,141.5999755859375,146.4000244140625,154.4000244140625,157.5999755859375,160.800048828125,161.5999755859375,162.4000244140625,164,168]","[96,98.39999389648438,101.60000610351562,106.39999389648438,112,113.60000610351562,114.39999389648438,114.39999389648438,114.39999389648438,114.39999389648438,114.39999389648438,114.39999389648438,114.39999389648438,107.19998168945312,100.79998779296875,83.19998168945312,74.39999389648438,66.39999389648438,61.5999755859375,56,51.20001220703125,38.39996337890625,32,24,17.5999755859375,11.20001220703125,5.5999755859375,-3.20001220703125,-9.60003662109375,-13.60003662109375,-21.60003662109375,-32.79998779296875,-51.20001220703125,-60,-63.20001220703125,-63.20001220703125,-64.79998779296875,-65.60003662109375,-68.79998779296875]","[0,0,0,0,0,0,0,0,0,0,0,0,0,0,0,0,0,0,0,0,0,0,0,0,0,0,0,0,0,0,0,0,0,0,0,0,0,0,0]","[0,0,0,0,0,0,0,0,0,0,0,0,0,0,0,0,0,0,0,0,0,0,0,0,0,0,0,0,0,0,0,0,0,0,0,0,0,0,0]","[0,0,0,0,0,0,0,0,0,0,0,0,0,0,0,0,0,0,0,0,0,0,0,0,0,0,0,0,0,0,0,0,0,0,0,0,0,0,0]","[0.000700000000179557,0.018599999999622696,0.03209999999962321,0.04909999999962622,0.06579999999981112,0.08259999999962275,0.09909999999962338,0.11570000000018155,0.13270000000018456,0.14959999999962292,0.16639999999943456,0.1750999999996239,0.19200000000000017,0.21670000000018064,0.23339999999943473,0.25009999999962673,0.2667000000001849,0.28379999999980754,0.3007000000001838,0.31720000000018445,0.33359999999962753,0.3502000000001857,0.3668999999994398,0.3835999999996247,0.4003999999994363,0.41720000000018587,0.4337999999998132,0.4503999999994406,0.46749999999999403,0.48399999999999466,0.5007000000001796,0.5177000000001826,0.5338999999994414,0.5502999999998082,0.5672999999998112,0.5838999999994385,0.6005999999996234,0.6174999999999997,0.6337000000001822]",,5,0,5,0,1,,,,
,,D222027967,2024-05-23_10h23.00.375,GoFitts,2022.2.4,Win32,60.60606061,,,,,,,,,,,,,,,,,,"[182.7090915285202,-81.34732861516002]","[-195.62952014676114,41.58233816355186]",48,400,1,"[168,172.800048828125,177.5999755859375,180.800048828125,181.5999755859375,181.5999755859375,181.5999755859375,181.5999755859375,181.5999755859375,181.5999755859375,181.5999755859375,181.5999755859375,180.800048828125,166.4000244140625,138.4000244140625,84,5.5999755859375,-65.5999755859375,-125.5999755859375,-156.79998779296875,-168.79998779296875,-176,-180.79998779296875,-192,-202.39996337890625,-216,-228,-240.79998779296875,-248,-248.79998779296875,-248.79998779296875,-248.79998779296875,-248.79998779296875,-248.79998779296875,-248.79998779296875,-246.39996337890625,-231.20001220703125,-217.5999755859375,-212]","[-68.79998779296875,-72.79998779296875,-72.79998779296875,-75.20001220703125,-76,-76,-76,-76,-76,-76,-76,-76,-76,-61.60003662109375,-41.60003662109375,-5.60003662109375,31.20001220703125,54.39996337890625,71.19998168945312,72.79998779296875,73.60000610351562,73.60000610351562,73.60000610351562,73.60000610351562,73.60000610351562,73.60000610351562,73.60000610351562,74.39999389648438,76,76,76,76,76,76,76,75.19998168945312,64,52.79998779296875,48]","[0,0,0,0,0,0,0,0,0,0,0,0,0,0,0,0,0,0,0,0,0,0,0,0,0,0,0,0,0,0,0,0,0,0,0,0,0,0,0]","[0,0,0,0,0,0,0,0,0,0,0,0,0,0,0,0,0,0,0,0,0,0,0,0,0,0,0,0,0,0,0,0,0,0,0,0,0,0,0]","[0,0,0,0,0,0,0,0,0,0,0,0,0,0,0,0,0,0,0,0,0,0,0,0,0,0,0,0,0,0,0,0,0,0,0,0,0,0,0]","[0.0007999999998133944,0.015200000000184843,0.03170000000018547,0.048500000000004206,0.06489999999944018,0.08179999999981646,0.09100000000000108,0.10779999999981271,0.12470000000018899,0.14129999999981635,0.15800000000000125,0.1745999999996286,0.1917999999998159,0.2160999999996278,0.23189999999944177,0.249700000000189,0.2665000000000006,0.2832000000001855,0.29970000000018615,0.31609999999962923,0.3332000000001898,0.3497000000001904,0.36650000000000205,0.38320000000018695,0.39989999999944104,0.41659999999962594,0.4333999999994447,0.4500999999996296,0.46699999999999875,0.48339999999944183,0.49959999999963145,0.5162999999998164,0.52459999999963,0.5413999999994417,0.5662000000001868,0.5750999999996296,0.5998999999994439,0.6170999999996312,0.633499999999998]",,6,0,6,0,1,,,,
,,D222027967,2024-05-23_10h23.00.375,GoFitts,2022.2.4,Win32,60.60606061,,,,,,,,,,,,,,,,,,"[-195.62952014676114,41.58233816355186]","[200,0]",48,400,1,"[-212,-208.79998779296875,-208.79998779296875,-208.79998779296875,-208.79998779296875,-208.79998779296875,-206.39996337890625,-206.39996337890625,-206.39996337890625,-206.39996337890625,-206.39996337890625,-206.39996337890625,-206.39996337890625,-206.39996337890625,-206.39996337890625,-206.39996337890625,-206.39996337890625,-202.39996337890625,-179.20001220703125,-119.20001220703125,5.5999755859375,65.5999755859375,116.800048828125,138.4000244140625,148,148,148,148,148,148,148,148,151.2000732421875,154.4000244140625,156.800048828125,161.5999755859375,169.5999755859375,184.800048828125]","[48,48,48,48,48,48,47.20001220703125,47.20001220703125,47.20001220703125,47.20001220703125,47.20001220703125,47.20001220703125,47.20001220703125,47.20001220703125,47.20001220703125,47.20001220703125,47.20001220703125,47.20001220703125,47.20001220703125,47.20001220703125,47.20001220703125,47.20001220703125,40.79998779296875,34.39996337890625,30.39996337890625,29.5999755859375,29.5999755859375,29.5999755859375,29.5999755859375,29.5999755859375,28.79998779296875,24,19.20001220703125,16.79998779296875,15.20001220703125,9.5999755859375,0.79998779296875,-12.79998779296875]","[0,0,0,0,0,0,0,0,0,0,0,0,0,0,0,0,0,0,0,0,0,0,0,0,0,0,0,0,0,0,0,0,0,0,0,0,0,0]","[0,0,0,0,0,0,0,0,0,0,0,0,0,0,0,0,0,0,0,0,0,0,0,0,0,0,0,0,0,0,0,0,0,0,0,0,0,0]","[0,0,0,0,0,0,0,0,0,0,0,0,0,0,0,0,0,0,0,0,0,0,0,0,0,0,0,0,0,0,0,0,0,0,0,0,0,0]","[0.0010000000000047748,0.015999999999998238,0.03229999999981459,0.048900000000372756,0.061299999999818056,0.07420000000018945,0.09170000000018774,0.115299999999813,0.12410000000055987,0.1411000000005629,0.15770000000019024,0.17450000000000188,0.19120000000018678,0.2077000000001874,0.22429999999981476,0.24060000000056192,0.25740000000037355,0.2742000000001852,0.2942000000001883,0.3077000000001888,0.3329000000003717,0.3497000000001904,0.36629999999981777,0.38300000000000267,0.39970000000018757,0.41499999999999915,0.4316000000005573,0.4485000000000028,0.4652000000001877,0.4746000000005637,0.49150000000000205,0.5161000000005629,0.5331000000005588,0.5496000000005594,0.566400000000371,0.5829999999999984,0.5997000000001904,0.6164000000003753]",,7,0,7,0,1,,,,
,,D222027967,2024-05-23_10h23.00.375,GoFitts,2022.2.4,Win32,60.60606061,,,,,,,,,,,,,,,,,,"[200,0]","[-195.62952014676114,-41.58233816355181]",48,400,1,"[184.800048828125,197.5999755859375,208,215.2000732421875,215.2000732421875,215.2000732421875,215.2000732421875,215.2000732421875,216,217.5999755859375,217.5999755859375,217.5999755859375,217.5999755859375,217.5999755859375,217.5999755859375,217.5999755859375,217.5999755859375,205.5999755859375,167.2000732421875,137.5999755859375,113.5999755859375,89.5999755859375,61.5999755859375,36.800048828125,8.800048828125,-12,-31.20001220703125,-59.20001220703125,-75.20001220703125,-87.20001220703125,-96,-100.79998779296875,-104,-104,-105.5999755859375,-112,-119.20001220703125,-132,-146.39996337890625,-154.39996337890625,-159.20001220703125,-166.39996337890625,-179.20001220703125]","[-12.79998779296875,-18.4000244140625,-21.60003662109375,-21.60003662109375,-21.60003662109375,-21.60003662109375,-21.60003662109375,-21.60003662109375,-21.60003662109375,-19.20001220703125,-19.20001220703125,-19.20001220703125,-19.20001220703125,-19.20001220703125,-19.20001220703125,-19.20001220703125,-19.20001220703125,-17.60003662109375,-15.20001220703125,-15.20001220703125,-12.79998779296875,-11.20001220703125,-11.20001220703125,-11.20001220703125,-11.20001220703125,-11.20001220703125,-11.20001220703125,-11.20001220703125,-13.60003662109375,-20,-23.20001220703125,-24,-25.60003662109375,-25.60003662109375,-25.60003662109375,-26.4000244140625,-27.20001220703125,-28.79998779296875,-32,-32.79998779296875,-36,-36.79998779296875,-40]","[0,0,0,0,0,0,0,0,0,0,0,0,0,0,0,0,0,0,0,0,0,0,0,0,0,0,0,0,0,0,0,0,0,0,0,0,0,0,0,0,0,0,0]","[0,0,0,0,0,0,0,0,0,0,0,0,0,0,0,0,0,0,0,0,0,0,0,0,0,0,0,0,0,0,0,0,0,0,0,0,0,0,0,0,0,0,0]","[0,0,0,0,0,0,0,0,0,0,0,0,0,0,0,0,0,0,0,0,0,0,0,0,0,0,0,0,0,0,0,0,0,0,0,0,0,0,0,0,0,0,0]","[0.0009000000003709374,0.015999999999998238,0.03240000000037213,0.04940000000036804,0.06540000000036628,0.07799999999999585,0.09849999999999426,0.10760000000055925,0.12449999999999761,0.1487000000001828,0.1657000000001858,0.18249999999999744,0.1909999999999954,0.2079999999999984,0.2247000000001833,0.24129999999981067,0.25799999999999557,0.2751000000005561,0.2999000000003704,0.31610000000055294,0.3329999999999984,0.3497000000001833,0.3664000000003682,0.38320000000018695,0.3997999999998143,0.4162000000001811,0.4329000000003731,0.449600000000558,0.46640000000036963,0.48290000000037026,0.4997000000001819,0.5166000000005582,0.5332999999998123,0.549400000000368,0.5584999999999951,0.583400000000367,0.5999999999999943,0.6164999999999949,0.6329999999999956,0.6497999999998143,0.6664999999999992,0.6832999999998108,0.699900000000369]",,8,0,8,0,1,,,,
,,D222027967,2024-05-23_10h23.00.375,GoFitts,2022.2.4,Win32,60.60606061,,,,,,,,,,,,,,,,,,"[-195.62952014676114,-41.58233816355181]","[182.70909152852016,81.34732861516002]",48,400,1,"[-179.20001220703125,-193.5999755859375,-211.20001220703125,-222.39996337890625,-226.39996337890625,-226.39996337890625,-226.39996337890625,-226.39996337890625,-226.39996337890625,-226.39996337890625,-226.39996337890625,-226.39996337890625,-226.39996337890625,-227.20001220703125,-223.20001220703125,-208,-181.5999755859375,-153.5999755859375,-123.20001220703125,-48,-5.5999755859375,33.5999755859375,67.2000732421875,103.2000732421875,124,140.800048828125,147.2000732421875,148.800048828125,150.4000244140625,150.4000244140625,150.4000244140625,150.4000244140625,150.4000244140625,152,156.800048828125,161.5999755859375]","[-40,-40,-43.20001220703125,-44.79998779296875,-44.79998779296875,-44.79998779296875,-44.79998779296875,-44.79998779296875,-44.79998779296875,-44.79998779296875,-44.79998779296875,-44.79998779296875,-44.79998779296875,-45.60003662109375,-45.60003662109375,-45.60003662109375,-45.60003662109375,-45.60003662109375,-40,-21.60003662109375,-7.20001220703125,14.39996337890625,37.5999755859375,56,64,72,74.39999389648438,75.19998168945312,76,76,76,76,76,76,76,76]","[0,0,0,0,0,0,0,0,0,0,0,0,0,0,0,0,0,0,0,0,0,0,0,0,0,0,0,0,0,0,0,0,0,0,0,0]","[0,0,0,0,0,0,0,0,0,0,0,0,0,0,0,0,0,0,0,0,0,0,0,0,0,0,0,0,0,0,0,0,0,0,0,0]","[0,0,0,0,0,0,0,0,0,0,0,0,0,0,0,0,0,0,0,0,0,0,0,0,0,0,0,0,0,0,0,0,0,0,0,0]","[0.0009000000003709374,0.015900000000371506,0.032600000000556406,0.04960000000055942,0.06629999999981351,0.08260000000056067,0.09929999999981476,0.11160000000055703,0.13260000000055783,0.1490000000000009,0.1657000000001858,0.1824000000003707,0.19899999999999807,0.20829999999980942,0.2327999999998127,0.2494999999999976,0.2667000000001849,0.2832000000001855,0.2996000000005594,0.3149999999999977,0.33279999999981413,0.34949999999999903,0.3666000000005596,0.382299999999816,0.39960000000056084,0.41660000000055675,0.43329999999981084,0.449600000000558,0.46649999999999636,0.4827999999998127,0.49120000000018393,0.5079999999999956,0.5244000000003695,0.5414000000003725,0.5657000000001844,0.5827000000001874]",,9,0,9,0,1,,,,
,,D222027967,2024-05-23_10h23.00.375,GoFitts,2022.2.4,Win32,60.60606061,,,,,,,,,,,,,,,,,,"[182.70909152852016,81.34732861516002]","[-161.8033988749895,-117.5570504584946]",48,400,1,"[161.5999755859375,165.5999755859375,167.2000732421875,167.2000732421875,167.2000732421875,167.2000732421875,170.4000244140625,174.4000244140625,175.2000732421875,175.2000732421875,175.2000732421875,175.2000732421875,175.2000732421875,175.2000732421875,174.4000244140625,147.2000732421875,119.2000732421875,74.4000244140625,38.4000244140625,2.4000244140625,-55.20001220703125,-76,-96.79998779296875,-113.5999755859375,-120.79998779296875,-128.79998779296875,-133.5999755859375,-138.39996337890625,-143.20001220703125,-148.79998779296875,-152.79998779296875,-156,-158.39996337890625,-159.20001220703125,-159.20001220703125,-159.20001220703125]","[76,76,76,76,76,76,77.60000610351562,77.60000610351562,77.60000610351562,77.60000610351562,77.60000610351562,77.60000610351562,77.60000610351562,77.60000610351562,77.60000610351562,68.79998779296875,52,27.20001220703125,8.79998779296875,-7.20001220703125,-31.20001220703125,-42.4000244140625,-51.20001220703125,-56.79998779296875,-58.4000244140625,-61.60003662109375,-64.79998779296875,-67.20001220703125,-68,-72,-75.20001220703125,-80,-86.4000244140625,-87.20001220703125,-90.4000244140625,-94.4000244140625]","[0,0,0,0,0,0,0,0,0,0,0,0,0,0,0,0,0,0,0,0,0,0,0,0,0,0,0,0,0,0,0,0,0,0,0,0]","[0,0,0,0,0,0,0,0,0,0,0,0,0,0,0,0,0,0,0,0,0,0,0,0,0,0,0,0,0,0,0,0,0,0,0,0]","[0,0,0,0,0,0,0,0,0,0,0,0,0,0,0,0,0,0,0,0,0,0,0,0,0,0,0,0,0,0,0,0,0,0,0,0]","[0.0005999999996291194,0.016599999999627357,0.03359999999963037,0.04979999999981288,0.06639999999944024,0.07529999999981385,0.09900000000000375,0.11650000000000205,0.13329999999981368,0.1497999999998143,0.1583999999994461,0.17529999999981527,0.1920999999996269,0.2085000000000008,0.22509999999962815,0.245199999999258,0.26629999999981635,0.28329999999981226,0.300399999999442,0.31700000000000017,0.3325000000000031,0.3490999999996305,0.36599999999999966,0.3827999999998184,0.4002999999998167,0.4170999999996283,0.43409999999963134,0.45059999999963196,0.4671999999992593,0.4841999999992552,0.5005000000000024,0.5170999999996297,0.5338999999994414,0.5507999999998177,0.5672999999998183,0.5838999999994456]",,10,0,10,0,1,,,,
,,D222027967,2024-05-23_10h23.00.375,GoFitts,2022.2.4,Win32,60.60606061,,,,,,,,,,,,,,,,,,"[-161.8033988749895,-117.5570504584946]","[133.82612127177165,148.62896509547886]",48,400,1,"[-159.20001220703125,-159.20001220703125,-159.20001220703125,-159.20001220703125,-159.20001220703125,-159.20001220703125,-159.20001220703125,-159.20001220703125,-159.20001220703125,-159.20001220703125,-159.20001220703125,-159.20001220703125,-159.20001220703125,-159.20001220703125,-159.20001220703125,-155.20001220703125,-136,-118.39996337890625,-81.5999755859375,-32,23.2000732421875,41.5999755859375,52,74.4000244140625,82.4000244140625,88.800048828125,97.5999755859375,103.2000732421875,112,121.5999755859375]","[-94.4000244140625,-97.60003662109375,-100,-104.79998779296875,-107.20001220703125,-108,-108,-108,-108,-108,-108,-108,-108,-108,-108,-107.20001220703125,-79.20001220703125,-53.60003662109375,-10.4000244140625,46.39996337890625,100,112,117.60000610351562,126.39999389648438,129.60000610351562,131.19998168945312,134.39999389648438,136,136,138.39999389648438]","[0,0,0,0,0,0,0,0,0,0,0,0,0,0,0,0,0,0,0,0,0,0,0,0,0,0,0,0,0,0]","[0,0,0,0,0,0,0,0,0,0,0,0,0,0,0,0,0,0,0,0,0,0,0,0,0,0,0,0,0,0]","[0,0,0,0,0,0,0,0,0,0,0,0,0,0,0,0,0,0,0,0,0,0,0,0,0,0,0,0,0,0]","[0.0008999999994472319,0.016000000000005343,0.03289999999944371,0.04969999999925534,0.06629999999982061,0.08309999999963225,0.09950000000000614,0.11589999999944212,0.12439999999944718,0.14150000000000063,0.15819999999926182,0.17469999999925534,0.1915000000000049,0.20779999999981413,0.22459999999963287,0.24159999999962878,0.2661999999992588,0.28250000000000597,0.2990999999996333,0.31529999999981584,0.3318999999994432,0.34900000000000375,0.3665999999996288,0.3830999999996294,0.39989999999944814,0.4165000000000063,0.4331999999992604,0.44979999999981857,0.4667999999998145,0.4835999999996332]",,11,0,11,0,1,,,,
,,D222027967,2024-05-23_10h23.00.375,GoFitts,2022.2.4,Win32,60.60606061,,,,,,,,,,,,,,,,,,"[133.82612127177165,148.62896509547886]","[-100.00000000000009,-173.20508075688767]",48,400,1,"[121.5999755859375,129.5999755859375,132.800048828125,133.5999755859375,133.5999755859375,133.5999755859375,133.5999755859375,133.5999755859375,134.4000244140625,134.4000244140625,134.4000244140625,134.4000244140625,134.4000244140625,134.4000244140625,134.4000244140625,134.4000244140625,134.4000244140625,131.2000732421875,103.2000732421875,83.2000732421875,34.4000244140625,7.2000732421875,-21.5999755859375,-36,-43.20001220703125,-49.5999755859375,-54.39996337890625,-59.20001220703125,-64.79998779296875,-67.20001220703125,-72.79998779296875,-77.5999755859375,-83.20001220703125,-89.5999755859375,-95.20001220703125]","[138.39999389648438,140.79998779296875,143.19998168945312,144,144,144,144,144,144,144,144,144,144,144,144,144,144,137.60000610351562,102.39999389648438,76.79998779296875,12.79998779296875,-28,-66.4000244140625,-88,-97.60003662109375,-103.20001220703125,-108,-112,-116.79998779296875,-120.79998779296875,-124.79998779296875,-131.20001220703125,-139.20001220703125,-145.60003662109375,-152.79998779296875]","[0,0,0,0,0,0,0,0,0,0,0,0,0,0,0,0,0,0,0,0,0,0,0,0,0,0,0,0,0,0,0,0,0,0,0]","[0,0,0,0,0,0,0,0,0,0,0,0,0,0,0,0,0,0,0,0,0,0,0,0,0,0,0,0,0,0,0,0,0,0,0]","[0,0,0,0,0,0,0,0,0,0,0,0,0,0,0,0,0,0,0,0,0,0,0,0,0,0,0,0,0,0,0,0,0,0,0]","[0.0009000000003780428,0.015799999999813963,0.03229999999981459,0.04920000000019087,0.06550000000000011,0.07529999999981385,0.09870000000018564,0.10740000000037497,0.12470000000018899,0.14879999999981663,0.15740000000037213,0.17440000000037514,0.19790000000037367,0.2077000000001874,0.22449999999999903,0.2410999999996264,0.2577999999998184,0.2747999999998143,0.2992999999998176,0.3120000000000047,0.3329000000003717,0.34949999999999903,0.36620000000019104,0.38300000000000267,0.3997999999998143,0.4160000000000039,0.43170000000019115,0.4482000000001918,0.4650000000000034,0.48159999999963077,0.499400000000378,0.515200000000192,0.5319000000003768,0.5484000000003775,0.5650999999996316]",,12,0,12,0,1,,,,
,,D222027967,2024-05-23_10h23.00.375,GoFitts,2022.2.4,Win32,60.60606061,,,,,,,,,,,,,,,,,,"[-100.00000000000009,-173.20508075688767]","[61.80339887498949,190.2113032590307]",48,400,1,"[-95.20001220703125,-99.20001220703125,-104,-104,-104,-104,-104,-104,-104,-104,-104,-104,-104,-104,-104,-104,-104,-91.20001220703125,-73.5999755859375,-54.39996337890625,-40.79998779296875,-31.20001220703125,-19.20001220703125,-8,0,6.4000244140625,10.4000244140625,14.4000244140625,16.800048828125,16.800048828125,18.4000244140625,23.2000732421875,28,33.5999755859375,38.4000244140625,40.800048828125,44,44.800048828125,45.5999755859375,47.2000732421875,47.2000732421875,47.2000732421875]","[-152.79998779296875,-159.20001220703125,-164,-166.4000244140625,-170.4000244140625,-171.20001220703125,-171.20001220703125,-171.20001220703125,-171.20001220703125,-171.20001220703125,-171.20001220703125,-171.20001220703125,-171.20001220703125,-171.20001220703125,-171.20001220703125,-171.20001220703125,-171.20001220703125,-144,-113.60003662109375,-63.20001220703125,-11.20001220703125,28.79998779296875,63.20001220703125,83.19998168945312,98.39999389648438,105.60000610351562,112,114.39999389648438,115.19998168945312,115.19998168945312,116.79998779296875,120.79998779296875,124.79998779296875,128,132,139.19998168945312,148,153.60000610351562,158.39999389648438,164.79998779296875,169.60000610351562,172]","[0,0,0,0,0,0,0,0,0,0,0,0,0,0,0,0,0,0,0,0,0,0,0,0,0,0,0,0,0,0,0,0,0,0,0,0,0,0,0,0,0,0]","[0,0,0,0,0,0,0,0,0,0,0,0,0,0,0,0,0,0,0,0,0,0,0,0,0,0,0,0,0,0,0,0,0,0,0,0,0,0,0,0,0,0]","[0,0,0,0,0,0,0,0,0,0,0,0,0,0,0,0,0,0,0,0,0,0,0,0,0,0,0,0,0,0,0,0,0,0,0,0,0,0,0,0,0,0]","[0.0004000000003756554,0.0167000000001849,0.0334000000003698,0.049900000000370426,0.06710000000055771,0.0837999999998118,0.10070000000018808,0.1091000000005593,0.13379999999981607,0.1506000000005585,0.16720000000018587,0.18390000000037077,0.20060000000055567,0.21729999999981686,0.2341000000005593,0.2507999999998134,0.2672000000001873,0.2836000000005612,0.3001000000005618,0.31690000000037344,0.3335000000000008,0.35090000000037236,0.36790000000037537,0.38460000000056027,0.40129999999981436,0.41799999999999926,0.43440000000037315,0.45110000000055805,0.4676000000005587,0.48479999999981516,0.5012999999998158,0.5177999999998164,0.5347999999998123,0.5511000000005595,0.5679999999999978,0.5844999999999985,0.6017999999998125,0.6177999999998107,0.6347999999998137,0.65020000000019,0.6669000000003749,0.6839000000003708]",,13,0,13,0,1,,,,
,,D222027967,2024-05-23_10h23.00.375,GoFitts,2022.2.4,Win32,60.60606061,,,,,,,,,,,,,,,,,,"[61.80339887498949,190.2113032590307]","[-20.905692653530846,-198.90437907365467]",48,400,1,"[47.2000732421875,47.2000732421875,47.2000732421875,47.2000732421875,47.2000732421875,47.2000732421875,47.2000732421875,47.2000732421875,47.2000732421875,47.2000732421875,47.2000732421875,47.2000732421875,47.2000732421875,47.2000732421875,45.5999755859375,36,20,-0.79998779296875,-22.39996337890625,-39.20001220703125,-48,-50.39996337890625,-53.5999755859375,-53.5999755859375,-53.5999755859375,-53.5999755859375,-53.5999755859375,-55.20001220703125,-56.79998779296875,-56.79998779296875,-57.5999755859375,-57.5999755859375,-57.5999755859375,-57.5999755859375,-57.5999755859375,-57.5999755859375,-57.5999755859375,-56,-48,-38.39996337890625]","[172,173.60000610351562,174.39999389648438,174.39999389648438,174.39999389648438,174.39999389648438,174.39999389648438,174.39999389648438,174.39999389648438,174.39999389648438,174.39999389648438,174.39999389648438,174.39999389648438,175.19998168945312,157.60000610351562,124.79998779296875,72.79998779296875,4.79998779296875,-56,-100.79998779296875,-136,-160,-185.60003662109375,-194.4000244140625,-198.4000244140625,-203.20001220703125,-209.60003662109375,-216,-221.60003662109375,-223.20001220703125,-225.60003662109375,-225.60003662109375,-225.60003662109375,-225.60003662109375,-225.60003662109375,-225.60003662109375,-225.60003662109375,-220,-210.4000244140625,-202.4000244140625]","[0,0,0,0,0,0,0,0,0,0,0,0,0,0,0,0,0,0,0,0,0,0,0,0,0,0,0,0,0,0,0,0,0,0,0,0,0,0,0,0]","[0,0,0,0,0,0,0,0,0,0,0,0,0,0,0,0,0,0,0,0,0,0,0,0,0,0,0,0,0,0,0,0,0,0,0,0,0,0,0,0]","[0,0,0,0,0,0,0,0,0,0,0,0,0,0,0,0,0,0,0,0,0,0,0,0,0,0,0,0,0,0,0,0,0,0,0,0,0,0,0,0]","[0.000099999999626732,0.017499999999998295,0.034199999999252384,0.05059999999962628,0.06719999999925363,0.0764999999999958,0.09259999999962787,0.1093999999994395,0.1260999999996244,0.15039999999943632,0.15909999999962565,0.17579999999981055,0.19269999999924892,0.20969999999925193,0.2340999999996214,0.25099999999999767,0.2680999999996274,0.28439999999943666,0.3008999999994373,0.3178999999994403,0.33449999999999847,0.35089999999944155,0.36759999999962645,0.38429999999981135,0.4008999999994387,0.4175999999996236,0.4345999999996266,0.451199999999254,0.4676999999992546,0.48449999999999704,0.5011999999992511,0.517599999999625,0.5342999999998099,0.550699999999253,0.5676999999992489,0.5838999999994385,0.6006999999992502,0.616799999999813,0.6332999999998137,0.649899999999441]",,14,0,14,0,1,,,,
,,D222027967,2024-05-23_10h23.00.375,GoFitts,2022.2.4,Win32,60.60606061,,,,,,,,,,,,,,,,,,,,,,1,,,,,,,,,,,,,1,0,0,1
,,D222027967,2024-05-23_10h23.00.375,GoFitts,2022.2.4,Win32,60.60606061,,,,,,,,,,,,,,,,return,1.3405,"[-43.20001220703125,-113.60003662109375]","[-48.907380036690284,-10.395584540887953]",80,100,2,"[-43.20001220703125,-43.20001220703125,-43.20001220703125,-43.20001220703125,-43.20001220703125,-43.20001220703125,-43.20001220703125,-43.20001220703125,-43.20001220703125,-43.20001220703125,-43.20001220703125,-43.20001220703125,-43.20001220703125,-43.20001220703125,-43.20001220703125,-43.20001220703125,-43.20001220703125,-43.20001220703125,-43.20001220703125,-43.20001220703125,-43.20001220703125,-43.20001220703125,-43.20001220703125,-43.20001220703125,-43.20001220703125,-43.20001220703125,-43.20001220703125,-43.20001220703125,-49.5999755859375,-53.5999755859375,-64.79998779296875]","[-113.60003662109375,-113.60003662109375,-113.60003662109375,-113.60003662109375,-113.60003662109375,-113.60003662109375,-113.60003662109375,-113.60003662109375,-113.60003662109375,-113.60003662109375,-113.60003662109375,-113.60003662109375,-113.60003662109375,-113.60003662109375,-113.60003662109375,-113.60003662109375,-113.60003662109375,-113.60003662109375,-113.60003662109375,-113.60003662109375,-113.60003662109375,-113.60003662109375,-113.60003662109375,-112,-104.79998779296875,-100.79998779296875,-92,-82.4000244140625,-68,-53.60003662109375,-32]","[0,0,0,0,0,0,0,0,0,0,0,0,0,0,0,0,0,0,0,0,0,0,0,0,0,0,0,0,0,0,0]","[0,0,0,0,0,0,0,0,0,0,0,0,0,0,0,0,0,0,0,0,0,0,0,0,0,0,0,0,0,0,0]","[0,0,0,0,0,0,0,0,0,0,0,0,0,0,0,0,0,0,0,0,0,0,0,0,0,0,0,0,0,0,0]","[0.0008999999994401264,0.02369999999925909,0.032799999999816976,0.049500000000001876,0.06659999999963162,0.08289999999944087,0.09919999999925722,0.11619999999925312,0.14050000000000296,0.14959999999963003,0.16659999999962594,0.18339999999944467,0.19979999999981146,0.21669999999925693,0.23339999999944183,0.24989999999944246,0.26679999999981163,0.28359999999963037,0.2997999999998129,0.3160000000000025,0.3329999999999984,0.34949999999999903,0.3661999999992531,0.38379999999981607,0.4081999999992547,0.425099999999631,0.4417999999998159,0.45869999999925426,0.47539999999943916,0.4915999999996288,0.5083999999994404]",,0,0,0,0,1,,,,
,,D222027967,2024-05-23_10h23.00.375,GoFitts,2022.2.4,Win32,60.60606061,,,,,,,,,,,,,,,,,,"[-48.907380036690284,-10.395584540887953]","[45.67727288213004,20.336832153790006]",80,100,2,"[-64.79998779296875,-69.5999755859375,-72,-72.79998779296875,-73.5999755859375,-74.39996337890625,-74.39996337890625,-74.39996337890625,-75.20001220703125,-76,-76,-76,-76,-76,-76,-76,-76,-76,-76,-76,-76,-76,-76,-73.5999755859375,-48.79998779296875,-19.20001220703125,8]","[-32,-21.60003662109375,-15.20001220703125,-9.60003662109375,-4,0.79998779296875,3.20001220703125,3.20001220703125,6.39996337890625,10.39996337890625,11.20001220703125,11.20001220703125,11.20001220703125,11.20001220703125,11.20001220703125,11.20001220703125,11.20001220703125,11.20001220703125,11.20001220703125,11.20001220703125,11.20001220703125,11.20001220703125,11.20001220703125,12.79998779296875,12.79998779296875,15.20001220703125,19.20001220703125]","[0,0,0,0,0,0,0,0,0,0,0,0,0,0,0,0,0,0,0,0,0,0,0,0,0,0,0]","[0,0,0,0,0,0,0,0,0,0,0,0,0,0,0,0,0,0,0,0,0,0,0,0,0,0,0]","[0,0,0,0,0,0,0,0,0,0,0,0,0,0,0,0,0,0,0,0,0,0,0,0,0,0,0]","[0.0010000000000047748,0.01570000000018723,0.03260000000056351,0.049400000000375144,0.0657000000001915,0.08250000000000313,0.09930000000074557,0.11540000000037764,0.12410000000055987,0.1484000000003718,0.1654000000003748,0.18230000000074398,0.19920000000018945,0.20760000000056067,0.23180000000074585,0.24070000000018865,0.2575000000000003,0.27430000000074983,0.29110000000056147,0.30780000000074637,0.32470000000019184,0.34130000000075,0.35780000000075063,0.37490000000037327,0.39910000000055845,0.41610000000056147,0.4331000000005645]",,1,0,1,0,1,,,,
,,D222027967,2024-05-23_10h23.00.375,GoFitts,2022.2.4,Win32,60.60606061,,,,,,,,,,,,,,,,,,"[45.67727288213004,20.336832153790006]","[-40.45084971874738,-29.38926261462365]",80,100,2,"[8,28,40,47.2000732421875,47.2000732421875,47.2000732421875,47.2000732421875,47.2000732421875,47.2000732421875,47.2000732421875,47.2000732421875,47.2000732421875,47.2000732421875,47.2000732421875,47.2000732421875,47.2000732421875,46.4000244140625,36.800048828125,27.2000732421875,-4.79998779296875,-26.39996337890625]","[19.20001220703125,20,20.79998779296875,20.79998779296875,20.79998779296875,20.79998779296875,20.79998779296875,20.79998779296875,20.79998779296875,20.79998779296875,20.79998779296875,20.79998779296875,20.79998779296875,20.79998779296875,20.79998779296875,20.79998779296875,20.79998779296875,18.39996337890625,16,-1.60003662109375,-14.4000244140625]","[0,0,0,0,0,0,0,0,0,0,0,0,0,0,0,0,0,0,0,0,0]","[0,0,0,0,0,0,0,0,0,0,0,0,0,0,0,0,0,0,0,0,0]","[0,0,0,0,0,0,0,0,0,0,0,0,0,0,0,0,0,0,0,0,0]","[0.0008999999994472319,0.01569999999925642,0.0325999999996327,0.04939999999944433,0.06559999999963395,0.08250000000000313,0.09879999999981948,0.11550000000000438,0.13219999999925847,0.14879999999981663,0.16519999999925972,0.1820999999996289,0.19869999999925625,0.21559999999963253,0.23229999999981743,0.24879999999981806,0.26629999999981635,0.28269999999925943,0.29129999999981493,0.3162999999998206,0.33289999999944797]",,2,0,2,0,1,,,,
,,D222027967,2024-05-23_10h23.00.375,GoFitts,2022.2.4,Win32,60.60606061,,,,,,,,,,,,,,,,,,"[-40.45084971874738,-29.38926261462365]","[33.456530317942914,37.157241273869715]",80,100,2,"[-26.39996337890625,-43.20001220703125,-54.39996337890625,-56,-56,-56,-56,-56,-56,-56,-56,-56,-56,-56,-56,-56,-56,-56,-55.20001220703125,-30.39996337890625,-6.39996337890625,17.5999755859375]","[-14.4000244140625,-24.79998779296875,-32.79998779296875,-34.4000244140625,-34.4000244140625,-34.4000244140625,-34.4000244140625,-34.4000244140625,-34.4000244140625,-34.4000244140625,-34.4000244140625,-34.4000244140625,-34.4000244140625,-34.4000244140625,-34.4000244140625,-34.4000244140625,-34.4000244140625,-34.4000244140625,-32.79998779296875,-14.4000244140625,0,12.79998779296875]","[0,0,0,0,0,0,0,0,0,0,0,0,0,0,0,0,0,0,0,0,0,0]","[0,0,0,0,0,0,0,0,0,0,0,0,0,0,0,0,0,0,0,0,0,0]","[0,0,0,0,0,0,0,0,0,0,0,0,0,0,0,0,0,0,0,0,0,0]","[0.0007999999998133944,0.015899999999440695,0.03250000000000597,0.049500000000001876,0.06569999999926068,0.07500000000000284,0.09869999999925483,0.10759999999962844,0.12450000000000472,0.14129999999981635,0.15769999999925943,0.1745999999996286,0.1912999999998135,0.20809999999963225,0.22459999999963287,0.2413999999994445,0.25800000000000267,0.27469999999925676,0.2916999999992598,0.31619999999925597,0.3330000000000055,0.34959999999963287]",,3,0,3,0,1,,,,
,,D222027967,2024-05-23_10h23.00.375,GoFitts,2022.2.4,Win32,60.60606061,,,,,,,,,,,,,,,,,,"[33.456530317942914,37.157241273869715]","[-25.00000000000002,-43.30127018922192]",80,100,2,"[17.5999755859375,31.2000732421875,39.2000732421875,39.2000732421875,39.2000732421875,39.2000732421875,39.2000732421875,39.2000732421875,39.2000732421875,39.2000732421875,39.2000732421875,39.2000732421875,39.2000732421875,39.2000732421875,39.2000732421875,39.2000732421875,39.2000732421875,39.2000732421875,37.5999755859375,29.5999755859375,24,17.5999755859375,12,6.4000244140625]","[12.79998779296875,21.5999755859375,25.5999755859375,26.39996337890625,26.39996337890625,26.39996337890625,26.39996337890625,26.39996337890625,26.39996337890625,26.39996337890625,26.39996337890625,26.39996337890625,26.39996337890625,26.39996337890625,26.39996337890625,26.39996337890625,26.39996337890625,26.39996337890625,22.39996337890625,16,11.20001220703125,4,-10.4000244140625,-25.60003662109375]","[0,0,0,0,0,0,0,0,0,0,0,0,0,0,0,0,0,0,0,0,0,0,0,0]","[0,0,0,0,0,0,0,0,0,0,0,0,0,0,0,0,0,0,0,0,0,0,0,0]","[0,0,0,0,0,0,0,0,0,0,0,0,0,0,0,0,0,0,0,0,0,0,0,0]","[0.0010999999996244014,0.016200000000182513,0.032599999999625595,0.04939999999943723,0.06579999999981112,0.08249999999999602,0.09899999999999665,0.1074999999999946,0.12449999999999761,0.1412000000001825,0.15770000000018314,0.1745999999996215,0.1912999999998135,0.20789999999944087,0.22429999999980765,0.24129999999981067,0.25799999999999557,0.27470000000018047,0.29159999999962594,0.3164999999999978,0.3329999999999984,0.3497000000001833,0.3663999999994374,0.3822999999998089]",,4,0,4,0,1,,,,
,,D222027967,2024-05-23_10h23.00.375,GoFitts,2022.2.4,Win32,60.60606061,,,,,,,,,,,,,,,,,,"[-25.00000000000002,-43.30127018922192]","[15.450849718747373,47.552825814757675]",80,100,2,"[6.4000244140625,2.4000244140625,0.800048828125,0,0,0,0,0,0,0,0,0,0,0,0,0,0,0,1.5999755859375,5.5999755859375,7.2000732421875,10.4000244140625,10.4000244140625]","[-25.60003662109375,-38.4000244140625,-45.60003662109375,-50.4000244140625,-52,-52,-52,-52,-52,-52,-52,-52,-52,-52,-52,-52,-52,-52,-32,-17.60003662109375,-8.79998779296875,0,8]","[0,0,0,0,0,0,0,0,0,0,0,0,0,0,0,0,0,0,0,0,0,0,0]","[0,0,0,0,0,0,0,0,0,0,0,0,0,0,0,0,0,0,0,0,0,0,0]","[0,0,0,0,0,0,0,0,0,0,0,0,0,0,0,0,0,0,0,0,0,0,0]","[0.0003000000007489234,0.01620000000018962,0.033200000000185526,0.04960000000055942,0.061700000000186606,0.08290000000037168,0.09170000000018774,0.11620000000019104,0.12510000000056465,0.15010000000056323,0.16680000000074813,0.18330000000074875,0.1923000000007491,0.20920000000018746,0.22570000000018808,0.24249999999999972,0.25930000000074926,0.27550000000000097,0.30049999999999955,0.31700000000000017,0.33420000000018746,0.35090000000037236,0.3674999999999997]",,5,0,5,0,1,,,,
,,D222027967,2024-05-23_10h23.00.375,GoFitts,2022.2.4,Win32,60.60606061,,,,,,,,,,,,,,,,,,"[15.450849718747373,47.552825814757675]","[-5.226423163382711,-49.72609476841367]",80,100,2,"[10.4000244140625,10.4000244140625,10.4000244140625,10.4000244140625,10.4000244140625,10.4000244140625,10.4000244140625,10.4000244140625,10.4000244140625,10.4000244140625,10.4000244140625,10.4000244140625,10.4000244140625,10.4000244140625,10.4000244140625,10.4000244140625,10.4000244140625,10.4000244140625,10.4000244140625,9.5999755859375,6.4000244140625]","[8,11.20001220703125,11.20001220703125,12.79998779296875,12.79998779296875,12.79998779296875,12.79998779296875,12.79998779296875,12.79998779296875,12.79998779296875,12.79998779296875,12.79998779296875,12.79998779296875,12.79998779296875,12.79998779296875,12.79998779296875,12.79998779296875,12.79998779296875,12.79998779296875,2.39996337890625,-20]","[0,0,0,0,0,0,0,0,0,0,0,0,0,0,0,0,0,0,0,0,0]","[0,0,0,0,0,0,0,0,0,0,0,0,0,0,0,0,0,0,0,0,0]","[0,0,0,0,0,0,0,0,0,0,0,0,0,0,0,0,0,0,0,0,0]","[0.0010000000000047748,0.015500000000002956,0.03170000000018547,0.04939999999944433,0.06589999999944496,0.08159999999963219,0.09839999999944382,0.10729999999981743,0.12400000000000233,0.14120000000018962,0.15800000000000125,0.17470000000018615,0.1915000000000049,0.20809999999963225,0.22479999999981715,0.24099999999999966,0.257599999999627,0.27439999999944575,0.2907000000001858,0.3077000000001888,0.33209999999962747]",,6,0,6,0,1,,,,
,,D222027967,2024-05-23_10h23.00.375,GoFitts,2022.2.4,Win32,60.60606061,,,,,,,,,,,,,,,,,,"[-5.226423163382711,-49.72609476841367]","[-5.226423163382667,49.72609476841367]",80,100,2,"[6.4000244140625,6.4000244140625,6.4000244140625,6.4000244140625,6.4000244140625,6.4000244140625,6.4000244140625,6.4000244140625,6.4000244140625,6.4000244140625,6.4000244140625,6.4000244140625,6.4000244140625,6.4000244140625,6.4000244140625,6.4000244140625,6.4000244140625,6.4000244140625,6.4000244140625,6.4000244140625,4,1.5999755859375,0,-0.79998779296875,-0.79998779296875,-0.79998779296875]","[-20,-34.4000244140625,-46.4000244140625,-51.20001220703125,-52.79998779296875,-54.4000244140625,-54.4000244140625,-54.4000244140625,-54.4000244140625,-54.4000244140625,-54.4000244140625,-54.4000244140625,-54.4000244140625,-54.4000244140625,-54.4000244140625,-54.4000244140625,-54.4000244140625,-54.4000244140625,-54.4000244140625,-49.60003662109375,-35.20001220703125,-17.60003662109375,-3.20001220703125,4,8,10.39996337890625]","[0,0,0,0,0,0,0,0,0,0,0,0,0,0,0,0,0,0,0,0,0,0,0,0,0,0]","[0,0,0,0,0,0,0,0,0,0,0,0,0,0,0,0,0,0,0,0,0,0,0,0,0,0]","[0,0,0,0,0,0,0,0,0,0,0,0,0,0,0,0,0,0,0,0,0,0,0,0,0,0]","[0.000300000000741818,0.016800000000742443,0.03349999999999653,0.049800000000743694,0.06730000000074199,0.08399999999999608,0.10030000000074324,0.10890000000036792,0.13370000000018223,0.1503000000007404,0.16690000000036775,0.17549999999999955,0.192600000000553,0.20899999999999608,0.2259999999999991,0.24230000000073915,0.2592000000001846,0.27599999999999625,0.29270000000018115,0.3094999999999999,0.33390000000036935,0.3508000000007456,0.367400000000373,0.38430000000074926,0.4009000000003766,0.41770000000018115]",,7,0,7,0,1,,,,
,,D222027967,2024-05-23_10h23.00.375,GoFitts,2022.2.4,Win32,60.60606061,,,,,,,,,,,,,,,,,,"[-5.226423163382667,49.72609476841367]","[15.450849718747362,-47.55282581475768]",80,100,2,"[-0.79998779296875,-0.79998779296875,-0.79998779296875,-0.79998779296875,-0.79998779296875,-0.79998779296875,-0.79998779296875,-0.79998779296875,-0.79998779296875,-0.79998779296875,-0.79998779296875,-0.79998779296875,-0.79998779296875,-0.79998779296875,-0.79998779296875,-0.79998779296875,-0.79998779296875,-0.79998779296875,-0.79998779296875,0]","[10.39996337890625,11.20001220703125,11.20001220703125,11.20001220703125,11.20001220703125,11.20001220703125,11.20001220703125,11.20001220703125,11.20001220703125,11.20001220703125,11.20001220703125,11.20001220703125,11.20001220703125,11.20001220703125,11.20001220703125,11.20001220703125,11.20001220703125,5.5999755859375,-10.4000244140625,-25.60003662109375]","[0,0,0,0,0,0,0,0,0,0,0,0,0,0,0,0,0,0,0,0]","[0,0,0,0,0,0,0,0,0,0,0,0,0,0,0,0,0,0,0,0]","[0,0,0,0,0,0,0,0,0,0,0,0,0,0,0,0,0,0,0,0]","[0.0008999999994472319,0.016199999999258807,0.03249999999999886,0.040699999999262104,0.05789999999944939,0.08129999999981408,0.09089999999943643,0.11579999999980828,0.1241999999992629,0.1411999999992588,0.15800000000000125,0.1745999999996286,0.19119999999925597,0.2079999999999984,0.22479999999981715,0.2413999999994445,0.25799999999999557,0.28300000000000125,0.2992999999998176,0.3160000000000025]",,8,0,8,0,1,,,,
,,D222027967,2024-05-23_10h23.00.375,GoFitts,2022.2.4,Win32,60.60606061,,,,,,,,,,,,,,,,,,"[15.450849718747362,-47.55282581475768]","[-24.99999999999999,43.30127018922194]",80,100,2,"[0,7.2000732421875,11.2000732421875,12.800048828125,14.4000244140625,14.4000244140625,14.4000244140625,14.4000244140625,14.4000244140625,14.4000244140625,14.4000244140625,14.4000244140625,14.4000244140625,14.4000244140625,14.4000244140625,14.4000244140625,14.4000244140625,14.4000244140625,12,8,1.5999755859375,-1.5999755859375,-6.39996337890625]","[-25.60003662109375,-45.60003662109375,-52.79998779296875,-54.4000244140625,-56,-56,-56,-56,-56,-56,-56,-56,-56,-56,-56,-56,-56,-53.60003662109375,-40.79998779296875,-26.4000244140625,-15.20001220703125,-2.4000244140625,8]","[0,0,0,0,0,0,0,0,0,0,0,0,0,0,0,0,0,0,0,0,0,0,0]","[0,0,0,0,0,0,0,0,0,0,0,0,0,0,0,0,0,0,0,0,0,0,0]","[0,0,0,0,0,0,0,0,0,0,0,0,0,0,0,0,0,0,0,0,0,0,0]","[0.0008000000007371,0.016100000000562886,0.03280000000074779,0.049400000000375144,0.0660000000000025,0.08249999999999602,0.09099999999999397,0.10810000000056164,0.12490000000036616,0.14149999999999352,0.15820000000017842,0.1748000000007437,0.19149999999999068,0.20830000000074733,0.2247000000001833,0.2408000000007462,0.25790000000037594,0.2742000000001781,0.2988000000007389,0.3163000000007372,0.33330000000074733,0.35030000000074324,0.3666000000005596]",,9,0,9,0,1,,,,
,,D222027967,2024-05-23_10h23.00.375,GoFitts,2022.2.4,Win32,60.60606061,,,,,,,,,,,,,,,,,,"[-24.99999999999999,43.30127018922194]","[33.45653031794292,-37.1572412738697]",80,100,2,"[-6.39996337890625,-8,-8.79998779296875,-8.79998779296875,-8.79998779296875,-8.79998779296875,-8.79998779296875,-8.79998779296875,-8.79998779296875,-8.79998779296875,-8.79998779296875,-8.79998779296875,-8.79998779296875,-8.79998779296875,-8.79998779296875,-8.79998779296875,-8.79998779296875,-8.79998779296875,-2.39996337890625,9.5999755859375]","[8,16,17.5999755859375,17.5999755859375,17.5999755859375,17.5999755859375,17.5999755859375,17.5999755859375,17.5999755859375,17.5999755859375,17.5999755859375,17.5999755859375,17.5999755859375,17.5999755859375,17.5999755859375,17.5999755859375,17.5999755859375,17.5999755859375,6.39996337890625,-8]","[0,0,0,0,0,0,0,0,0,0,0,0,0,0,0,0,0,0,0,0]","[0,0,0,0,0,0,0,0,0,0,0,0,0,0,0,0,0,0,0,0]","[0,0,0,0,0,0,0,0,0,0,0,0,0,0,0,0,0,0,0,0]","[0.0009000000003709374,0.01850000000000307,0.03249999999999886,0.04910000000056414,0.0657000000001915,0.0824000000003764,0.0907999999998168,0.10760000000055925,0.12460000000055516,0.1412000000001825,0.15749999999999886,0.1782999999998225,0.19899999999999807,0.21560000000056334,0.23240000000036787,0.24900000000000944,0.2656000000005605,0.27440000000036946,0.29940000000037514,0.3160000000000025]",,10,0,10,0,1,,,,
