key_resp_4.keys,key_resp_4.rt,cid,date,expName,psychopyVersion,OS,frameRate,mouse_2.x,mouse_2.y,mouse_2.leftButton,mouse_2.midButton,mouse_2.rightButton,mouse_2.time,cont.keys,cont.rt,retry_testing.thisRepN,retry_testing.thisTrialN,retry_testing.thisN,retry_testing.thisIndex,retry_testing.ran,key_resp.keys,key_resp.rt,key_resp_3.keys,key_resp_3.rt,from,to,w,a,sequence_loop.thisN,mouse.x,mouse.y,mouse.leftButton,mouse.midButton,mouse.rightButton,mouse.time,key_resp_2.keys,trial_loop.thisRepN,trial_loop.thisTrialN,trial_loop.thisN,trial_loop.thisIndex,trial_loop.ran,sequence_loop.thisRepN,sequence_loop.thisTrialN,sequence_loop.thisIndex,sequence_loop.ran
return,1.3402,A000000000,2022-11-28_21h07.16.645,GoFitts,2022.2.4,Win32,74.51009612,,,,,,,,,,,,,,,,,,,,,,,,,,,,,,,,,,,,,,
,,A000000000,2022-11-28_21h07.16.645,GoFitts,2022.2.4,Win32,74.51009612,"[269,268,268,268,268,268,268,268,268,268,268,268,268,267,266,263,260,257,249,242,235,225,216,206,197,187,177,165,155,147,138,133,131,131,135,153,173,205,229,246,256,260,261,262,264,268,275,284,295,306,314,322,330,337,341,345,350,355,359,362,362,362,362,362,360,356,340,316,280,223,147,55,-45,-123,-187,-220,-235,-236,-230,-215,-190,-166,-133,-93,-58,-28,-10,13,22,26,27,28,28,29,28,27,22,17,12,8,4,2,0,0,-1,-2,-2,-3,-3,-3,-2,-2,-2,-2,-2,-2,-2,-2,-2,-2,-2,-2,-2,-2,-2,-2,-2,-2,-2,-2,-2,-2,-2,-2,-2,-2,-2,-2,-2,-2,-2,-2,-2,-2,-5,-10,-20,-30,-41,-59,-84,-111,-145,-175,-211,-244,-277,-303,-328,-346,-357,-363,-366,-368,-368,-369,-369,-372,-378,-381,-385,-388,-389,-389,-389,-389,-389,-384,-371,-345,-308,-260,-217,-180,-143,-113,-86,-75,-70,-68,-67,-66,-66,-65,-64,-62,-60,-56,-52,-50,-45,-40,-34,-28,-22,-17,-14,-10,-7,-6]","[-5,-4,-4,-4,-4,-4,-4,-4,-4,-4,-4,-4,-4,-4,-4,-4,-5,-5,-1,3,7,11,15,17,19,20,21,23,25,27,27,28,28,28,26,19,12,2,-6,-11,-14,-15,-15,-15,-13,-11,-8,-6,-4,-3,-2,-1,-1,-1,-1,-1,-1,0,1,1,1,1,1,1,1,1,1,1,1,-1,-4,-7,-9,-9,-2,4,13,21,35,51,72,90,116,145,172,197,215,238,250,257,263,267,271,274,279,281,287,291,295,297,302,307,312,317,323,329,333,339,342,345,347,348,348,348,348,348,348,348,348,348,348,348,348,348,348,348,348,348,348,348,348,348,348,348,348,348,348,348,348,348,348,348,348,348,341,330,310,284,248,203,161,124,95,74,55,42,30,22,15,10,7,6,5,5,5,4,4,3,1,1,0,-2,-2,-2,-2,-2,-2,-3,-7,-17,-35,-61,-90,-119,-155,-188,-220,-235,-243,-247,-250,-251,-252,-253,-255,-259,-261,-266,-272,-277,-283,-291,-299,-306,-312,-317,-321,-326,-330,-334]","[0,0,0,0,0,0,0,0,0,0,0,0,0,0,0,0,0,0,0,0,0,0,0,0,0,0,0,0,0,0,0,0,0,0,0,0,0,0,0,0,0,0,0,0,0,0,0,0,0,0,0,0,0,0,0,0,0,0,0,0,0,0,0,0,0,0,0,0,0,0,0,0,0,0,0,0,0,0,0,0,0,0,0,0,0,0,0,0,0,0,0,0,0,0,0,0,0,0,0,0,0,0,0,0,0,0,0,0,0,0,0,0,0,0,0,0,0,0,0,0,0,0,0,0,0,0,0,0,0,0,0,0,0,0,0,0,0,0,0,0,0,0,0,0,0,0,0,0,0,0,0,0,0,0,0,0,0,0,0,0,0,0,0,0,0,0,0,0,0,0,0,0,0,0,0,0,0,0,0,0,0,0,0,0,0,0,0,0,0,0,0,0,0,0,0,0,0,0,0,0,0,0,0,0,0,0,0,0,0,0]","[0,0,0,0,0,0,0,0,0,0,0,0,0,0,0,0,0,0,0,0,0,0,0,0,0,0,0,0,0,0,0,0,0,0,0,0,0,0,0,0,0,0,0,0,0,0,0,0,0,0,0,0,0,0,0,0,0,0,0,0,0,0,0,0,0,0,0,0,0,0,0,0,0,0,0,0,0,0,0,0,0,0,0,0,0,0,0,0,0,0,0,0,0,0,0,0,0,0,0,0,0,0,0,0,0,0,0,0,0,0,0,0,0,0,0,0,0,0,0,0,0,0,0,0,0,0,0,0,0,0,0,0,0,0,0,0,0,0,0,0,0,0,0,0,0,0,0,0,0,0,0,0,0,0,0,0,0,0,0,0,0,0,0,0,0,0,0,0,0,0,0,0,0,0,0,0,0,0,0,0,0,0,0,0,0,0,0,0,0,0,0,0,0,0,0,0,0,0,0,0,0,0,0,0,0,0,0,0,0,0]","[0,0,0,0,0,0,0,0,0,0,0,0,0,0,0,0,0,0,0,0,0,0,0,0,0,0,0,0,0,0,0,0,0,0,0,0,0,0,0,0,0,0,0,0,0,0,0,0,0,0,0,0,0,0,0,0,0,0,0,0,0,0,0,0,0,0,0,0,0,0,0,0,0,0,0,0,0,0,0,0,0,0,0,0,0,0,0,0,0,0,0,0,0,0,0,0,0,0,0,0,0,0,0,0,0,0,0,0,0,0,0,0,0,0,0,0,0,0,0,0,0,0,0,0,0,0,0,0,0,0,0,0,0,0,0,0,0,0,0,0,0,0,0,0,0,0,0,0,0,0,0,0,0,0,0,0,0,0,0,0,0,0,0,0,0,0,0,0,0,0,0,0,0,0,0,0,0,0,0,0,0,0,0,0,0,0,0,0,0,0,0,0,0,0,0,0,0,0,0,0,0,0,0,0,0,0,0,0,0,0]","[0.0013000000119216537,0.01970000001788108,0.03290000000596116,0.04600000000000115,0.059499999999999886,0.0696000000238417,0.08300000000000018,0.09940000000596072,0.10980000001192103,0.12310000002384136,0.13960000002384199,0.15280000001192207,0.1663000000119208,0.1796000000238429,0.1898000000119211,0.20620000001788164,0.21930000001192163,0.2294000000059615,0.24610000002384247,0.2593000000119208,0.2727000000178812,0.2861000000238416,0.2993000000119217,0.31260000002384203,0.3258000000119221,0.33930000001192084,0.35260000002384295,0.36599999999999966,0.3792000000178817,0.3926000000238421,0.4058000000119204,0.4195000000000011,0.4297000000178812,0.44599999999999973,0.45640000000596004,0.4728000000119206,0.48590000000596056,0.4994000000059611,0.5126000000238413,0.5259999999999998,0.5391000000238417,0.5525000000000002,0.5662000000178811,0.5794000000059611,0.5926000000238414,0.6059000000059616,0.6194000000059603,0.6328000000119207,0.6461000000238428,0.6596000000238416,0.6727000000178815,0.6859999999999999,0.699300000011922,0.7125000000000004,0.7266000000238417,0.7394999999999996,0.7526000000238415,0.7662000000178821,0.780600000023842,0.7928000000119209,0.8064000000059615,0.8201000000238423,0.8330000000000002,0.8442000000178815,0.8595000000000006,0.8697000000178825,0.8859000000059609,0.8993000000119213,0.9124000000059613,0.9259000000059601,0.9392000000178822,0.9526000000238426,0.9660000000000011,0.9792000000178813,0.9926000000238417,1.0059000000059601,1.0193000000119206,1.032700000017881,1.045900000005961,1.0593000000119215,1.072800000011922,1.0859000000059602,1.0993000000119206,1.112700000017881,1.1259999999999994,1.1393000000119216,1.1494999999999997,1.1660000000000004,1.1792000000178824,1.1925000000000008,1.2059999999999995,1.2193000000119216,1.2328000000119204,1.2459000000059604,1.2593000000119208,1.2695000000000007,1.2859000000059613,1.2995,1.3127000000178821,1.3230000000000004,1.339500000000001,1.3527000000178813,1.3659999999999997,1.3791000000238416,1.3927000000178822,1.406200000017881,1.4162000000178825,1.433300000011922,1.4461000000238418,1.4569000000059606,1.4737000000178817,1.486300000011921,1.5,1.5128000000119215,1.5261000000238418,1.5396000000238423,1.5527000000178823,1.5630000000000006,1.5794999999999995,1.589500000000001,1.6029000000059614,1.619300000011922,1.6328000000119207,1.6429000000059606,1.6594000000059612,1.6726000000238415,1.6828000000119214,1.699300000011922,1.7095000000000002,1.726100000023843,1.7364000000059612,1.7498000000119216,1.7663000000119204,1.776300000011922,1.7924000000059603,1.8063000000119214,1.8194000000059614,1.8297000000178816,1.8456000000238415,1.8595000000000006,1.872900000005961,1.8862000000178814,1.8962000000178811,1.9128000000119219,1.9260000000000002,1.9396000000238427,1.952800000011921,1.9661000000238413,1.9792000000178813,1.9927000000178818,2.0060000000000002,2.0194000000059606,2.032800000011921,2.045800000011921,2.0592000000178814,2.0724000000059615,2.08590000000596,2.0991000000238422,2.1126000000238427,2.1259999999999994,2.1400000000000006,2.152600000023842,2.163600000023843,2.1806000000238424,2.1935000000000002,2.2070000000000007,2.21940000000596,2.2330000000000005,2.2526000000238415,2.259500000000001,2.272600000023843,2.2859999999999996,2.29940000000596,2.309600000023842,2.325800000011922,2.336400000005961,2.349700000017881,2.3662000000178818,2.379600000023842,2.3928000000119205,2.4059000000059605,2.419300000011921,2.432500000000001,2.4429000000059613,2.4562000000178816,2.469600000023842,2.4859000000059606,2.5009999999999994,2.513900000005961,2.527700000017882,2.542200000017882,2.5527000000178823,2.567600000023843,2.5797000000178816,2.593900000005961,2.6074000000059616,2.61640000000596,2.6327000000178824,2.647500000000001,2.6602000000178823,2.6727000000178815,2.68740000000596,2.7002000000178814,2.713600000023842,2.7273000000119207,2.7403000000119206,2.7524999999999995,2.766,2.780600000023842,2.7940000000000005]",return,0.494,0,0,0,0,1,,,,,,,,,,,,,,,,,,,,,,,,,
,,A000000000,2022-11-28_21h07.16.645,GoFitts,2022.2.4,Win32,74.51009612,,,,,,,,,,,,,,return,0.4664,,,,,,,,,,,,,,,,,,,,,,,
,,A000000000,2022-11-28_21h07.16.645,GoFitts,2022.2.4,Win32,74.51009612,,,,,,,,,,,,,,,,return,0.5233,"[151,-118]","[33.45653031794292,-37.1572412738697]",80,100,0,"[151,150,150,150,150,150,150,150,150,150,150,150,150,150,150,150,149,146,144,141,138,134,130,125,121,117,113,110,104,96,89,79,70,60]","[-118,-118,-118,-118,-118,-118,-118,-118,-118,-118,-118,-118,-118,-118,-118,-118,-117,-117,-116,-114,-114,-112,-110,-108,-106,-103,-100,-98,-95,-91,-86,-79,-73,-66]","[0,0,0,0,0,0,0,0,0,0,0,0,0,0,0,0,0,0,0,0,0,0,0,0,0,0,0,0,0,0,0,0,0,0]","[0,0,0,0,0,0,0,0,0,0,0,0,0,0,0,0,0,0,0,0,0,0,0,0,0,0,0,0,0,0,0,0,0,0]","[0,0,0,0,0,0,0,0,0,0,0,0,0,0,0,0,0,0,0,0,0,0,0,0,0,0,0,0,0,0,0,0,0,0]","[0.0011999999880796253,0.016099999994040104,0.029299999982118408,0.042500000000000426,0.05579999998211882,0.07049999999999912,0.08240000000595948,0.09549999999999947,0.10599999999999987,0.1225000000000005,0.1355999999940387,0.1455999999940385,0.16240000000595955,0.17579999998211804,0.18890000000595997,0.19899999999999984,0.21619999998807948,0.2290999999940393,0.24240000000595963,0.2555999999940397,0.26900000000000013,0.2822999999821185,0.29540000000596045,0.30890000000596096,0.32219999998807936,0.3360000000000003,0.3487999999821181,0.3624000000059606,0.3722999999821184,0.38890000000596103,0.40209999999403934,0.41549999999999976,0.42879999998211815,0.4421999999880786]",,0,0,0,0,1,,,,
,,A000000000,2022-11-28_21h07.16.645,GoFitts,2022.2.4,Win32,74.51009612,,,,,,,,,,,,,,,,,,"[33.45653031794292,-37.1572412738697]","[-40.450849718747364,29.38926261462366]",80,100,0,"[60,49,38,29,20,12,6,0,-6,-10,-15,-19,-24]","[-66,-59,-52,-45,-39,-33,-29,-24,-20,-17,-14,-11,-5]","[0,0,0,0,0,0,0,0,0,0,0,0,0]","[0,0,0,0,0,0,0,0,0,0,0,0,0]","[0,0,0,0,0,0,0,0,0,0,0,0,0]","[0.0001999999880801795,0.013000000000001677,0.02609999999403989,0.03950000000000031,0.053000000000000824,0.06629999998211922,0.07940000000596115,0.09269999998807954,0.10619999998808005,0.11959999999404047,0.1330000000000009,0.1462999999821193,0.1595000000000013]",,1,0,1,0,1,,,,
,,A000000000,2022-11-28_21h07.16.645,GoFitts,2022.2.4,Win32,74.51009612,,,,,,,,,,,,,,,,,,"[-40.450849718747364,29.38926261462366]","[45.67727288213005,-20.336832153790006]",80,100,0,"[-24,-28,-34,-39,-43,-46,-48,-49,-49,-49,-49,-49,-47,-38,-22,-4,13]","[-5,0,8,14,19,22,25,26,27,27,27,27,25,18,7,-6,-17]","[0,0,0,0,0,0,0,0,0,0,0,0,0,0,0,0,0]","[0,0,0,0,0,0,0,0,0,0,0,0,0,0,0,0,0]","[0,0,0,0,0,0,0,0,0,0,0,0,0,0,0,0,0]","[0.0003000000119204316,0.013500000000000512,0.026400000005960322,0.039800000011920744,0.053100000023841076,0.06649999999999956,0.07960000002384149,0.09290000000595988,0.10660000002384074,0.11970000001788073,0.13299999999999912,0.14640000000595954,0.15690000000595994,0.16999999999999993,0.18649999999999878,0.20010000002384132,0.2134000000059597]",,2,0,2,0,1,,,,
,,A000000000,2022-11-28_21h07.16.645,GoFitts,2022.2.4,Win32,74.51009612,,,,,,,,,,,,,,,,,,"[45.67727288213005,-20.336832153790006]","[-48.907380036690284,10.395584540887965]",80,100,0,"[13,27,39,49,56,59,60,60,60,60,59,54,42,28,12,-5,-23]","[-17,-27,-33,-38,-41,-43,-43,-43,-43,-43,-43,-41,-35,-30,-25,-20,-14]","[0,0,0,0,0,0,0,0,0,0,0,0,0,0,0,0,0]","[0,0,0,0,0,0,0,0,0,0,0,0,0,0,0,0,0]","[0,0,0,0,0,0,0,0,0,0,0,0,0,0,0,0,0]","[0.00019999998807840313,0.012799999982117782,0.026299999982118294,0.03950000000000031,0.05289999997615702,0.06629999998211744,0.07969999998807786,0.08969999998807943,0.10329999998211825,0.11659999999403858,0.13019999998807918,0.1432999999821174,0.15949999999999953,0.17279999998211792,0.18609999999404003,0.19950000000000045,0.21289999997615716]",,3,0,3,0,1,,,,
,,A000000000,2022-11-28_21h07.16.645,GoFitts,2022.2.4,Win32,74.51009612,,,,,,,,,,,,,,,,,,"[-48.907380036690284,10.395584540887965]","[50,0]",80,100,0,"[-23,-38,-52,-63,-71,-75,-76,-76,-76,-76,-70,-63,-49,-33,-14,4,18]","[-14,-10,-7,-4,-2,-2,-1,-1,-1,-1,-1,1,6,10,14,16,18]","[0,0,0,0,0,0,0,0,0,0,0,0,0,0,0,0,0]","[0,0,0,0,0,0,0,0,0,0,0,0,0,0,0,0,0]","[0,0,0,0,0,0,0,0,0,0,0,0,0,0,0,0,0]","[0.0003000000119204316,0.01290000000595981,0.026599999994038726,0.039699999988078716,0.05290000000595896,0.06640000000595947,0.07969999998807786,0.09319999998807837,0.1063000000119203,0.11659999999403858,0.1299000000059607,0.14319999998807909,0.15959999999403962,0.17300000000000004,0.18640000000596046,0.19969999998807886,0.2129999999999992]",,4,0,4,0,1,,,,
,,A000000000,2022-11-28_21h07.16.645,GoFitts,2022.2.4,Win32,74.51009612,,,,,,,,,,,,,,,,,,"[50,0]","[-48.907380036690284,-10.395584540887953]",80,100,0,"[18,30,37,42,47,50,51,51,51,51,48,39,25,7,-14]","[18,18,18,18,18,18,18,18,18,18,18,16,11,7,1]","[0,0,0,0,0,0,0,0,0,0,0,0,0,0,0]","[0,0,0,0,0,0,0,0,0,0,0,0,0,0,0]","[0,0,0,0,0,0,0,0,0,0,0,0,0,0,0]","[0.0001999999880801795,0.0129999999999999,0.026500000000000412,0.0395999999940404,0.05319999998807923,0.06650000000000134,0.07959999999403955,0.0898999999761596,0.10629999998212014,0.11989999997615897,0.13309999999404099,0.1462999999821193,0.15959999999403962,0.17309999999404013,0.18659999999404064]",,5,0,5,0,1,,,,
,,A000000000,2022-11-28_21h07.16.645,GoFitts,2022.2.4,Win32,74.51009612,,,,,,,,,,,,,,,,,,"[-48.907380036690284,-10.395584540887953]","[45.67727288213004,20.336832153790006]",80,100,0,"[-14,-31,-46,-58,-66,-74,-78,-82,-84,-84,-84,-84,-77,-69,-57,-39,-17,2,22]","[1,-5,-11,-16,-20,-23,-27,-29,-31,-31,-31,-31,-27,-22,-14,-5,5,13,20]","[0,0,0,0,0,0,0,0,0,0,0,0,0,0,0,0,0,0,0]","[0,0,0,0,0,0,0,0,0,0,0,0,0,0,0,0,0,0,0]","[0,0,0,0,0,0,0,0,0,0,0,0,0,0,0,0,0,0,0]","[0.0001999999880801795,0.013000000000001677,0.02630000001192201,0.0395999999940404,0.05280000001192242,0.06659999999403965,0.07959999999403955,0.09309999999404006,0.10630000001192208,0.11980000001192259,0.1329000000059608,0.14640000000596132,0.15990000000596183,0.17300000000000004,0.18530000001192093,0.19919999998808002,0.21309999999404106,0.2264000000059614,0.2395999999940397]",,6,0,6,0,1,,,,
,,A000000000,2022-11-28_21h07.16.645,GoFitts,2022.2.4,Win32,74.51009612,,,,,,,,,,,,,,,,,,"[45.67727288213004,20.336832153790006]","[-40.45084971874737,-29.38926261462365]",80,100,0,"[22,35,42,48,49,49,49,49,47,39,28,16,-2,-17]","[20,24,26,29,29,29,29,29,29,23,15,6,-5,-15]","[0,0,0,0,0,0,0,0,0,0,0,0,0,0]","[0,0,0,0,0,0,0,0,0,0,0,0,0,0]","[0,0,0,0,0,0,0,0,0,0,0,0,0,0]","[0.0002999999821184929,0.013699999988078915,0.026399999976158384,0.039799999982118806,0.05319999998807923,0.06669999998807974,0.07969999998807964,0.08999999999999986,0.10359999999403868,0.11989999997615719,0.13379999998211822,0.14659999999403972,0.1598999999761581,0.17309999999404013]",,7,0,7,0,1,,,,
,,A000000000,2022-11-28_21h07.16.645,GoFitts,2022.2.4,Win32,74.51009612,,,,,,,,,,,,,,,,,,"[-40.45084971874737,-29.38926261462365]","[33.456530317942914,37.157241273869715]",80,100,0,"[-17,-34,-45,-54,-59,-62,-63,-63,-63,-63,-61,-54,-47,-35,-22,-10,3]","[-15,-28,-35,-41,-46,-50,-51,-51,-51,-51,-48,-38,-26,-12,4,19,30]","[0,0,0,0,0,0,0,0,0,0,0,0,0,0,0,0,0]","[0,0,0,0,0,0,0,0,0,0,0,0,0,0,0,0,0]","[0,0,0,0,0,0,0,0,0,0,0,0,0,0,0,0,0]","[0.00020000001788034183,0.013400000005960422,0.026600000023840664,0.039600000023840565,0.05299999999999905,0.06670000001788168,0.07990000000595998,0.09299999999999997,0.1064999999999987,0.1168000000119207,0.13349999999999973,0.14830000001192012,0.15970000001788165,0.17310000002384207,0.1866000000238408,0.1999000000059592,0.21310000002384122]",,8,0,8,0,1,,,,
,,A000000000,2022-11-28_21h07.16.645,GoFitts,2022.2.4,Win32,74.51009612,,,,,,,,,,,,,,,,,,"[33.456530317942914,37.157241273869715]","[-25.00000000000002,-43.301270189221924]",80,100,0,"[3,13,19,22,23,23,23,23,23,23,20,11,2,-8]","[30,40,45,48,49,49,49,49,46,35,25,6,-13,-30]","[0,0,0,0,0,0,0,0,0,0,0,0,0,0]","[0,0,0,0,0,0,0,0,0,0,0,0,0,0]","[0,0,0,0,0,0,0,0,0,0,0,0,0,0]","[0.00009999999404008975,0.0129999999999999,0.026400000005960322,0.0395999999940404,0.05309999999403914,0.06640000000596125,0.07659999999403944,0.09220000001788087,0.10350000000000037,0.11980000001192082,0.1300999999940391,0.14649999999999963,0.15990000000596005,0.17350000000000065]",,9,0,9,0,1,,,,
,,A000000000,2022-11-28_21h07.16.645,GoFitts,2022.2.4,Win32,74.51009612,,,,,,,,,,,,,,,,,,"[-25.00000000000002,-43.301270189221924]","[15.450849718747373,47.552825814757675]",80,100,0,"[-8,-18,-26,-30,-32,-32,-32,-32,-31,-27,-23,-16,-10,-3]","[-30,-43,-54,-59,-62,-63,-63,-63,-61,-51,-40,-24,-3,20]","[0,0,0,0,0,0,0,0,0,0,0,0,0,0]","[0,0,0,0,0,0,0,0,0,0,0,0,0,0]","[0,0,0,0,0,0,0,0,0,0,0,0,0,0]","[0.0003999999761585826,0.012899999976157872,0.02609999999403989,0.03909999999403979,0.0525999999940403,0.06639999997615931,0.07989999997615804,0.08959999999403934,0.10309999999403985,0.11959999999404047,0.13189999997615942,0.14550000000000018,0.1592999999821192,0.1726999999880796]",,10,0,10,0,1,,,,
,,A000000000,2022-11-28_21h07.16.645,GoFitts,2022.2.4,Win32,74.51009612,,,,,,,,,,,,,,,,,,"[15.450849718747373,47.552825814757675]","[-5.226423163382711,-49.72609476841367]",80,100,0,"[-3,3,8,10,11,11,11,11,11,11,10,8,8,7]","[20,43,59,66,69,69,69,68,62,52,35,10,-9,-29]","[0,0,0,0,0,0,0,0,0,0,0,0,0,0]","[0,0,0,0,0,0,0,0,0,0,0,0,0,0]","[0,0,0,0,0,0,0,0,0,0,0,0,0,0]","[0.00020000001788211819,0.013200000017882019,0.026400000005960322,0.03980000001192252,0.05320000001788294,0.06650000000000134,0.07980000001192167,0.09320000001788209,0.1067000000178826,0.1166000000238423,0.1302000000178829,0.1465000000000014,0.15980000001192174,0.17320000001788216]",,11,0,11,0,1,,,,
,,A000000000,2022-11-28_21h07.16.645,GoFitts,2022.2.4,Win32,74.51009612,,,,,,,,,,,,,,,,,,"[-5.226423163382711,-49.72609476841367]","[-5.226423163382667,49.72609476841367]",80,100,0,"[7,7,6,6,6,6,6,6,6,6,6,2,-3,-13,-21]","[-29,-43,-52,-61,-65,-65,-65,-65,-65,-62,-53,-42,-27,-5,16]","[0,0,0,0,0,0,0,0,0,0,0,0,0,0,0]","[0,0,0,0,0,0,0,0,0,0,0,0,0,0,0]","[0,0,0,0,0,0,0,0,0,0,0,0,0,0,0]","[0.00030000001192220793,0.013200000017882019,0.023200000017881806,0.039800000011920744,0.052900000005960734,0.06320000001788273,0.07980000001192167,0.09020000001788198,0.10320000001788188,0.1199000000059609,0.13330000001192133,0.14630000001192123,0.15980000001192174,0.17320000001788216,0.18640000000596046]",,12,0,12,0,1,,,,
,,A000000000,2022-11-28_21h07.16.645,GoFitts,2022.2.4,Win32,74.51009612,,,,,,,,,,,,,,,,,,"[-5.226423163382667,49.72609476841367]","[15.450849718747362,-47.55282581475768]",80,100,0,"[-21,-27,-32,-34,-35,-35,-35,-35,-35,-35,-23,-12,-1,14,27]","[16,34,48,57,63,66,66,66,66,64,50,34,18,0,-18]","[0,0,0,0,0,0,0,0,0,0,0,0,0,0,0]","[0,0,0,0,0,0,0,0,0,0,0,0,0,0,0]","[0,0,0,0,0,0,0,0,0,0,0,0,0,0,0]","[0.00019999998807840313,0.0129999999999999,0.026299999982118294,0.039499999999998536,0.05289999997615702,0.06669999998807796,0.07989999997615804,0.09309999999403828,0.10339999997615834,0.11679999998211876,0.13299999999999912,0.1463999999761576,0.15969999998807793,0.17319999998807845,0.18639999997615675]",,13,0,13,0,1,,,,
,,A000000000,2022-11-28_21h07.16.645,GoFitts,2022.2.4,Win32,74.51009612,,,,,,,,,,,,,,,,,,"[15.450849718747362,-47.55282581475768]","[-24.99999999999999,43.30127018922194]",80,100,0,"[27,38,43,49,51,51,51,51,51,51,49,42,32,19,8,-9,-20]","[-18,-35,-45,-57,-62,-63,-63,-63,-63,-63,-62,-55,-43,-29,-17,4,18]","[0,0,0,0,0,0,0,0,0,0,0,0,0,0,0,0,0]","[0,0,0,0,0,0,0,0,0,0,0,0,0,0,0,0,0]","[0,0,0,0,0,0,0,0,0,0,0,0,0,0,0,0,0]","[0.00009999999404008975,0.0129999999999999,0.02340000000596021,0.039699999988078716,0.053000000000000824,0.06659999999403965,0.07679999998211784,0.09249999999999936,0.10329999998211825,0.11679999998211876,0.1331999999880793,0.14649999999999963,0.15990000000596005,0.17319999998807845,0.18340000000596035,0.19990000000596098,0.21319999998807937]",,14,0,14,0,1,,,,
,,A000000000,2022-11-28_21h07.16.645,GoFitts,2022.2.4,Win32,74.51009612,,,,,,,,,,,,,,,,,,,,,,0,,,,,,,,,,,,,0,0,0,1
,,A000000000,2022-11-28_21h07.16.645,GoFitts,2022.2.4,Win32,74.51009612,,,,,,,,,,,,,,,,return,0.421,"[39,-22]","[108.7337235333145,-120.76103414007653]",60.5,325,1,"[39,39,39,39,39,39,39,39,39,39,39,39,39,39,39,39,39,39,39,39,41,44,47,54,60,69,76,84,92,100]","[-22,-22,-22,-22,-22,-22,-22,-22,-22,-22,-22,-22,-22,-22,-22,-22,-22,-22,-22,-22,-22,-23,-24,-31,-37,-49,-61,-74,-86,-98]","[0,0,0,0,0,0,0,0,0,0,0,0,0,0,0,0,0,0,0,0,0,0,0,0,0,0,0,0,0,0]","[0,0,0,0,0,0,0,0,0,0,0,0,0,0,0,0,0,0,0,0,0,0,0,0,0,0,0,0,0,0]","[0,0,0,0,0,0,0,0,0,0,0,0,0,0,0,0,0,0,0,0,0,0,0,0,0,0,0,0,0,0]","[0.0004999999999988347,0.017099999994037773,0.029400000005960436,0.03969999998807694,0.055999999999997385,0.0706999999880793,0.07959999999403777,0.09590000000595822,0.10629999998211659,0.12279999998211721,0.13279999998211878,0.1492999999821194,0.16269999998807805,0.17599999999999838,0.18629999998211844,0.19959999999403877,0.2129999999999974,0.22629999998211758,0.2394999999999996,0.2560000000000002,0.2694000000059589,0.2825999999940372,0.29290000000596095,0.3091999999880777,0.31959999999403976,0.33609999999403684,0.3491999999880768,0.36240000000595884,0.3757999999821173,0.38929999998211784]",,0,0,0,0,1,,,,
,,A000000000,2022-11-28_21h07.16.645,GoFitts,2022.2.4,Win32,74.51009612,,,,,,,,,,,,,,,,,,"[108.7337235333145,-120.76103414007653]","[-131.46526158592894,95.51510349752691]",60.5,325,1,"[100,107,112,117,120,123,125,125,125,125,125,124,118,107,77,43,7,-24,-50,-66,-74,-79,-81,-82,-86,-91,-97,-104]","[-98,-107,-115,-122,-127,-131,-133,-134,-134,-134,-134,-134,-127,-115,-80,-46,-11,21,49,71,85,91,93,93,95,95,95,96]","[0,0,0,0,0,0,0,0,0,0,0,0,0,0,0,0,0,0,0,0,0,0,0,0,0,0,0,0]","[0,0,0,0,0,0,0,0,0,0,0,0,0,0,0,0,0,0,0,0,0,0,0,0,0,0,0,0]","[0,0,0,0,0,0,0,0,0,0,0,0,0,0,0,0,0,0,0,0,0,0,0,0,0,0,0,0]","[0.0001999999880801795,0.01309999999403999,0.026299999982118294,0.03969999998808049,0.05309999999403914,0.06650000000000134,0.07969999998807964,0.09019999998808004,0.10650000000000048,0.11679999998212054,0.13000000000000256,0.14679999998211812,0.15990000000596183,0.17009999999404002,0.18659999999404064,0.19969999998808063,0.21309999999403928,0.22629999998212114,0.23969999998807978,0.2531999999880803,0.2664000000059623,0.2797999999821208,0.29299999999999926,0.30640000000596146,0.31990000000596197,0.3331999999880786,0.3464000000059606,0.3595999999940389]",,1,0,1,0,1,,,,
,,A000000000,2022-11-28_21h07.16.645,GoFitts,2022.2.4,Win32,74.51009612,,,,,,,,,,,,,,,,,,"[-131.46526158592894,95.51510349752691]","[148.45113686692267,-66.09470449981752]",60.5,325,1,"[-104,-110,-115,-121,-124,-126,-128,-131,-133,-133,-133,-133,-133,-127,-109,-80,-50,4,45,76,98,112,120]","[96,96,96,97,97,98,99,99,100,100,100,100,100,95,82,63,45,10,-15,-34,-47,-54,-58]","[0,0,0,0,0,0,0,0,0,0,0,0,0,0,0,0,0,0,0,0,0,0,0]","[0,0,0,0,0,0,0,0,0,0,0,0,0,0,0,0,0,0,0,0,0,0,0]","[0,0,0,0,0,0,0,0,0,0,0,0,0,0,0,0,0,0,0,0,0,0,0]","[0.00010000002384202844,0.013200000017882019,0.02360000002384055,0.040100000023841176,0.053200000017881166,0.06660000002384336,0.07730000001192039,0.09330000001192218,0.10680000001192269,0.11670000001788239,0.13010000002384103,0.1437000000178834,0.16020000001788048,0.17340000000596234,0.18649999999999878,0.19990000000596098,0.21010000002384288,0.22670000001788182,0.2398000000119218,0.2533000000119223,0.2665000000000006,0.27990000000595927,0.29320000001788316]",,2,0,2,0,1,,,,
,,A000000000,2022-11-28_21h07.16.645,GoFitts,2022.2.4,Win32,74.51009612,,,,,,,,,,,,,,,,,,"[148.45113686692267,-66.09470449981752]","[-158.94898511924342,33.78564975788589]",60.5,325,1,"[120,122,122,122,122,122,122,122,122,122,122,123,126,127,128,128,128,124,104,71,30,-14,-54,-88,-109,-117,-122,-124,-125,-127,-130,-132]","[-58,-60,-60,-60,-60,-60,-60,-60,-60,-60,-60,-60,-60,-60,-61,-61,-61,-61,-58,-52,-43,-28,-13,2,12,17,20,22,22,24,25,27]","[0,0,0,0,0,0,0,0,0,0,0,0,0,0,0,0,0,0,0,0,0,0,0,0,0,0,0,0,0,0,0,0]","[0,0,0,0,0,0,0,0,0,0,0,0,0,0,0,0,0,0,0,0,0,0,0,0,0,0,0,0,0,0,0,0]","[0,0,0,0,0,0,0,0,0,0,0,0,0,0,0,0,0,0,0,0,0,0,0,0,0,0,0,0,0,0,0,0]","[0.0001999999880801795,0.013199999988078304,0.026699999988078815,0.03680000001192241,0.05040000000596123,0.06690000000596186,0.07699999999999818,0.0934999999999988,0.10680000001191914,0.1168000000119207,0.1335000000000015,0.14359999999403783,0.15980000001191996,0.17040000000595867,0.18669999998807896,0.19709999999404104,0.21359999999403811,0.223699999988078,0.24019999998807862,0.25340000000596064,0.26669999998807725,0.28000000000000114,0.29330000001192147,0.3065999999940381,0.31990000000596197,0.3303000000119205,0.34619999998808026,0.35999999999999943,0.37330000001191976,0.3869000000059586,0.39990000000596027,0.4134000000059608]",,3,0,3,0,1,,,,
,,A000000000,2022-11-28_21h07.16.645,GoFitts,2022.2.4,Win32,74.51009612,,,,,,,,,,,,,,,,,,"[-158.94898511924342,33.78564975788589]","[162.5,0]",60.5,325,1,"[-132,-136,-140,-143,-144,-144,-144,-144,-144,-144,-139,-124,-90,-53,-7,43,91,120,141]","[27,29,31,32,33,33,33,33,33,33,33,29,22,17,14,9,6,3,1]","[0,0,0,0,0,0,0,0,0,0,0,0,0,0,0,0,0,0,0]","[0,0,0,0,0,0,0,0,0,0,0,0,0,0,0,0,0,0,0]","[0,0,0,0,0,0,0,0,0,0,0,0,0,0,0,0,0,0,0]","[0.00030000001192220793,0.013900000005961033,0.02650000000000219,0.03969999998808049,0.05330000001192303,0.06669999998808152,0.07680000001192155,0.09009999999404172,0.10650000000000048,0.1168000000119207,0.13009999999404087,0.1434000000059612,0.15980000001191996,0.17330000001192047,0.18650000000000233,0.19969999998808063,0.21300000000000097,0.2264000000059596,0.2398000000119218]",,4,0,4,0,1,,,,
,,A000000000,2022-11-28_21h07.16.645,GoFitts,2022.2.4,Win32,74.51009612,,,,,,,,,,,,,,,,,,"[162.5,0]","[-158.94898511924342,-33.78564975788585]",60.5,325,1,"[141,153,159,164,167,169,170,172,175,176,176,176,176,176,172,161,131,94,49,4,-40,-80,-107,-126,-137]","[1,0,-1,-1,-2,-2,-2,-2,-2,-2,-2,-2,-2,-2,-2,-2,-5,-7,-11,-13,-14,-17,-20,-23,-26]","[0,0,0,0,0,0,0,0,0,0,0,0,0,0,0,0,0,0,0,0,0,0,0,0,0]","[0,0,0,0,0,0,0,0,0,0,0,0,0,0,0,0,0,0,0,0,0,0,0,0,0]","[0,0,0,0,0,0,0,0,0,0,0,0,0,0,0,0,0,0,0,0,0,0,0,0,0]","[0.00019999998807662678,0.012999999999998124,0.026699999988078815,0.03980000001191897,0.05330000001191948,0.06669999998807796,0.07690000000595987,0.09340000000596049,0.1065999999940388,0.11980000001192082,0.13009999999403732,0.14349999999999952,0.16009999999403846,0.17009999999404002,0.18340000000596035,0.19690000000596086,0.21309999999403928,0.2265999999940398,0.23980000001191826,0.2530999999940384,0.26640000000595876,0.2799999999999976,0.29299999999999926,0.3069999999999986,0.3200000000000003]",,5,0,5,0,1,,,,
,,A000000000,2022-11-28_21h07.16.645,GoFitts,2022.2.4,Win32,74.51009612,,,,,,,,,,,,,,,,,,"[-158.94898511924342,-33.78564975788585]","[148.45113686692264,66.09470449981752]",60.5,325,1,"[-137,-144,-149,-154,-159,-160,-161,-162,-162,-162,-162,-162,-160,-152,-129,-97,-58,-12,27,56,81,98,106,110,111,115,119]","[-26,-27,-29,-30,-32,-32,-33,-34,-34,-34,-34,-34,-33,-28,-18,-4,10,24,36,43,48,53,56,59,60,61,63]","[0,0,0,0,0,0,0,0,0,0,0,0,0,0,0,0,0,0,0,0,0,0,0,0,0,0,0]","[0,0,0,0,0,0,0,0,0,0,0,0,0,0,0,0,0,0,0,0,0,0,0,0,0,0,0]","[0,0,0,0,0,0,0,0,0,0,0,0,0,0,0,0,0,0,0,0,0,0,0,0,0,0,0]","[0.0002999999821184929,0.012899999976159648,0.026299999982118294,0.03639999997615817,0.052899999976158796,0.066299999982121,0.07639999997615732,0.08979999998211952,0.10319999998807816,0.11929999998211827,0.13289999997616064,0.14300000000000068,0.15619999998807899,0.1696999999880795,0.18629999998211844,0.19950000000000045,0.21269999998807876,0.22619999998807927,0.2394999999999996,0.24969999998808134,0.26309999999404,0.2793999999761603,0.2927999999821189,0.30609999999403925,0.3163999999761593,0.33289999997615993,0.3466999999880791]",,6,0,6,0,1,,,,
,,A000000000,2022-11-28_21h07.16.645,GoFitts,2022.2.4,Win32,74.51009612,,,,,,,,,,,,,,,,,,"[148.45113686692264,66.09470449981752]","[-131.46526158592897,-95.51510349752687]",60.5,325,1,"[119,122,125,129,133,134,134,134,134,129,120,104,82,59,29,2,-27,-50,-76,-90,-103,-110,-114,-117]","[63,64,64,66,67,67,67,67,66,62,54,43,29,16,0,-13,-26,-37,-49,-56,-62,-66,-69,-70]","[0,0,0,0,0,0,0,0,0,0,0,0,0,0,0,0,0,0,0,0,0,0,0,0]","[0,0,0,0,0,0,0,0,0,0,0,0,0,0,0,0,0,0,0,0,0,0,0,0]","[0,0,0,0,0,0,0,0,0,0,0,0,0,0,0,0,0,0,0,0,0,0,0,0]","[0.00020000001788034183,0.012700000017879631,0.022999999999999687,0.03610000002383984,0.04949999999999832,0.06670000001788168,0.07620000001788085,0.09210000002384078,0.10610000002384012,0.11930000001192198,0.13270000001788063,0.1460000000000008,0.15920000001787926,0.17240000000596112,0.18580000001191976,0.19920000001788196,0.21249999999999858,0.2228000000119188,0.2392000000178811,0.2524000000059594,0.26610000002384027,0.2793000000119221,0.29230000001192025,0.30580000001192076]",,7,0,7,0,1,,,,
,,A000000000,2022-11-28_21h07.16.645,GoFitts,2022.2.4,Win32,74.51009612,,,,,,,,,,,,,,,,,,"[-131.46526158592897,-95.51510349752687]","[108.73372353331446,120.76103414007656]",60.5,325,1,"[-117,-118,-119,-120,-121,-123,-124,-124,-124,-124,-124,-121,-114,-106,-99,-83,-67,-47,-23,3,32,60,80,96]","[-70,-72,-73,-74,-75,-76,-78,-78,-78,-78,-78,-72,-65,-57,-51,-36,-20,1,26,48,64,77,89,96]","[0,0,0,0,0,0,0,0,0,0,0,0,0,0,0,0,0,0,0,0,0,0,0,0]","[0,0,0,0,0,0,0,0,0,0,0,0,0,0,0,0,0,0,0,0,0,0,0,0]","[0,0,0,0,0,0,0,0,0,0,0,0,0,0,0,0,0,0,0,0,0,0,0,0]","[0.00009999999403831339,0.012999999999998124,0.026499999999998636,0.036899999976157005,0.050099999994039024,0.06349999999999767,0.07979999998211795,0.09019999998807648,0.10349999999999682,0.11959999999403692,0.13019999998807918,0.14629999998211574,0.1598999999761581,0.17319999998807845,0.18349999999999866,0.19969999998807708,0.2132999999821159,0.22649999999999793,0.2398999999761564,0.2530000000000001,0.2664999999999971,0.27979999998211724,0.2931999999880759,0.3065999999940381]",,8,0,8,0,1,,,,
,,A000000000,2022-11-28_21h07.16.645,GoFitts,2022.2.4,Win32,74.51009612,,,,,,,,,,,,,,,,,,"[108.73372353331446,120.76103414007656]","[-81.25000000000007,-140.72912811497125]",60.5,325,1,"[96,106,112,116,119,122,125,127,129,130,130,130,130,130,125,116,103,84,57,32,6,-14,-29,-41,-52,-59,-66,-74,-78]","[96,101,103,105,106,107,107,109,109,109,109,109,109,108,100,88,72,49,22,-1,-25,-46,-63,-78,-89,-97,-104,-109,-114]","[0,0,0,0,0,0,0,0,0,0,0,0,0,0,0,0,0,0,0,0,0,0,0,0,0,0,0,0,0]","[0,0,0,0,0,0,0,0,0,0,0,0,0,0,0,0,0,0,0,0,0,0,0,0,0,0,0,0,0]","[0,0,0,0,0,0,0,0,0,0,0,0,0,0,0,0,0,0,0,0,0,0,0,0,0,0,0,0,0]","[0.00009999999403831339,0.01409999999403766,0.027800000011918513,0.04080000001192019,0.05359999999403797,0.06680000001191999,0.0797000000178798,0.09040000000596038,0.10350000000000037,0.11959999999403692,0.13320000001787946,0.14659999999403794,0.15990000000595828,0.1702000000178785,0.18649999999999878,0.1997000000178808,0.2132000000178813,0.2264000000059596,0.23959999999403792,0.2530999999940384,0.26630000001192045,0.2799999999999976,0.29299999999999926,0.3064000000059579,0.31959999999403976,0.33280000001191823,0.34630000001191874,0.3595999999940389,0.37290000000595924]",,9,0,9,0,1,,,,
,,A000000000,2022-11-28_21h07.16.645,GoFitts,2022.2.4,Win32,74.51009612,,,,,,,,,,,,,,,,,,"[-81.25000000000007,-140.72912811497125]","[50.215261585928964,154.54668389796245]",60.5,325,1,"[-78,-82,-85,-86,-86,-86,-86,-86,-86,-86,-84,-76,-63,-46,-33,-9,10,25,46,58]","[-114,-117,-120,-122,-124,-124,-124,-124,-124,-124,-121,-110,-87,-57,-33,15,52,78,113,130]","[0,0,0,0,0,0,0,0,0,0,0,0,0,0,0,0,0,0,0,0]","[0,0,0,0,0,0,0,0,0,0,0,0,0,0,0,0,0,0,0,0]","[0,0,0,0,0,0,0,0,0,0,0,0,0,0,0,0,0,0,0,0]","[0.0002999999821184929,0.013199999988078304,0.026499999999998636,0.03969999998807694,0.05319999998807745,0.06659999999403965,0.07979999998211795,0.08999999999999986,0.10350000000000037,0.11669999998807867,0.13369999998807813,0.14669999998807626,0.15979999998211625,0.17319999998807845,0.18349999999999866,0.1999999999999993,0.2129999999999974,0.2234999999999978,0.23969999998807623,0.2530999999940384]",,10,0,10,0,1,,,,
,,A000000000,2022-11-28_21h07.16.645,GoFitts,2022.2.4,Win32,74.51009612,,,,,,,,,,,,,,,,,,"[50.215261585928964,154.54668389796245]","[-16.985875280993813,-161.6098079973444]",60.5,325,1,"[58,66,71,72,73,73,73,73,73,72,69,65,61,57,51,44,37,30,25,21,19,15,12,8,5,2,-1,-3]","[130,141,147,150,151,151,151,151,151,151,151,151,148,142,133,116,94,61,28,-8,-32,-66,-86,-104,-116,-126,-132,-135]","[0,0,0,0,0,0,0,0,0,0,0,0,0,0,0,0,0,0,0,0,0,0,0,0,0,0,0,0]","[0,0,0,0,0,0,0,0,0,0,0,0,0,0,0,0,0,0,0,0,0,0,0,0,0,0,0,0]","[0,0,0,0,0,0,0,0,0,0,0,0,0,0,0,0,0,0,0,0,0,0,0,0,0,0,0,0]","[0.00020000001788034183,0.01309999999403999,0.02659999999403695,0.03999999999999915,0.05330000001191948,0.06680000001191999,0.076800000011918,0.09030000001191851,0.1034000000059585,0.12009999999403931,0.13330000001192133,0.14670000001787997,0.15990000000595828,0.17330000001192047,0.18649999999999878,0.1997000000178808,0.21309999999403928,0.2264000000059596,0.23980000001191826,0.25320000001788046,0.26330000001192033,0.27980000001192096,0.2930999999940376,0.3064000000059579,0.3200000000000003,0.3333000000119206,0.3464999999999989,0.3567000000178808]",,11,0,11,0,1,,,,
,,A000000000,2022-11-28_21h07.16.645,GoFitts,2022.2.4,Win32,74.51009612,,,,,,,,,,,,,,,,,,"[-16.985875280993813,-161.6098079973444]","[-16.985875280993668,161.60980799734443]",60.5,325,1,"[-3,-6,-9,-10,-11,-11,-11,-11,-11,-11,-11,-7,1,10,12,15,16,16,15,13,11]","[-135,-141,-144,-145,-146,-146,-146,-146,-146,-146,-138,-122,-90,-45,-1,48,86,115,135,148,158]","[0,0,0,0,0,0,0,0,0,0,0,0,0,0,0,0,0,0,0,0,0]","[0,0,0,0,0,0,0,0,0,0,0,0,0,0,0,0,0,0,0,0,0]","[0,0,0,0,0,0,0,0,0,0,0,0,0,0,0,0,0,0,0,0,0]","[0.0003000000119186552,0.01640000000595876,0.02949999999999875,0.03980000001191897,0.056400000005957907,0.0698000000119201,0.07990000000595998,0.09309999999403828,0.10990000000595757,0.11990000000595913,0.13569999998807702,0.1498000000119184,0.1629000000059584,0.1763000000119206,0.1894999999999989,0.20290000000595754,0.2160999999940394,0.22959999999403635,0.24290000000596024,0.25619999998807685,0.2694999999999972]",,12,0,12,0,1,,,,
,,A000000000,2022-11-28_21h07.16.645,GoFitts,2022.2.4,Win32,74.51009612,,,,,,,,,,,,,,,,,,"[-16.985875280993668,161.60980799734443]","[50.21526158592892,-154.54668389796245]",60.5,325,1,"[11,10,10,9,9,8,8,8,7,6,3,0,-5,-12,-16,-20,-21,-22,-15,-5,10,25,43,59,66,69]","[158,164,169,172,173,174,174,174,174,174,173,169,163,157,149,143,136,116,87,53,16,-21,-63,-101,-121,-132]","[0,0,0,0,0,0,0,0,0,0,0,0,0,0,0,0,0,0,0,0,0,0,0,0,0,0]","[0,0,0,0,0,0,0,0,0,0,0,0,0,0,0,0,0,0,0,0,0,0,0,0,0,0]","[0,0,0,0,0,0,0,0,0,0,0,0,0,0,0,0,0,0,0,0,0,0,0,0,0,0]","[0.00020000001788034183,0.013300000011920332,0.026700000017878978,0.03999999999999915,0.050300000011919366,0.0669000000059583,0.076800000011918,0.09040000000596038,0.10680000001191914,0.11740000000595785,0.13359999999403982,0.14370000001787986,0.16000000000000014,0.17330000001192047,0.1865999999940371,0.19909999999403993,0.2103000000119195,0.22680000001192013,0.23999999999999844,0.25330000001191877,0.26659999999403894,0.27699999999999747,0.29040000000595967,0.3069000000059603,0.3199000000059584,0.3333000000119206]",,13,0,13,0,1,,,,
,,A000000000,2022-11-28_21h07.16.645,GoFitts,2022.2.4,Win32,74.51009612,,,,,,,,,,,,,,,,,,"[50.21526158592892,-154.54668389796245]","[-81.24999999999996,140.7291281149713]",60.5,325,1,"[69,69,69,69,67,65,65,65,65,65,62,59,51,40,26,6,-18,-43,-63,-80]","[-132,-142,-149,-155,-158,-161,-162,-162,-162,-162,-160,-156,-144,-124,-95,-54,-4,45,84,116]","[0,0,0,0,0,0,0,0,0,0,0,0,0,0,0,0,0,0,0,0]","[0,0,0,0,0,0,0,0,0,0,0,0,0,0,0,0,0,0,0,0]","[0,0,0,0,0,0,0,0,0,0,0,0,0,0,0,0,0,0,0,0]","[0.00020000001788389454,0.013200000017882019,0.026400000005960322,0.03970000001788421,0.053000000000000824,0.06680000001192354,0.07990000000596353,0.09320000001788387,0.10359999999404224,0.11670000001788239,0.1334000000059632,0.1433000000119229,0.16000000000000014,0.17320000001788216,0.18640000000596046,0.19990000000596098,0.21330000001192317,0.22640000000596316,0.23990000000596368,0.253200000017884]",,14,0,14,0,1,,,,
,,A000000000,2022-11-28_21h07.16.645,GoFitts,2022.2.4,Win32,74.51009612,,,,,,,,,,,,,,,,,,,,,,1,,,,,,,,,,,,,1,0,0,1
,,A000000000,2022-11-28_21h07.16.645,GoFitts,2022.2.4,Win32,74.51009612,,,,,,,,,,,,,,,,return,0.4368,"[87,-75]","[73.39153616405002,225.87592262009898]",40.5,475,2,"[87,83,81,80,80,80,80,80,80,80,80,80,80,80,80,80,80,80,79,77,76,76,77,78,80,81,81,82,83,83,84,84,84]","[-75,-73,-72,-71,-71,-70,-70,-70,-70,-70,-70,-70,-70,-70,-70,-70,-70,-70,-67,-59,-48,-22,7,27,61,104,133,161,180,193,202,208,213]","[0,0,0,0,0,0,0,0,0,0,0,0,0,0,0,0,0,0,0,0,0,0,0,0,0,0,0,0,0,0,0,0,0]","[0,0,0,0,0,0,0,0,0,0,0,0,0,0,0,0,0,0,0,0,0,0,0,0,0,0,0,0,0,0,0,0,0]","[0,0,0,0,0,0,0,0,0,0,0,0,0,0,0,0,0,0,0,0,0,0,0,0,0,0,0,0,0,0,0,0,0]","[0.0005999999940407008,0.015999999999998238,0.02949999999999875,0.04299999999999926,0.05600000000000094,0.06640000000595947,0.08259999999403789,0.09299999999999997,0.10840000000596106,0.11959999999404047,0.1329000000059608,0.1483000000119219,0.15980000001191996,0.17609999999404025,0.18630000001192215,0.19969999998807708,0.21519999998808004,0.2264000000059596,0.24280000001192192,0.25609999999403854,0.2661999999880784,0.28259999999404073,0.29590000000596106,0.30619999998807756,0.3194999999999979,0.33640000000595904,0.3490999999940385,0.3625000000000007,0.375699999988079,0.3891999999880795,0.40249999999999986,0.4158000000119202,0.4291999999880787]",,0,0,0,0,1,,,,
,,A000000000,2022-11-28_21h07.16.645,GoFitts,2022.2.4,Win32,74.51009612,,,,,,,,,,,,,,,,,,"[73.39153616405002,225.87592262009898]","[-24.82551002606788,-236.1989501499649]",40.5,475,2,"[84,85,85,85,85,84,84,84,84,84,84,82,81,79,78,76,76,79,79,75,69,60,51,39,25,18,11,3,-3,-9,-14,-18,-19,-23,-28,-31,-33,-33]","[213,217,220,222,225,225,225,225,225,225,225,223,217,207,190,158,117,69,23,-12,-39,-63,-85,-102,-123,-132,-146,-155,-164,-171,-178,-184,-189,-195,-201,-208,-213,-219]","[0,0,0,0,0,0,0,0,0,0,0,0,0,0,0,0,0,0,0,0,0,0,0,0,0,0,0,0,0,0,0,0,0,0,0,0,0,0]","[0,0,0,0,0,0,0,0,0,0,0,0,0,0,0,0,0,0,0,0,0,0,0,0,0,0,0,0,0,0,0,0,0,0,0,0,0,0]","[0,0,0,0,0,0,0,0,0,0,0,0,0,0,0,0,0,0,0,0,0,0,0,0,0,0,0,0,0,0,0,0,0,0,0,0,0,0]","[0.0004000000059605213,0.01309999999403999,0.026599999994040502,0.03669999998808038,0.0502999999821192,0.06700000000000017,0.07979999998211795,0.09019999998808004,0.10340000000596206,0.11679999998212054,0.13329999998212116,0.14649999999999963,0.15990000000596183,0.1732999999821203,0.18709999999403948,0.20009999999404116,0.2134999999999998,0.22679999998211997,0.240000000000002,0.25340000000596064,0.26659999999403894,0.2797999999821208,0.2930999999940411,0.30669999998807995,0.3235000000000028,0.33300000000000196,0.34619999998808026,0.3597999999821191,0.3730999999940394,0.3865000000000016,0.40000000000000213,0.41319999998808044,0.42350000000000065,0.4367999999821208,0.4529999999999994,0.4664999999999999,0.4797999999821201,0.4930999999940404]",,1,0,1,0,1,,,,
,,A000000000,2022-11-28_21h07.16.645,GoFitts,2022.2.4,Win32,74.51009612,,,,,,,,,,,,,,,,,,"[-24.82551002606788,-236.1989501499649]","[-24.825510026067665,236.19895014996493]",40.5,475,2,"[-33,-33,-33,-32,-32,-32,-32,-32,-32,-31,-29,-27,-25,-25,-25,-25,-19,-12,-6,-2,1,3,4,5,5,6,6,6,5,4,1,-3,-7,-10,-15]","[-219,-224,-229,-231,-231,-231,-231,-231,-231,-230,-214,-185,-145,-88,-35,32,76,110,135,153,165,174,181,186,191,196,199,201,203,205,208,211,214,216,220]","[0,0,0,0,0,0,0,0,0,0,0,0,0,0,0,0,0,0,0,0,0,0,0,0,0,0,0,0,0,0,0,0,0,0,0]","[0,0,0,0,0,0,0,0,0,0,0,0,0,0,0,0,0,0,0,0,0,0,0,0,0,0,0,0,0,0,0,0,0,0,0]","[0,0,0,0,0,0,0,0,0,0,0,0,0,0,0,0,0,0,0,0,0,0,0,0,0,0,0,0,0,0,0,0,0,0,0]","[0.00019999998807662678,0.013199999988078304,0.026499999999998636,0.039799999982118806,0.0519999999999996,0.06339999997615564,0.07979999998211795,0.0931999999880766,0.10619999998807828,0.11679999998211699,0.13309999999403743,0.14659999999403794,0.15979999998211625,0.17319999998807845,0.18369999998807884,0.19989999997615726,0.21369999998807643,0.2265999999940398,0.2397999999821181,0.25319999998807674,0.2663999999761586,0.27969999998807893,0.2930999999940376,0.30639999997615774,0.31669999998807796,0.3330999999940367,0.3468999999761557,0.3597999999821191,0.37329999998211605,0.38649999999999807,0.39979999998211824,0.4131999999880769,0.42639999997615874,0.43669999998807896,0.4500999999940376]",,2,0,2,0,1,,,,
,,A000000000,2022-11-28_21h07.16.645,GoFitts,2022.2.4,Win32,74.51009612,,,,,,,,,,,,,,,,,,"[-24.825510026067665,236.19895014996493]","[73.39153616404997,-225.875922620099]",40.5,475,2,"[-15,-20,-23,-24,-25,-25,-25,-25,-25,-25,-25,-21,-14,-1,15,34,53,63,67,71,72,72,73,73,72,72,72,72,72,72,72]","[220,226,230,234,235,236,236,236,236,236,230,216,191,155,101,42,-16,-54,-83,-109,-128,-146,-161,-171,-178,-185,-189,-195,-201,-205,-209]","[0,0,0,0,0,0,0,0,0,0,0,0,0,0,0,0,0,0,0,0,0,0,0,0,0,0,0,0,0,0,0]","[0,0,0,0,0,0,0,0,0,0,0,0,0,0,0,0,0,0,0,0,0,0,0,0,0,0,0,0,0,0,0]","[0,0,0,0,0,0,0,0,0,0,0,0,0,0,0,0,0,0,0,0,0,0,0,0,0,0,0,0,0,0,0]","[0.00020000001788389454,0.01610000002384382,0.029400000005960436,0.04270000001788077,0.055900000005962625,0.06970000001788179,0.08280000001192178,0.09590000000596177,0.1063000000119203,0.11950000000000216,0.13630000001192144,0.14940000000596143,0.16300000000000026,0.17600000000000193,0.18920000001788395,0.20280000001192278,0.21620000001788142,0.2295000000000016,0.2427000000178836,0.2560000000000002,0.26930000001192056,0.28280000001192107,0.2961000000238414,0.3094999999999999,0.3228000000119202,0.3361000000238441,0.3464000000059606,0.35970000001788094,0.37630000001192343,0.3898000000119204,0.4029000000059604]",,3,0,3,0,1,,,,
,,A000000000,2022-11-28_21h07.16.645,GoFitts,2022.2.4,Win32,74.51009612,,,,,,,,,,,,,,,,,,"[73.39153616404997,-225.875922620099]","[-118.74999999999994,205.6810333988042]",40.5,475,2,"[72,72,72,71,71,71,71,71,71,71,69,61,49,34,12,-13,-36,-57,-75,-88,-96,-101,-104,-105]","[-209,-212,-214,-215,-216,-218,-218,-218,-218,-218,-214,-198,-174,-140,-91,-37,19,72,111,145,166,180,190,197]","[0,0,0,0,0,0,0,0,0,0,0,0,0,0,0,0,0,0,0,0,0,0,0,0]","[0,0,0,0,0,0,0,0,0,0,0,0,0,0,0,0,0,0,0,0,0,0,0,0]","[0,0,0,0,0,0,0,0,0,0,0,0,0,0,0,0,0,0,0,0,0,0,0,0]","[0.0000999999940418661,0.012800000011921497,0.0259999999999998,0.03950000000000031,0.05290000000596251,0.06630000001192116,0.07619999998808069,0.09250000000000114,0.10309999999403985,0.11919999998807995,0.13269999998808046,0.14619999998808098,0.1595000000000013,0.1725999999940413,0.18640000000596046,0.19950000000000045,0.21269999998807876,0.22600000000000264,0.2394000000059613,0.2529000000059618,0.2660999999940401,0.2793000000119221,0.2925000000000004,0.30600000000000094]",,4,0,4,0,1,,,,
,,A000000000,2022-11-28_21h07.16.645,GoFitts,2022.2.4,Win32,74.51009612,,,,,,,,,,,,,,,,,,"[-118.74999999999994,205.6810333988042]","[158.9185190102289,-176.49689605088108]",40.5,475,2,"[-105,-107,-107,-108,-109,-110,-111,-111,-112,-113,-113,-114,-116,-117,-119,-119,-115,-101,-76,-41,-4,20,44,62,77,88,97,104,108,112,115,119,123,127,130,133,135,138,141,145]","[197,203,208,211,214,217,220,221,222,222,222,222,222,220,215,206,194,160,116,65,16,-19,-53,-78,-98,-113,-125,-134,-140,-142,-145,-149,-152,-155,-157,-159,-160,-162,-164,-166]","[0,0,0,0,0,0,0,0,0,0,0,0,0,0,0,0,0,0,0,0,0,0,0,0,0,0,0,0,0,0,0,0,0,0,0,0,0,0,0,0]","[0,0,0,0,0,0,0,0,0,0,0,0,0,0,0,0,0,0,0,0,0,0,0,0,0,0,0,0,0,0,0,0,0,0,0,0,0,0,0,0]","[0,0,0,0,0,0,0,0,0,0,0,0,0,0,0,0,0,0,0,0,0,0,0,0,0,0,0,0,0,0,0,0,0,0,0,0,0,0,0,0]","[0.0002999999821184929,0.01309999999403999,0.026399999976156607,0.036899999976157005,0.05319999998807745,0.06659999999403965,0.07969999998807609,0.09009999999403817,0.10350000000000037,0.1197999999821171,0.129999999999999,0.1433999999761575,0.1598999999761581,0.17319999998807845,0.18649999999999878,0.19969999998807708,0.2099999999999973,0.2259999999999991,0.2398999999761564,0.2532999999821186,0.26659999999403894,0.2799999999999976,0.2930999999940376,0.3064999999999998,0.3197999999821164,0.3330999999940367,0.3463999999761569,0.3597999999821191,0.3730999999940394,0.38349999999999795,0.39649999999999963,0.41279999998211636,0.4263999999761552,0.43679999998211727,0.452499999999997,0.46659999999403823,0.47979999998211653,0.49319999998807873,0.5064999999999991,0.5196999999880774]",,5,0,5,0,1,,,,
,,A000000000,2022-11-28_21h07.16.645,GoFitts,2022.2.4,Win32,74.51009612,,,,,,,,,,,,,,,,,,"[158.9185190102289,-176.49689605088108]","[-192.14153616405,139.5989974194624]",40.5,475,2,"[145,148,151,151,151,151,151,151,151,145,129,99,61,20,-13,-72,-107,-135,-153,-165,-171,-175,-177,-179]","[-166,-168,-169,-169,-169,-169,-169,-169,-169,-167,-157,-138,-113,-80,-52,-1,36,67,89,105,115,121,123,125]","[0,0,0,0,0,0,0,0,0,0,0,0,0,0,0,0,0,0,0,0,0,0,0,0]","[0,0,0,0,0,0,0,0,0,0,0,0,0,0,0,0,0,0,0,0,0,0,0,0]","[0,0,0,0,0,0,0,0,0,0,0,0,0,0,0,0,0,0,0,0,0,0,0,0]","[0.00009999999403831339,0.013299999982116617,0.026399999976156607,0.03989999997615712,0.05309999999403914,0.06689999997615814,0.07669999998807953,0.0931999999880766,0.103699999988077,0.11989999997615897,0.1331999999880793,0.1463999999761576,0.15969999998807793,0.17309999999404013,0.18339999997615664,0.19979999998211895,0.21309999999403928,0.22649999999999793,0.23969999998807978,0.25319999998807674,0.2663999999761586,0.2799999999999976,0.2930999999940376,0.30639999997615774]",,6,0,6,0,1,,,,
,,A000000000,2022-11-28_21h07.16.645,GoFitts,2022.2.4,Win32,74.51009612,,,,,,,,,,,,,,,,,,"[-192.14153616405,139.5989974194624]","[216.96704619011774,-96.59995273050254]",40.5,475,2,"[-179,-182,-184,-187,-190,-192,-194,-196,-196,-197,-197,-197,-197,-194,-187,-166,-133,-96,-12,50,119,162,194,214]","[125,128,129,131,133,135,139,141,142,142,142,143,143,140,134,115,87,58,2,-34,-68,-87,-98,-101]","[0,0,0,0,0,0,0,0,0,0,0,0,0,0,0,0,0,0,0,0,0,0,0,0]","[0,0,0,0,0,0,0,0,0,0,0,0,0,0,0,0,0,0,0,0,0,0,0,0]","[0,0,0,0,0,0,0,0,0,0,0,0,0,0,0,0,0,0,0,0,0,0,0,0]","[0.0001999999880801795,0.014500000000001734,0.026599999994040502,0.039900000005960834,0.053199999988081004,0.06359999999403954,0.07969999998807964,0.09309999999404184,0.10650000000000048,0.11990000000596268,0.1299000000059607,0.14329999998211918,0.15700000000000003,0.1732999999821203,0.18340000000596035,0.20019999998807947,0.21319999998808115,0.223699999988078,0.23990000000596012,0.25340000000596064,0.26659999999403894,0.2797999999821208,0.2930999999940411,0.30640000000596146]",,7,0,7,0,1,,,,
,,A000000000,2022-11-28_21h07.16.645,GoFitts,2022.2.4,Win32,74.51009612,,,,,,,,,,,,,,,,,,"[216.96704619011774,-96.59995273050254]","[-232.31005517427886,49.379026569217835]",40.5,475,2,"[214,223,230,234,237,240,242,244,244,244,244,245,245,245,241,235,225,204,173,130,85,11,-52,-101,-136,-158,-169,-177,-183,-189,-195,-202,-207,-216,-224]","[-101,-101,-101,-101,-99,-99,-98,-98,-98,-98,-98,-98,-98,-98,-99,-99,-100,-100,-95,-87,-76,-56,-37,-22,-12,-4,2,8,12,16,21,26,31,37,43]","[0,0,0,0,0,0,0,0,0,0,0,0,0,0,0,0,0,0,0,0,0,0,0,0,0,0,0,0,0,0,0,0,0,0,0]","[0,0,0,0,0,0,0,0,0,0,0,0,0,0,0,0,0,0,0,0,0,0,0,0,0,0,0,0,0,0,0,0,0,0,0]","[0,0,0,0,0,0,0,0,0,0,0,0,0,0,0,0,0,0,0,0,0,0,0,0,0,0,0,0,0,0,0,0,0,0,0]","[0.00019999998807662678,0.013199999988078304,0.02659999999403695,0.03990000000595728,0.05330000001191948,0.06669999998807796,0.07699999999999818,0.09340000000596049,0.1065999999940388,0.11980000001192082,0.13019999998807918,0.14649999999999963,0.15669999998807782,0.17040000000595867,0.18709999999403948,0.2000999999940376,0.2131999999880776,0.2266999999880781,0.23990000000596012,0.25330000001191877,0.26369999998807714,0.28009999999403945,0.2934000000059598,0.3066999999880764,0.3199000000059584,0.3333000000119206,0.34659999999403723,0.35990000000595757,0.37319999998807774,0.3865999999940364,0.3999999999999986,0.4131999999880769,0.4265999999940391,0.4399000000059594,0.45330000001191806]",,8,0,8,0,1,,,,
,,A000000000,2022-11-28_21h07.16.645,GoFitts,2022.2.4,Win32,74.51009612,,,,,,,,,,,,,,,,,,"[-232.31005517427886,49.379026569217835]","[237.5,0]",40.5,475,2,"[-224,-232,-237,-241,-242,-244,-246,-247,-247,-247,-247,-245,-234,-211,-183,-131,-42,49,121,172,208,226]","[43,47,49,51,52,52,52,52,52,52,52,51,46,38,32,25,13,4,-5,-10,-14,-16]","[0,0,0,0,0,0,0,0,0,0,0,0,0,0,0,0,0,0,0,0,0,0]","[0,0,0,0,0,0,0,0,0,0,0,0,0,0,0,0,0,0,0,0,0,0]","[0,0,0,0,0,0,0,0,0,0,0,0,0,0,0,0,0,0,0,0,0,0]","[0.0001999999880801795,0.01309999999403999,0.026400000005960322,0.039599999994038626,0.05000000000000071,0.06669999998807796,0.07990000000595998,0.09319999998808015,0.1063000000119203,0.11990000000595913,0.1331999999880793,0.14640000000596132,0.16000000000000014,0.17319999998807845,0.18330000001192204,0.19669999998808052,0.2134000000059615,0.2264000000059596,0.2398000000119218,0.2530999999940384,0.26630000001192045,0.2795999999940406]",,9,0,9,0,1,,,,
,,A000000000,2022-11-28_21h07.16.645,GoFitts,2022.2.4,Win32,74.51009612,,,,,,,,,,,,,,,,,,"[237.5,0]","[-232.31005517427886,-49.37902656921778]",40.5,475,2,"[226,234,236,237,237,237,238,238,238,238,238,238,237,237,236,235,227,213,183,143,85,19,-48,-99,-137,-163,-181,-189,-197,-202,-210,-217,-223,-227,-233,-236,-238,-240,-241,-244,-246,-247,-248,-249,-248]","[-16,-16,-16,-16,-15,-13,-11,-11,-11,-10,-9,-7,-7,-7,-7,-7,-8,-13,-21,-31,-43,-53,-62,-69,-75,-80,-84,-87,-90,-90,-90,-90,-90,-90,-90,-90,-90,-89,-88,-85,-80,-76,-68,-64,-61]","[0,0,0,0,0,0,0,0,0,0,0,0,0,0,0,0,0,0,0,0,0,0,0,0,0,0,0,0,0,0,0,0,0,0,0,0,0,0,0,0,0,0,0,0,0]","[0,0,0,0,0,0,0,0,0,0,0,0,0,0,0,0,0,0,0,0,0,0,0,0,0,0,0,0,0,0,0,0,0,0,0,0,0,0,0,0,0,0,0,0,0]","[0,0,0,0,0,0,0,0,0,0,0,0,0,0,0,0,0,0,0,0,0,0,0,0,0,0,0,0,0,0,0,0,0,0,0,0,0,0,0,0,0,0,0,0,0]","[0.0001999999880801795,0.013199999988078304,0.026599999994040502,0.03999999999999915,0.050099999994039024,0.06350000000000122,0.08019999998807847,0.09309999999403828,0.10350000000000037,0.12009999999403931,0.13359999999403982,0.1466999999880798,0.16009999999403846,0.17019999998807833,0.18689999997615914,0.19719999998807936,0.21359999999403811,0.2265999999940398,0.240000000000002,0.2531999999880803,0.2666999999880808,0.28009999999403945,0.2933999999761596,0.3065999999940381,0.3200000000000003,0.3331999999880786,0.3465999999940408,0.3569999999999993,0.3732999999821196,0.3835999999940398,0.40019999998807876,0.41319999998808044,0.42650000000000077,0.43700000000000117,0.45339999997615976,0.46659999999403823,0.47679999998211997,0.49350000000000094,0.5067999999821176,0.5198999999761575,0.5332999999821197,0.5436999999880783,0.5600999999940406,0.5733999999761572,0.583699999988081]",,10,0,10,0,1,,,,
,,A000000000,2022-11-28_21h07.16.645,GoFitts,2022.2.4,Win32,74.51009612,,,,,,,,,,,,,,,,,,"[-232.31005517427886,-49.37902656921778]","[216.9670461901177,96.59995273050254]",40.5,475,2,"[-248,-241,-231,-223,-205,-194,-182,-172,-165,-158,-147,-132,-108,-75,-35,15,63,105,134,160,182,190,197,203]","[-61,-54,-48,-44,-38,-34,-33,-31,-31,-30,-29,-27,-20,-10,4,23,41,57,71,82,93,98,101,105]","[0,0,0,0,0,0,0,0,0,0,0,0,0,0,0,0,0,0,0,0,0,0,0,0]","[0,0,0,0,0,0,0,0,0,0,0,0,0,0,0,0,0,0,0,0,0,0,0,0]","[0,0,0,0,0,0,0,0,0,0,0,0,0,0,0,0,0,0,0,0,0,0,0,0]","[0.0001999999880801795,0.01600000000000179,0.029399999976160274,0.03950000000000031,0.05600000000000094,0.06939999997615942,0.08259999999404144,0.09619999998808026,0.10929999998212026,0.1226999999880789,0.1360999999940411,0.1491999999880811,0.16250000000000142,0.17600000000000193,0.18929999998211855,0.20259999999403888,0.21589999997615905,0.22909999999404107,0.23969999998807978,0.2530000000000001,0.2693999999761587,0.2825000000000024,0.2959999999999994,0.30929999998211954]",,11,0,11,0,1,,,,
,,A000000000,2022-11-28_21h07.16.645,GoFitts,2022.2.4,Win32,74.51009612,,,,,,,,,,,,,,,,,,"[216.9670461901177,96.59995273050254]","[-192.14153616405002,-139.59899741946234]",40.5,475,2,"[203,210,217,223,229,232,232,232,232,232,232,232,232,230,220,198,167,122,76,-8,-73,-132,-170,-192,-213,-219,-223,-226,-228,-230,-231,-233,-233,-233,-233,-233,-230,-223,-214,-203]","[105,106,107,107,107,107,107,107,107,107,107,107,107,106,99,86,68,46,25,-10,-35,-59,-78,-90,-106,-113,-120,-126,-130,-134,-136,-137,-139,-140,-141,-141,-142,-143,-143,-139]","[0,0,0,0,0,0,0,0,0,0,0,0,0,0,0,0,0,0,0,0,0,0,0,0,0,0,0,0,0,0,0,0,0,0,0,0,0,0,0,0]","[0,0,0,0,0,0,0,0,0,0,0,0,0,0,0,0,0,0,0,0,0,0,0,0,0,0,0,0,0,0,0,0,0,0,0,0,0,0,0,0]","[0,0,0,0,0,0,0,0,0,0,0,0,0,0,0,0,0,0,0,0,0,0,0,0,0,0,0,0,0,0,0,0,0,0,0,0,0,0,0,0]","[0.0000999999940418661,0.013199999988078304,0.026299999982118294,0.03989999997616067,0.05529999998211821,0.0683999999761582,0.07979999998211795,0.09319999998808015,0.10339999997615834,0.11679999998212054,0.129999999999999,0.1465999999940415,0.156899999976158,0.17009999999404002,0.18659999999404064,0.19989999997615726,0.21300000000000097,0.22629999998212114,0.23679999998211798,0.2532999999821186,0.2662999999821203,0.2797999999821208,0.29319999998807944,0.30339999997615763,0.31979999998211994,0.3330999999940403,0.3465000000000025,0.3596999999880808,0.3732999999821196,0.3865000000000016,0.39979999998211824,0.41029999998211863,0.4232999999821203,0.43689999997615914,0.4535000000000018,0.4666999999880801,0.4789999999999992,0.4930999999940404,0.5064999999999991,0.5196999999880809]",,12,0,12,0,1,,,,
,,A000000000,2022-11-28_21h07.16.645,GoFitts,2022.2.4,Win32,74.51009612,,,,,,,,,,,,,,,,,,"[-192.14153616405002,-139.59899741946234]","[158.91851901022883,176.49689605088113]",40.5,475,2,"[-203,-194,-189,-189,-189,-189,-189,-189,-189,-189,-188,-183,-175,-149,-111,-62,0,45,105,134,151]","[-139,-137,-135,-135,-135,-135,-135,-135,-135,-135,-131,-124,-113,-85,-40,6,57,88,129,148,160]","[0,0,0,0,0,0,0,0,0,0,0,0,0,0,0,0,0,0,0,0,0]","[0,0,0,0,0,0,0,0,0,0,0,0,0,0,0,0,0,0,0,0,0]","[0,0,0,0,0,0,0,0,0,0,0,0,0,0,0,0,0,0,0,0,0]","[0.0001999999880801795,0.01309999999403999,0.02650000000000219,0.03679999998211869,0.050099999994039024,0.06350000000000122,0.07989999997615982,0.09029999998211835,0.10629999998212014,0.11689999997615885,0.13329999998212116,0.14649999999999963,0.15669999998808137,0.173199999988082,0.18659999999404064,0.1998999999761608,0.21300000000000097,0.22350000000000136,0.23989999997615996,0.253099999994042,0.2665000000000006]",,13,0,13,0,1,,,,
,,A000000000,2022-11-28_21h07.16.645,GoFitts,2022.2.4,Win32,74.51009612,,,,,,,,,,,,,,,,,,"[158.91851901022883,176.49689605088113]","[-118.7500000000001,-205.68103339880415]",40.5,475,2,"[151,159,163,165,166,168,172,177,181,184,186,186,186,186,186,186,185,180,168,150,126,100,65,30,-8,-43,-69,-90,-106,-114,-122]","[160,167,170,172,172,172,173,173,173,172,172,172,172,172,172,172,171,165,150,129,100,65,21,-23,-67,-105,-135,-158,-174,-185,-192]","[0,0,0,0,0,0,0,0,0,0,0,0,0,0,0,0,0,0,0,0,0,0,0,0,0,0,0,0,0,0,0]","[0,0,0,0,0,0,0,0,0,0,0,0,0,0,0,0,0,0,0,0,0,0,0,0,0,0,0,0,0,0,0]","[0,0,0,0,0,0,0,0,0,0,0,0,0,0,0,0,0,0,0,0,0,0,0,0,0,0,0,0,0,0,0]","[0.0001999999880801795,0.012999999999998124,0.026400000005960322,0.03969999998807694,0.05330000001191948,0.06330000001192104,0.08009999999404016,0.09319999998808015,0.1063000000119203,0.11980000001192082,0.1331999999880793,0.14349999999999952,0.15690000000595816,0.17319999998807845,0.18340000000596035,0.1999999999999993,0.21000000000000085,0.22319999998807916,0.23990000000596012,0.2531999999880803,0.26640000000595876,0.27969999998807893,0.29319999998807944,0.30640000000596146,0.3198000000119201,0.3330999999940403,0.3464999999999989,0.35980000001191925,0.3730999999940394,0.38630000001192144,0.39980000001192195]",,14,0,14,0,1,,,,
,,A000000000,2022-11-28_21h07.16.645,GoFitts,2022.2.4,Win32,74.51009612,,,,,,,,,,,,,,,,,,,,,,2,,,,,,,,,,,,,2,0,0,1
,,A000000000,2022-11-28_21h07.16.645,GoFitts,2022.2.4,Win32,74.51009612,,,,,,,,,,,,,,,,return,0.3867,"[93,90]","[200,0]",48,400,3,"[93,93,93,93,93,93,93,93,93,93,93,93,93,93,93,93,93,93,93,93,93,94,96,102,113,123,137,158,176,190,199]","[90,90,90,90,90,90,90,90,90,90,90,90,90,90,90,90,90,90,90,90,90,88,86,81,73,65,56,42,32,24,20]","[0,0,0,0,0,0,0,0,0,0,0,0,0,0,0,0,0,0,0,0,0,0,0,0,0,0,0,0,0,0,0]","[0,0,0,0,0,0,0,0,0,0,0,0,0,0,0,0,0,0,0,0,0,0,0,0,0,0,0,0,0,0,0]","[0,0,0,0,0,0,0,0,0,0,0,0,0,0,0,0,0,0,0,0,0,0,0,0,0,0,0,0,0,0,0]","[0.00030000001192220793,0.01600000000000179,0.026200000017883696,0.03960000002384234,0.055900000005962625,0.06610000002384098,0.0826000000238416,0.09270000001788148,0.10930000001192042,0.11950000000000216,0.13620000001788313,0.14910000002384294,0.15960000002384334,0.17260000002384146,0.1884000000059629,0.19920000001788196,0.21590000000596277,0.22610000002384112,0.24220000001788122,0.2529000000059618,0.2694000000059624,0.28270000001788276,0.29260000002384245,0.3059000000059626,0.3227000000178819,0.3362000000178824,0.3463000000119223,0.3628000000119229,0.3759000000059629,0.38920000001788324,0.3996000000238418]",,0,0,0,0,1,,,,
,,A000000000,2022-11-28_21h07.16.645,GoFitts,2022.2.4,Win32,74.51009612,,,,,,,,,,,,,,,,,,"[200,0]","[-195.62952014676114,-41.58233816355181]",48,400,3,"[199,206,208,210,211,212,212,212,212,207,193,166,128,77,24,-34,-75,-97,-109,-113,-115,-117,-119,-125,-132,-140,-146,-155,-159,-163,-165,-166,-167,-169,-169,-169,-170,-170,-170,-172,-173,-174,-177,-180,-182]","[20,17,14,13,11,11,11,11,11,11,10,10,15,26,43,65,84,99,107,112,114,115,115,115,114,111,109,103,99,92,85,76,68,54,45,34,23,13,5,-3,-9,-13,-19,-23,-27]","[0,0,0,0,0,0,0,0,0,0,0,0,0,0,0,0,0,0,0,0,0,0,0,0,0,0,0,0,0,0,0,0,0,0,0,0,0,0,0,0,0,0,0,0,0]","[0,0,0,0,0,0,0,0,0,0,0,0,0,0,0,0,0,0,0,0,0,0,0,0,0,0,0,0,0,0,0,0,0,0,0,0,0,0,0,0,0,0,0,0,0]","[0,0,0,0,0,0,0,0,0,0,0,0,0,0,0,0,0,0,0,0,0,0,0,0,0,0,0,0,0,0,0,0,0,0,0,0,0,0,0,0,0,0,0,0,0]","[0.00020000001788389454,0.015900000005959924,0.02909999999404178,0.042500000000000426,0.05290000000596251,0.06970000001788179,0.08259999999404144,0.09600000000000009,0.10620000001788199,0.12259999999404059,0.1358000000119226,0.14920000001788125,0.16250000000000142,0.17580000001192175,0.18909999999404192,0.20250000000000057,0.21590000000596277,0.22900000000000276,0.2424000000059614,0.2558000000119236,0.2690999999940402,0.28259999999404073,0.2959999999999994,0.30909999999403936,0.32250000000000156,0.3359000000059602,0.34609999999404195,0.36230000001192053,0.3729000000059628,0.38930000001192155,0.40249999999999986,0.41590000000596206,0.42609999999404025,0.44220000001788407,0.4559000000059612,0.4690999999940395,0.48240000000595984,0.49590000000596035,0.5090000000000003,0.5225999999940392,0.5358000000119212,0.5460999999940412,0.5619000000059629,0.575700000017882,0.5890999999940405]",,1,0,1,0,1,,,,
,,A000000000,2022-11-28_21h07.16.645,GoFitts,2022.2.4,Win32,74.51009612,,,,,,,,,,,,,,,,,,"[-195.62952014676114,-41.58233816355181]","[182.70909152852016,81.34732861516002]",48,400,3,"[-182,-184,-186,-188,-191,-193,-196,-196,-196,-196,-195,-188,-163,-138,-80,-19,37,77,104,121,131,136,141,146,153,160,167]","[-27,-29,-32,-33,-35,-36,-37,-37,-37,-37,-37,-34,-26,-19,-2,15,26,33,38,44,49,53,55,58,61,64,66]","[0,0,0,0,0,0,0,0,0,0,0,0,0,0,0,0,0,0,0,0,0,0,0,0,0,0,0]","[0,0,0,0,0,0,0,0,0,0,0,0,0,0,0,0,0,0,0,0,0,0,0,0,0,0,0]","[0,0,0,0,0,0,0,0,0,0,0,0,0,0,0,0,0,0,0,0,0,0,0,0,0,0,0]","[0.0001999999880801795,0.013199999988078304,0.026499999999998636,0.04019999998807933,0.05019999998807734,0.06689999997615814,0.07969999998807964,0.09029999998211835,0.10369999998808055,0.12019999998807762,0.13359999999403982,0.14679999998211812,0.16009999999403846,0.1702999999821202,0.18619999998808012,0.20009999999404116,0.21329999998211946,0.22650000000000148,0.23999999999999844,0.2533999999761569,0.26669999998807725,0.28000000000000114,0.2933999999761596,0.3065999999940381,0.31989999997615826,0.3331999999880786,0.3465999999940408]",,2,0,2,0,1,,,,
,,A000000000,2022-11-28_21h07.16.645,GoFitts,2022.2.4,Win32,74.51009612,,,,,,,,,,,,,,,,,,"[182.70909152852016,81.34732861516002]","[-161.80339887498948,-117.5570504584946]",48,400,3,"[167,172,175,176,178,179,179,179,180,179,177,173,160,140,109,71,28,-17,-52,-80,-102,-115,-125,-133,-140,-147,-153]","[66,67,68,69,71,72,72,72,72,72,71,67,58,46,28,7,-13,-32,-45,-57,-67,-76,-82,-87,-91,-95,-100]","[0,0,0,0,0,0,0,0,0,0,0,0,0,0,0,0,0,0,0,0,0,0,0,0,0,0,0]","[0,0,0,0,0,0,0,0,0,0,0,0,0,0,0,0,0,0,0,0,0,0,0,0,0,0,0]","[0,0,0,0,0,0,0,0,0,0,0,0,0,0,0,0,0,0,0,0,0,0,0,0,0,0,0]","[0.0000999999940418661,0.01309999999403999,0.02630000001192201,0.036599999994042065,0.05000000000000071,0.06350000000000122,0.07990000000595998,0.09020000001788375,0.10670000001788082,0.1168000000119207,0.13000000000000256,0.14349999999999952,0.16000000000000014,0.17309999999404013,0.18640000000596046,0.1999999999999993,0.21309999999403928,0.2265999999940398,0.2398000000119218,0.25340000000596064,0.2665000000000006,0.27980000001192096,0.29320000001788316,0.30640000000596146,0.3197000000178818,0.3332000000178823,0.3465000000000025]",,3,0,3,0,1,,,,
,,A000000000,2022-11-28_21h07.16.645,GoFitts,2022.2.4,Win32,74.51009612,,,,,,,,,,,,,,,,,,"[-161.80339887498948,-117.5570504584946]","[133.82612127177165,148.62896509547886]",48,400,3,"[-153,-158,-163,-167,-169,-170,-172,-174,-175,-176,-176,-176,-170,-150,-125,-88,-43,-6,41,82,105,121,128,133,136,139,141,143,144,146,147,147,147,147,145]","[-100,-104,-106,-109,-112,-113,-116,-117,-120,-120,-120,-120,-113,-96,-76,-49,-20,6,37,65,83,95,102,108,111,115,117,120,121,123,125,126,127,128,129]","[0,0,0,0,0,0,0,0,0,0,0,0,0,0,0,0,0,0,0,0,0,0,0,0,0,0,0,0,0,0,0,0,0,0,0]","[0,0,0,0,0,0,0,0,0,0,0,0,0,0,0,0,0,0,0,0,0,0,0,0,0,0,0,0,0,0,0,0,0,0,0]","[0,0,0,0,0,0,0,0,0,0,0,0,0,0,0,0,0,0,0,0,0,0,0,0,0,0,0,0,0,0,0,0,0,0,0]","[0.00030000001192220793,0.013200000017882019,0.026600000023840664,0.039900000005960834,0.050300000011919366,0.06340000000595936,0.07699999999999818,0.09010000002384189,0.10680000001191914,0.11990000000595913,0.1302000000178829,0.14349999999999952,0.15690000000596172,0.17350000000000065,0.18670000001788267,0.2003000000119215,0.2134000000059615,0.22350000000000136,0.23710000002384035,0.25320000001788046,0.26660000002384265,0.27980000001192096,0.2932000000178796,0.3066000000238418,0.31680000001192,0.33340000000595893,0.3470000000000013,0.3599000000059611,0.37320000001788145,0.3869000000059586,0.4002000000178825,0.41330000001192246,0.4267000000178811,0.436800000011921,0.4533000000119216]",,4,0,4,0,1,,,,
,,A000000000,2022-11-28_21h07.16.645,GoFitts,2022.2.4,Win32,74.51009612,,,,,,,,,,,,,,,,,,"[133.82612127177165,148.62896509547886]","[-100.00000000000009,-173.2050807568877]",48,400,3,"[145,144,142,140,137,137,137,137,137,136,134,131,124,115,99,76,49,10,-15,-38,-54,-66,-74,-81,-87,-91,-98,-100,-101,-102,-102,-102]","[129,131,133,137,140,141,141,142,142,142,137,128,116,103,79,53,28,-4,-26,-46,-65,-82,-96,-109,-118,-124,-133,-139,-143,-145,-149,-151]","[0,0,0,0,0,0,0,0,0,0,0,0,0,0,0,0,0,0,0,0,0,0,0,0,0,0,0,0,0,0,0,0]","[0,0,0,0,0,0,0,0,0,0,0,0,0,0,0,0,0,0,0,0,0,0,0,0,0,0,0,0,0,0,0,0]","[0,0,0,0,0,0,0,0,0,0,0,0,0,0,0,0,0,0,0,0,0,0,0,0,0,0,0,0,0,0,0,0]","[0.00020000001788389454,0.013400000005962198,0.02650000000000219,0.03980000001192252,0.05320000001788472,0.06670000001788168,0.07960000002384504,0.09010000002384189,0.10330000001192374,0.12020000001788134,0.133200000017883,0.14650000000000318,0.15970000001788165,0.1699000000059634,0.18330000001192204,0.19650000000000034,0.2102000000178812,0.2263000000119213,0.2397000000178835,0.25310000002384214,0.2664000000059623,0.27970000001788264,0.29320000001788316,0.30630000001192315,0.3197000000178818,0.33000000000000185,0.3465000000000025,0.360100000023845,0.37310000002384314,0.3833000000119213,0.3996000000238418,0.41010000002384217]",,5,0,5,0,1,,,,
,,A000000000,2022-11-28_21h07.16.645,GoFitts,2022.2.4,Win32,74.51009612,,,,,,,,,,,,,,,,,,"[-100.00000000000009,-173.2050807568877]","[61.80339887498949,190.2113032590307]",48,400,3,"[-102,-101,-100,-100,-100,-100,-100,-97,-94,-90,-84,-78,-67,-52,-37,-28,-13,5,16,32,43,51]","[-151,-152,-153,-154,-155,-155,-155,-156,-155,-149,-135,-121,-94,-56,-19,9,52,95,120,145,161,171]","[0,0,0,0,0,0,0,0,0,0,0,0,0,0,0,0,0,0,0,0,0,0]","[0,0,0,0,0,0,0,0,0,0,0,0,0,0,0,0,0,0,0,0,0,0]","[0,0,0,0,0,0,0,0,0,0,0,0,0,0,0,0,0,0,0,0,0,0]","[0.0001999999880801795,0.016099999994040104,0.029300000011922123,0.039900000005960834,0.05640000000596146,0.0698000000119201,0.07980000001192167,0.0963000000119223,0.10650000000000048,0.12290000000595924,0.13599999999999923,0.14619999998808098,0.15990000000596183,0.17590000000596007,0.18940000000596058,0.19990000000596098,0.2131999999880776,0.22840000000596206,0.2398000000119218,0.2561999999880804,0.2694000000059589,0.28269999998807904]",,6,0,6,0,1,,,,
,,A000000000,2022-11-28_21h07.16.645,GoFitts,2022.2.4,Win32,74.51009612,,,,,,,,,,,,,,,,,,"[61.80339887498949,190.2113032590307]","[-20.905692653530846,-198.90437907365467]",48,400,3,"[51,58,61,64,65,65,67,68,69,70,70,70,70,70,70,69,63,57,47,31,18,6,-4,-7,-10,-11,-11,-11,-13,-14,-15,-17,-18]","[171,179,185,189,191,193,194,196,198,198,199,199,199,199,196,189,169,152,119,71,28,-13,-56,-91,-118,-138,-151,-160,-165,-168,-171,-174,-176]","[0,0,0,0,0,0,0,0,0,0,0,0,0,0,0,0,0,0,0,0,0,0,0,0,0,0,0,0,0,0,0,0,0]","[0,0,0,0,0,0,0,0,0,0,0,0,0,0,0,0,0,0,0,0,0,0,0,0,0,0,0,0,0,0,0,0,0]","[0,0,0,0,0,0,0,0,0,0,0,0,0,0,0,0,0,0,0,0,0,0,0,0,0,0,0,0,0,0,0,0,0]","[0.0000999999940418661,0.013199999988081856,0.02650000000000219,0.039799999982118806,0.053199999988081004,0.06750000000000256,0.08000000000000185,0.09350000000000236,0.10740000000596339,0.12079999998211832,0.13390000000596203,0.1466999999880798,0.15990000000596183,0.1702999999821202,0.18669999998807896,0.19679999998211883,0.21329999998211946,0.22359999999403968,0.23690000000596,0.2532999999821186,0.2666999999880808,0.2799000000059628,0.2930999999940411,0.30659999999404164,0.3200000000000003,0.33329999998212045,0.3466999999880791,0.360000000000003,0.3730999999940394,0.38659999999403993,0.39979999998211824,0.41319999998808044,0.42650000000000077]",,7,0,7,0,1,,,,
,,A000000000,2022-11-28_21h07.16.645,GoFitts,2022.2.4,Win32,74.51009612,,,,,,,,,,,,,,,,,,"[-20.905692653530846,-198.90437907365467]","[-20.905692653530668,198.90437907365467]",48,400,3,"[-18,-19,-21,-21,-22,-23,-23,-23,-23,-23,-23,-23,-23,-23,-22,-22,-25,-27,-29,-28,-26,-25,-21,-18,-16,-14,-13,-13,-12,-12,-12,-12,-12,-12,-12,-12,-13,-13,-14,-17,-18]","[-176,-178,-180,-183,-186,-189,-191,-192,-194,-194,-194,-194,-194,-186,-173,-143,-105,-64,-26,10,38,56,85,101,113,124,133,139,144,151,156,159,163,166,167,167,168,170,172,175,180]","[0,0,0,0,0,0,0,0,0,0,0,0,0,0,0,0,0,0,0,0,0,0,0,0,0,0,0,0,0,0,0,0,0,0,0,0,0,0,0,0,0]","[0,0,0,0,0,0,0,0,0,0,0,0,0,0,0,0,0,0,0,0,0,0,0,0,0,0,0,0,0,0,0,0,0,0,0,0,0,0,0,0,0]","[0,0,0,0,0,0,0,0,0,0,0,0,0,0,0,0,0,0,0,0,0,0,0,0,0,0,0,0,0,0,0,0,0,0,0,0,0,0,0,0,0]","[0.0003000000119186552,0.013300000011920332,0.02340000000596021,0.039599999994038626,0.05330000001191948,0.06649999999999778,0.07680000001192155,0.09049999999999869,0.10380000001191902,0.12009999999403931,0.1303000000119212,0.14380000001192172,0.15700000000000003,0.17330000001192047,0.18349999999999866,0.1999999999999993,0.21330000001191962,0.2263000000119213,0.2398000000119218,0.25330000001191877,0.26659999999403894,0.2807000000178803,0.29359999999403996,0.30640000000596146,0.31959999999403976,0.3333000000119206,0.3464999999999989,0.35999999999999943,0.3730999999940394,0.38640000000595975,0.39980000001192195,0.41309999999403857,0.42650000000000077,0.4399000000059594,0.45320000001787974,0.4635999999940381,0.4800000000000004,0.49020000001788233,0.5037000000178793,0.5169000000059611,0.5334000000059582]",,8,0,8,0,1,,,,
,,A000000000,2022-11-28_21h07.16.645,GoFitts,2022.2.4,Win32,74.51009612,,,,,,,,,,,,,,,,,,"[-20.905692653530668,198.90437907365467]","[61.80339887498945,-190.21130325903073]",48,400,3,"[-18,-19,-19,-19,-19,-19,-16,-12,-6,3,11,21,30,39,44,47,49,51,53,54,55,56,56,57,57,58,59,59,60,61,61,61,61]","[180,181,182,182,182,180,171,158,142,119,90,54,20,-30,-63,-89,-110,-124,-133,-140,-144,-149,-151,-154,-157,-160,-163,-164,-165,-165,-165,-166,-167]","[0,0,0,0,0,0,0,0,0,0,0,0,0,0,0,0,0,0,0,0,0,0,0,0,0,0,0,0,0,0,0,0,0]","[0,0,0,0,0,0,0,0,0,0,0,0,0,0,0,0,0,0,0,0,0,0,0,0,0,0,0,0,0,0,0,0,0]","[0,0,0,0,0,0,0,0,0,0,0,0,0,0,0,0,0,0,0,0,0,0,0,0,0,0,0,0,0,0,0,0,0]","[0.00030000001192220793,0.013400000005962198,0.02650000000000219,0.03980000001192252,0.05010000002384274,0.06330000001192104,0.07970000001788335,0.09290000000596166,0.10620000001788199,0.11949999999999861,0.13290000000596436,0.146300000011923,0.15649999999999764,0.17280000001192164,0.18630000001192215,0.199500000000004,0.21270000001787892,0.2263000000119213,0.23950000000000315,0.25280000001191993,0.26630000001192045,0.2795000000000023,0.29290000000596095,0.30620000001788483,0.31660000002384336,0.33000000000000185,0.3465000000000025,0.35680000001191914,0.370000000000001,0.3865000000000016,0.3968000000119183,0.41300000000000026,0.42650000000000077]",,9,0,9,0,1,,,,
,,A000000000,2022-11-28_21h07.16.645,GoFitts,2022.2.4,Win32,74.51009612,,,,,,,,,,,,,,,,,,"[61.80339887498945,-190.21130325903073]","[-99.99999999999996,173.20508075688775]",48,400,3,"[61,61,61,61,60,58,55,51,39,27,8,-16,-41,-68,-87,-100,-108,-113,-115,-117]","[-167,-168,-169,-170,-170,-170,-170,-167,-152,-129,-96,-55,-9,35,71,101,124,141,153,160]","[0,0,0,0,0,0,0,0,0,0,0,0,0,0,0,0,0,0,0,0]","[0,0,0,0,0,0,0,0,0,0,0,0,0,0,0,0,0,0,0,0]","[0,0,0,0,0,0,0,0,0,0,0,0,0,0,0,0,0,0,0,0]","[0.00019999998807662678,0.01309999999403999,0.023499999999998522,0.03909999999403624,0.04990000000595529,0.06649999999999778,0.07969999998807964,0.08969999998807765,0.10629999998211304,0.11959999999403692,0.1329000000059608,0.14619999998807742,0.15940000000595944,0.17309999999403658,0.18629999998211844,0.19959999999403522,0.21299999999999386,0.22609999999403385,0.23959999999403436,0.25290000000595825]",,10,0,10,0,1,,,,
,,A000000000,2022-11-28_21h07.16.645,GoFitts,2022.2.4,Win32,74.51009612,,,,,,,,,,,,,,,,,,"[-99.99999999999996,173.20508075688775]","[133.82612127177168,-148.6289650954788]",48,400,3,"[-117,-118,-118,-119,-119,-119,-120,-120,-120,-120,-120,-120,-120,-116,-109,-102,-94,-79,-60,-38,-10,15,49,70,97,109,115,119,121,124,127,128,130,131,132,133]","[160,166,170,173,174,175,176,176,176,177,177,177,177,176,173,167,158,138,110,80,42,15,-24,-42,-69,-83,-92,-98,-103,-108,-111,-114,-117,-120,-123,-125]","[0,0,0,0,0,0,0,0,0,0,0,0,0,0,0,0,0,0,0,0,0,0,0,0,0,0,0,0,0,0,0,0,0,0,0,0]","[0,0,0,0,0,0,0,0,0,0,0,0,0,0,0,0,0,0,0,0,0,0,0,0,0,0,0,0,0,0,0,0,0,0,0,0]","[0,0,0,0,0,0,0,0,0,0,0,0,0,0,0,0,0,0,0,0,0,0,0,0,0,0,0,0,0,0,0,0,0,0,0,0]","[0.0000999999940418661,0.012900000005963363,0.02640000000595677,0.03990000000595728,0.05309999999403914,0.06659999999403965,0.0797000000178798,0.09290000000596166,0.10330000001192019,0.12009999999403931,0.13009999999403732,0.14640000000596132,0.15680000001191985,0.17300000000000182,0.1865999999940371,0.19970000001788435,0.21000000000000085,0.22590000000595722,0.23990000000596012,0.25290000000595825,0.2665000000000006,0.27670000001788253,0.2929000000059574,0.3034000000059578,0.3200000000000003,0.3329999999999984,0.3463000000119223,0.3598000000119228,0.37299999999999756,0.38670000001788196,0.39959999999403806,0.4129999999999967,0.4262000000178787,0.43970000001787923,0.4530999999940377,0.46320000001787776]",,11,0,11,0,1,,,,
,,A000000000,2022-11-28_21h07.16.645,GoFitts,2022.2.4,Win32,74.51009612,,,,,,,,,,,,,,,,,,"[133.82612127177168,-148.6289650954788]","[-161.80339887498945,117.55705045849464]",48,400,3,"[133,134,135,136,136,136,136,136,136,129,113,92,68,46,14,-27,-65,-97,-125,-147,-164,-172,-179,-182,-183,-185,-187,-187,-187,-187,-187,-187,-187,-184]","[-125,-129,-133,-135,-136,-136,-136,-136,-136,-132,-121,-106,-89,-76,-52,-21,6,26,44,60,73,83,92,97,101,104,109,111,112,113,113,113,114,114]","[0,0,0,0,0,0,0,0,0,0,0,0,0,0,0,0,0,0,0,0,0,0,0,0,0,0,0,0,0,0,0,0,0,0]","[0,0,0,0,0,0,0,0,0,0,0,0,0,0,0,0,0,0,0,0,0,0,0,0,0,0,0,0,0,0,0,0,0,0]","[0,0,0,0,0,0,0,0,0,0,0,0,0,0,0,0,0,0,0,0,0,0,0,0,0,0,0,0,0,0,0,0,0,0]","[0.00020000001788389454,0.016300000011924,0.029599999994040616,0.0429000000059645,0.05640000000596501,0.06959999999403976,0.07980000001192167,0.0960999999940455,0.10630000001192741,0.11990000000596268,0.13620000001788668,0.1497000000178872,0.16280000001192718,0.1732000000178857,0.18640000000596046,0.20300000000000296,0.21620000001788497,0.22959999999404346,0.2430000000000021,0.2562000000178841,0.26950000000000074,0.28270000001788276,0.29620000001788327,0.3094000000059651,0.3227000000178819,0.3332000000178823,0.34920000001788765,0.3598000000119228,0.37620000001788156,0.38659999999403993,0.3997000000178872,0.4130999999940457,0.4295999999940463,0.44000000000000483]",,12,0,12,0,1,,,,
,,A000000000,2022-11-28_21h07.16.645,GoFitts,2022.2.4,Win32,74.51009612,,,,,,,,,,,,,,,,,,"[-161.80339887498945,117.55705045849464]","[182.7090915285202,-81.34732861516002]",48,400,3,"[-184,-173,-162,-140,-123,-103,-87,-72,-56,-35,-12,11,44,80,127,174,218,246,263,270,272,272,272,272,272,271,270,267,262,252,236,211,192]","[114,114,114,112,108,102,97,90,83,72,60,49,33,13,-12,-36,-58,-73,-83,-87,-89,-89,-89,-89,-89,-89,-89,-89,-88,-84,-80,-76,-75]","[0,0,0,0,0,0,0,0,0,0,0,0,0,0,0,0,0,0,0,0,0,0,0,0,0,0,0,0,0,0,0,0,0]","[0,0,0,0,0,0,0,0,0,0,0,0,0,0,0,0,0,0,0,0,0,0,0,0,0,0,0,0,0,0,0,0,0]","[0,0,0,0,0,0,0,0,0,0,0,0,0,0,0,0,0,0,0,0,0,0,0,0,0,0,0,0,0,0,0,0,0]","[0.0001999999880837322,0.016299999982123836,0.026299999982121847,0.04279999998212247,0.05600000000000449,0.06929999998212111,0.08250000000000313,0.0960999999940455,0.10929999998212026,0.12259999999404414,0.13609999999404465,0.1492999999821194,0.1625999999940433,0.1760999999940438,0.18929999998211855,0.20250000000000057,0.2161999999880848,0.22919999998808294,0.24249999999999972,0.25579999998212344,0.26929999998212395,0.28239999997616394,0.2960000000000065,0.3090000000000046,0.319399999976163,0.3330000000000055,0.346399999976164,0.3628999999761646,0.37609999999403954,0.38939999997616326,0.4025999999940453,0.41619999998808055,0.4262999999821204]",,13,0,13,0,1,,,,
,,A000000000,2022-11-28_21h07.16.645,GoFitts,2022.2.4,Win32,74.51009612,,,,,,,,,,,,,,,,,,"[182.7090915285202,-81.34732861516002]","[-195.62952014676114,41.58233816355186]",48,400,3,"[192,168,158,157,157,157,158,158,159,160,161,162,161,155,138,113,73,21,-29,-76,-118,-146,-165,-173,-179,-180,-181,-181,-181,-181,-181,-181,-181,-181,-182,-182,-182,-182,-178,-166,-153,-145,-142,-142,-143,-150,-157,-165,-171,-175]","[-75,-73,-73,-73,-73,-73,-73,-73,-73,-73,-73,-73,-73,-73,-72,-70,-64,-53,-37,-22,-7,3,10,13,17,17,17,17,18,18,18,18,18,18,19,19,19,20,20,21,21,21,21,21,21,24,26,29,32,33]","[0,0,0,0,0,0,0,0,0,0,0,0,0,0,0,0,0,0,0,0,0,0,0,0,0,0,0,0,0,0,0,0,0,0,0,0,0,0,0,0,0,0,0,0,0,0,0,0,0,0]","[0,0,0,0,0,0,0,0,0,0,0,0,0,0,0,0,0,0,0,0,0,0,0,0,0,0,0,0,0,0,0,0,0,0,0,0,0,0,0,0,0,0,0,0,0,0,0,0,0,0]","[0,0,0,0,0,0,0,0,0,0,0,0,0,0,0,0,0,0,0,0,0,0,0,0,0,0,0,0,0,0,0,0,0,0,0,0,0,0,0,0,0,0,0,0,0,0,0,0,0,0]","[0.00019999998807662678,0.016199999988074865,0.02939999997615672,0.04289999997615723,0.055999999999997385,0.06629999998211389,0.0797999999821144,0.09299999999999642,0.10679999998211542,0.1203999999761578,0.13639999997615604,0.14979999998211468,0.16009999999403846,0.1758999999761599,0.18969999998807907,0.20279999998211906,0.2161999999880777,0.22959999999403635,0.2427999999821182,0.25619999998807685,0.2695999999940355,0.28279999998211736,0.29609999999404124,0.3064999999999998,0.3227999999821165,0.336299999982117,0.349399999976157,0.3626999999880809,0.3731999999880813,0.38639999997615604,0.3996999999880799,0.4129999999999967,0.4297999999821158,0.44279999998211395,0.45349999999999824,0.4666999999880801,0.48259999999403647,0.496099999994037,0.5064999999999955,0.5226999999880775,0.5360000000000014,0.5463999999761597,0.5596999999880765,0.5754999999999981,0.5898999999761543,0.6030000000000015,0.6162999999821182,0.6296999999880768,0.6430000000000007,0.6560999999940407]",,14,0,14,0,1,,,,
,,A000000000,2022-11-28_21h07.16.645,GoFitts,2022.2.4,Win32,74.51009612,,,,,,,,,,,,,,,,,,,,,,3,,,,,,,,,,,,,3,0,0,1
,,A000000000,2022-11-28_21h07.16.645,GoFitts,2022.2.4,Win32,74.51009612,,,,,,,,,,,,,,,,return,0.4669,"[204,-7]","[83.64132579485731,-92.89310318467426]",71.5,250,4,"[204,199,192,186,179,173,166,161,155,150,142,136,131,126,124,120,117,114,113,112,112,112,112,112,111,109,107]","[-7,-5,-5,-4,-2,-2,-2,-1,-1,-1,0,0,0,1,1,1,1,0,-2,-5,-10,-17,-27,-35,-45,-60,-69]","[0,0,0,0,0,0,0,0,0,0,0,0,0,0,0,0,0,0,0,0,0,0,0,0,0,0,0]","[0,0,0,0,0,0,0,0,0,0,0,0,0,0,0,0,0,0,0,0,0,0,0,0,0,0,0]","[0,0,0,0,0,0,0,0,0,0,0,0,0,0,0,0,0,0,0,0,0,0,0,0,0,0,0]","[0.0004000000059605213,0.01309999999403999,0.02619999998807998,0.03659999999404562,0.04980000001192053,0.06300000000000239,0.07969999998807964,0.09290000000596166,0.10609999999404351,0.11630000001192542,0.13280000001192604,0.14609999999404266,0.1595000000000013,0.1728000000119252,0.1830999999940417,0.19630000001192371,0.2129000000059662,0.22630000001192485,0.23959999999404147,0.2530000000000001,0.26600000000000534,0.27950000000000585,0.29280000001192263,0.3030000000000044,0.3165000000000049,0.3328000000119218,0.34619999998808026]",,0,0,0,0,1,,,,
,,A000000000,2022-11-28_21h07.16.645,GoFitts,2022.2.4,Win32,74.51009612,,,,,,,,,,,,,,,,,,"[83.64132579485731,-92.89310318467426]","[-101.12712429686842,73.47315653655916]",71.5,250,4,"[107,105,103,102,102,102,101,97,88,76,60,34,-3,-32,-60,-85,-102]","[-69,-76,-79,-80,-80,-80,-80,-78,-70,-62,-50,-35,-10,7,23,34,41]","[0,0,0,0,0,0,0,0,0,0,0,0,0,0,0,0,0]","[0,0,0,0,0,0,0,0,0,0,0,0,0,0,0,0,0]","[0,0,0,0,0,0,0,0,0,0,0,0,0,0,0,0,0]","[0.0002999999821184929,0.013199999988081856,0.026499999999998636,0.03979999998212236,0.05329999998212287,0.06669999998808152,0.07700000000000529,0.09239999997615911,0.10609999999404351,0.11669999998807867,0.13019999998807918,0.14339999997616104,0.1597999999821198,0.17309999999404369,0.18650000000000233,0.1996999999880842,0.21300000000000097]",,1,0,1,0,1,,,,
,,A000000000,2022-11-28_21h07.16.645,GoFitts,2022.2.4,Win32,74.51009612,,,,,,,,,,,,,,,,,,"[-101.12712429686842,73.47315653655916]","[114.19318220532512,-50.84208038447502]",71.5,250,4,"[-102,-113,-120,-122,-123,-123,-123,-123,-123,-117,-103,-82,-49,-4,46,91]","[41,47,52,55,58,58,58,58,58,56,50,40,26,8,-11,-28]","[0,0,0,0,0,0,0,0,0,0,0,0,0,0,0,0]","[0,0,0,0,0,0,0,0,0,0,0,0,0,0,0,0]","[0,0,0,0,0,0,0,0,0,0,0,0,0,0,0,0]","[0.00030000001192576065,0.013300000011923885,0.02650000000000574,0.03969999998808049,0.0534000000059649,0.06669999998808152,0.07680000001192155,0.09350000000000591,0.10369999998808055,0.12009999999403931,0.1334000000059632,0.14659999999404505,0.15990000000596183,0.17340000000596234,0.18650000000000233,0.19990000000596098]",,2,0,2,0,1,,,,
,,A000000000,2022-11-28_21h07.16.645,GoFitts,2022.2.4,Win32,74.51009612,,,,,,,,,,,,,,,,,,"[114.19318220532512,-50.84208038447502]","[-122.26845009172571,25.988961352219913]",71.5,250,4,"[91,126,144,150,151,151,151,151,151,149,141,123,95,59,32,-13,-48,-73,-93]","[-28,-42,-50,-53,-54,-54,-54,-54,-54,-54,-54,-50,-42,-33,-24,-6,6,12,14]","[0,0,0,0,0,0,0,0,0,0,0,0,0,0,0,0,0,0,0]","[0,0,0,0,0,0,0,0,0,0,0,0,0,0,0,0,0,0,0]","[0,0,0,0,0,0,0,0,0,0,0,0,0,0,0,0,0,0,0]","[0.00010000002384202844,0.013200000017882019,0.02630000001192201,0.03980000001192252,0.053200000017881166,0.06640000000596302,0.07660000002384493,0.09000000000000341,0.10340000000596206,0.11890000000596501,0.13270000001788418,0.14650000000000318,0.15960000002384334,0.17330000001192047,0.1833000000119256,0.19970000001788435,0.213100000023843,0.22640000000596672,0.2397000000178835]",,3,0,3,0,1,,,,
,,A000000000,2022-11-28_21h07.16.645,GoFitts,2022.2.4,Win32,74.51009612,,,,,,,,,,,,,,,,,,"[-122.26845009172571,25.988961352219913]","[125,0]",71.5,250,4,"[-93,-108,-118,-122,-123,-124,-124,-124,-124,-122,-108,-83,-49,-4,46,77,106]","[14,16,16,16,16,16,16,16,16,15,14,12,12,9,5,2,-1]","[0,0,0,0,0,0,0,0,0,0,0,0,0,0,0,0,0]","[0,0,0,0,0,0,0,0,0,0,0,0,0,0,0,0,0]","[0,0,0,0,0,0,0,0,0,0,0,0,0,0,0,0,0]","[0.00020000001788389454,0.01309999999403999,0.02650000000000574,0.03970000001788776,0.05070000001788344,0.06800000000000495,0.08009999999404016,0.09309999999404539,0.10340000000596206,0.11690000000596257,0.13309999999404454,0.14670000001788708,0.15980000001192707,0.17330000001192758,0.18680000001192099,0.19670000001788424,0.21000000000000085]",,4,0,4,0,1,,,,
,,A000000000,2022-11-28_21h07.16.645,GoFitts,2022.2.4,Win32,74.51009612,,,,,,,,,,,,,,,,,,"[125,0]","[-122.26845009172571,-25.98896135221988]",71.5,250,4,"[106,123,128,131,133,134,134,134,134,133,124,102,73,40,5,-33,-62,-85,-102]","[-1,-5,-6,-7,-7,-7,-7,-7,-7,-7,-7,-7,-8,-8,-8,-8,-8,-10,-10]","[0,0,0,0,0,0,0,0,0,0,0,0,0,0,0,0,0,0,0]","[0,0,0,0,0,0,0,0,0,0,0,0,0,0,0,0,0,0,0]","[0,0,0,0,0,0,0,0,0,0,0,0,0,0,0,0,0,0,0]","[0.00019999998807662678,0.016099999994040104,0.029400000005956883,0.04299999999999926,0.05629999998211588,0.06990000000595842,0.08279999998211451,0.09619999998807316,0.10649999999999693,0.11990000000595558,0.1331999999880793,0.14979999998211468,0.1629999999999967,0.17619999998807856,0.18949999999999534,0.20309999999403772,0.2161999999880777,0.22940000000595973,0.24290000000596024]",,5,0,5,0,1,,,,
,,A000000000,2022-11-28_21h07.16.645,GoFitts,2022.2.4,Win32,74.51009612,,,,,,,,,,,,,,,,,,"[-122.26845009172571,-25.98896135221988]","[114.19318220532512,50.84208038447502]",71.5,250,4,"[-102,-113,-119,-120,-120,-120,-119,-116,-108,-96,-80,-50,-22,9,28,41,48,56,67,77,83,88]","[-10,-12,-13,-13,-13,-13,-15,-15,-15,-14,-12,-7,-1,4,8,11,14,17,23,27,30,31]","[0,0,0,0,0,0,0,0,0,0,0,0,0,0,0,0,0,0,0,0,0,0]","[0,0,0,0,0,0,0,0,0,0,0,0,0,0,0,0,0,0,0,0,0,0]","[0,0,0,0,0,0,0,0,0,0,0,0,0,0,0,0,0,0,0,0,0,0]","[0.0003000000119186552,0.013199999988081856,0.026499999999998636,0.03969999998808049,0.05019999998808089,0.06340000000596291,0.07990000000596353,0.09300000000000352,0.1065999999940388,0.11999999999999744,0.1299000000059607,0.14630000001191945,0.15969999998807793,0.17300000000000182,0.18650000000000233,0.1998000000119191,0.21000000000000085,0.2234000000059595,0.240000000000002,0.25319999998807674,0.26640000000595876,0.2796999999880825]",,6,0,6,0,1,,,,
,,A000000000,2022-11-28_21h07.16.645,GoFitts,2022.2.4,Win32,74.51009612,,,,,,,,,,,,,,,,,,"[114.19318220532512,50.84208038447502]","[-101.12712429686843,-73.47315653655913]",71.5,250,4,"[88,90,90,92,95,98,100,101,101,101,101,101,101,99,93,78,55,23,-11,-41,-65,-81]","[31,31,33,34,37,39,39,40,40,40,40,40,39,36,32,23,11,-1,-16,-29,-40,-49]","[0,0,0,0,0,0,0,0,0,0,0,0,0,0,0,0,0,0,0,0,0,0]","[0,0,0,0,0,0,0,0,0,0,0,0,0,0,0,0,0,0,0,0,0,0]","[0,0,0,0,0,0,0,0,0,0,0,0,0,0,0,0,0,0,0,0,0,0]","[0.0001999999880837322,0.013199999988081856,0.026599999994040502,0.03990000000596439,0.05329999998212287,0.06669999998808152,0.07679999998212139,0.09009999999403817,0.10350000000000392,0.11700000000000443,0.1331999999880793,0.14359999999403783,0.16009999999403846,0.17309999999404369,0.18700000000000472,0.19990000000596098,0.21309999999404283,0.22659999999404334,0.24009999999404386,0.25319999998808385,0.26640000000595876,0.27990000000595927]",,7,0,7,0,1,,,,
,,A000000000,2022-11-28_21h07.16.645,GoFitts,2022.2.4,Win32,74.51009612,,,,,,,,,,,,,,,,,,"[-101.12712429686843,-73.47315653655913]","[83.64132579485728,92.89310318467427]",71.5,250,4,"[-81,-89,-93,-95,-96,-97,-97,-97,-96,-93,-85,-72,-62,-40,-21,6,27,58,79,93]","[-49,-56,-63,-68,-71,-73,-73,-73,-73,-68,-62,-53,-45,-30,-15,4,17,36,50,59]","[0,0,0,0,0,0,0,0,0,0,0,0,0,0,0,0,0,0,0,0]","[0,0,0,0,0,0,0,0,0,0,0,0,0,0,0,0,0,0,0,0]","[0,0,0,0,0,0,0,0,0,0,0,0,0,0,0,0,0,0,0,0]","[0.0000999999940418661,0.014099999994044765,0.026400000005963875,0.039500000000003865,0.05290000000596251,0.06659999999403965,0.07970000001788691,0.0928000000119269,0.10340000000596206,0.1168000000119207,0.13000000000000256,0.14630000001192656,0.15659999999404306,0.17300000000000182,0.18670000001788623,0.19959999999404232,0.2099000000059661,0.22630000001192485,0.2397000000178835,0.253200000017884]",,8,0,8,0,1,,,,
,,A000000000,2022-11-28_21h07.16.645,GoFitts,2022.2.4,Win32,74.51009612,,,,,,,,,,,,,,,,,,"[83.64132579485728,92.89310318467427]","[-62.50000000000006,-108.25317547305481]",71.5,250,4,"[93,102,106,108,109,110,111,111,111,111,109,105,97,87,71,54,36,16,0,-14,-24,-37,-44]","[59,67,73,78,83,87,89,90,90,90,90,87,80,68,51,31,10,-9,-27,-42,-53,-71,-83]","[0,0,0,0,0,0,0,0,0,0,0,0,0,0,0,0,0,0,0,0,0,0,0]","[0,0,0,0,0,0,0,0,0,0,0,0,0,0,0,0,0,0,0,0,0,0,0]","[0,0,0,0,0,0,0,0,0,0,0,0,0,0,0,0,0,0,0,0,0,0,0]","[0.00030000001192576065,0.01300000000000523,0.02630000001192201,0.03969999998808049,0.05309999999403914,0.06709999999404204,0.07930000001192639,0.09300000000000352,0.10319999998807816,0.11650000000000205,0.13300000000000267,0.14619999998808453,0.15969999998808504,0.17269999998808316,0.18619999998808368,0.1994000000059657,0.2129000000059662,0.22630000001192485,0.2394999999999996,0.25290000000596535,0.26319999998808186,0.27950000000000585,0.2929000000059645]",,9,0,9,0,1,,,,
,,A000000000,2022-11-28_21h07.16.645,GoFitts,2022.2.4,Win32,74.51009612,,,,,,,,,,,,,,,,,,"[-62.50000000000006,-108.25317547305481]","[38.62712429686843,118.88206453689419]",71.5,250,4,"[-44,-48,-50,-53,-53,-54,-54,-54,-54,-50,-43,-35,-28,-19,-6,6,15,22,26,28,32]","[-83,-94,-101,-107,-111,-113,-114,-114,-113,-105,-94,-80,-67,-50,-26,-5,18,39,60,75,85]","[0,0,0,0,0,0,0,0,0,0,0,0,0,0,0,0,0,0,0,0,0]","[0,0,0,0,0,0,0,0,0,0,0,0,0,0,0,0,0,0,0,0,0]","[0,0,0,0,0,0,0,0,0,0,0,0,0,0,0,0,0,0,0,0,0]","[0.00020000001788389454,0.013300000011923885,0.026400000005963875,0.03990000000596439,0.05300000000000438,0.06750000000000256,0.08030000001192406,0.09300000000000352,0.10340000000596206,0.11690000000596257,0.13320000001787946,0.14659999999403794,0.15690000000596172,0.17009999999404357,0.18650000000000233,0.19970000001788435,0.21309999999404283,0.22630000001192485,0.23980000001192536,0.253200000017884,0.26640000000595876]",,10,0,10,0,1,,,,
,,A000000000,2022-11-28_21h07.16.645,GoFitts,2022.2.4,Win32,74.51009612,,,,,,,,,,,,,,,,,,"[38.62712429686843,118.88206453689419]","[-13.066057908456779,-124.31523692103416]",71.5,250,4,"[32,34,36,39,40,41,42,42,42,42,40,38,34,31,29,28,27,26,24,22,18,15,11,9]","[85,92,97,100,103,104,106,107,107,107,104,95,79,58,38,9,-9,-26,-41,-56,-70,-81,-93,-99]","[0,0,0,0,0,0,0,0,0,0,0,0,0,0,0,0,0,0,0,0,0,0,0,0]","[0,0,0,0,0,0,0,0,0,0,0,0,0,0,0,0,0,0,0,0,0,0,0,0]","[0,0,0,0,0,0,0,0,0,0,0,0,0,0,0,0,0,0,0,0,0,0,0,0]","[0.00020000001787678912,0.013500000000000512,0.023499999999998522,0.03680000001192241,0.05330000001191593,0.06700000000000017,0.08010000002384032,0.09360000002384083,0.10680000001191559,0.11710000002383936,0.13320000001787946,0.1466000000238381,0.15980000001191996,0.1732000000178786,0.18360000002383714,0.19990000000596098,0.2134000000059615,0.2266000000238364,0.23980000001191826,0.25330000001191877,0.2667000000178774,0.2768000000119173,0.29320000001787605,0.3064999999999998]",,11,0,11,0,1,,,,
,,A000000000,2022-11-28_21h07.16.645,GoFitts,2022.2.4,Win32,74.51009612,,,,,,,,,,,,,,,,,,"[-13.066057908456779,-124.31523692103416]","[-13.066057908456667,124.31523692103417]",71.5,250,4,"[9,8,8,7,7,7,7,7,6,5,2,0,0,-1,-2,-3,-4,-4,-4,-5,-8,-10,-13,-14,-17,-18]","[-99,-104,-106,-107,-108,-108,-108,-108,-108,-108,-107,-105,-104,-103,-100,-97,-91,-81,-66,-42,-15,17,45,70,88,101]","[0,0,0,0,0,0,0,0,0,0,0,0,0,0,0,0,0,0,0,0,0,0,0,0,0,0]","[0,0,0,0,0,0,0,0,0,0,0,0,0,0,0,0,0,0,0,0,0,0,0,0,0,0]","[0,0,0,0,0,0,0,0,0,0,0,0,0,0,0,0,0,0,0,0,0,0,0,0,0,0]","[0.0001999999880837322,0.01309999999403999,0.02650000000000574,0.03690000000596427,0.05019999998808089,0.06659999999403965,0.07690000000596342,0.09329999998212202,0.10379999998212242,0.11719999998808106,0.13329999998212116,0.1469000000059637,0.1602999999821222,0.1732999999821203,0.18700000000000472,0.2000999999940447,0.2131999999880847,0.22650000000000148,0.2397999999821181,0.25319999998808385,0.2665000000000006,0.2799000000059664,0.2930999999940411,0.3066999999880835,0.32009999999404215,0.3330000000000055]",,12,0,12,0,1,,,,
,,A000000000,2022-11-28_21h07.16.645,GoFitts,2022.2.4,Win32,74.51009612,,,,,,,,,,,,,,,,,,"[-13.066057908456667,124.31523692103417]","[38.6271242968684,-118.8820645368942]",71.5,250,4,"[-18,-19,-19,-19,-19,-19,-19,-19,-19,-18,-15,-11,-4,3,10,18,24,31,36]","[101,108,114,117,118,118,118,118,117,112,101,87,70,49,25,-4,-31,-61,-85]","[0,0,0,0,0,0,0,0,0,0,0,0,0,0,0,0,0,0,0]","[0,0,0,0,0,0,0,0,0,0,0,0,0,0,0,0,0,0,0]","[0,0,0,0,0,0,0,0,0,0,0,0,0,0,0,0,0,0,0]","[0.0003000000119186552,0.013599999994042378,0.02680000001191729,0.03990000000595728,0.05030000001192292,0.0669000000059583,0.07709999999404005,0.0934999999999988,0.10380000001192258,0.11699999999999733,0.13359999999403982,0.14680000001192184,0.15990000000596183,0.17330000001192047,0.18680000001192099,0.20020000001787963,0.21330000001191962,0.22670000001787827,0.23990000000596012]",,13,0,13,0,1,,,,
,,A000000000,2022-11-28_21h07.16.645,GoFitts,2022.2.4,Win32,74.51009612,,,,,,,,,,,,,,,,,,"[38.6271242968684,-118.8820645368942]","[-62.49999999999997,108.25317547305484]",71.5,250,4,"[36,40,43,45,47,48,48,49,49,49,49,49,49,49,47,45,40,28,15,-1,-19,-33,-43,-49,-53]","[-85,-105,-118,-129,-138,-143,-145,-145,-145,-145,-145,-145,-144,-138,-130,-123,-111,-85,-55,-21,15,43,62,74,83]","[0,0,0,0,0,0,0,0,0,0,0,0,0,0,0,0,0,0,0,0,0,0,0,0,0]","[0,0,0,0,0,0,0,0,0,0,0,0,0,0,0,0,0,0,0,0,0,0,0,0,0]","[0,0,0,0,0,0,0,0,0,0,0,0,0,0,0,0,0,0,0,0,0,0,0,0,0]","[0.0004000000059605213,0.013400000005965751,0.02650000000000574,0.039700000017880654,0.053200000017881166,0.06670000001788168,0.07700000000000529,0.09350000000000591,0.10360000002384595,0.12000000000000455,0.1301000000238446,0.14650000000000318,0.1571000000238456,0.1735000000000042,0.18670000001788623,0.19690000000596086,0.21020000001788475,0.22680000001192013,0.23980000001192536,0.25340000000596064,0.26660000002384265,0.2799000000059664,0.293300000011925,0.3064999999999998,0.3197000000178818]",,14,0,14,0,1,,,,
,,A000000000,2022-11-28_21h07.16.645,GoFitts,2022.2.4,Win32,74.51009612,,,,,,,,,,,,,,,,,,,,,,4,,,,,,,,,,,,,4,0,0,1
,,A000000000,2022-11-28_21h07.16.645,GoFitts,2022.2.4,Win32,74.51009612,,,,,,,,,,,,,,,,return,0.3886,"[84,-56]","[-156.24999999999994,270.6329386826371]",25.5,625,5,"[84,84,84,84,84,84,84,84,84,84,84,84,84,84,84,84,84,84,84,84,84,84,82,74,62,41,21,-3,-32,-58,-84,-100,-113,-120,-125,-127,-129,-131,-132,-132,-132,-132,-132,-131,-131,-131,-132,-134,-136,-140,-144,-148]","[-56,-54,-53,-53,-53,-53,-53,-52,-52,-52,-52,-52,-52,-52,-52,-52,-52,-52,-52,-52,-52,-52,-51,-46,-38,-25,-7,21,55,86,116,140,160,174,184,191,195,201,207,213,219,224,229,235,238,243,247,250,253,257,260,263]","[0,0,0,0,0,0,0,0,0,0,0,0,0,0,0,0,0,0,0,0,0,0,0,0,0,0,0,0,0,0,0,0,0,0,0,0,0,0,0,0,0,0,0,0,0,0,0,0,0,0,0,0]","[0,0,0,0,0,0,0,0,0,0,0,0,0,0,0,0,0,0,0,0,0,0,0,0,0,0,0,0,0,0,0,0,0,0,0,0,0,0,0,0,0,0,0,0,0,0,0,0,0,0,0,0]","[0,0,0,0,0,0,0,0,0,0,0,0,0,0,0,0,0,0,0,0,0,0,0,0,0,0,0,0,0,0,0,0,0,0,0,0,0,0,0,0,0,0,0,0,0,0,0,0,0,0,0,0]","[0.0004000000059605213,0.016199999988074865,0.02949999999999875,0.03969999998808049,0.05299999999999727,0.0706999999880793,0.07949999999999591,0.09299999999999642,0.10909999999403652,0.11930000001191843,0.1375999999940376,0.14930000001191956,0.16259999999403618,0.17309999999403658,0.18649999999999523,0.19969999998807708,0.21300000000000097,0.2266999999880781,0.23990000000596012,0.25330000001191877,0.2669999999999959,0.2796999999880754,0.2929000000059574,0.309400000005958,0.322499999999998,0.3358000000119219,0.34899999999999665,0.36230000001192053,0.37580000001192104,0.3889999999999958,0.4024999999999963,0.41569999998807816,0.42899999999999494,0.44249999999999545,0.45599999999999596,0.4690000000000012,0.4795000000000016,0.49280000001191837,0.506099999994035,0.522400000005959,0.5358000000119176,0.5491999999880761,0.5623000000119163,0.5758000000119168,0.5891999999880753,0.6023000000119225,0.617300000011916,0.6291999999880744,0.6425999999940402,0.6558000000119222,0.6690999999940388,0.6824999999999974]",,0,0,0,0,1,,,,
,,A000000000,2022-11-28_21h07.16.645,GoFitts,2022.2.4,Win32,74.51009612,,,,,,,,,,,,,,,,,,"[-156.24999999999994,270.6329386826371]","[209.10331448714328,-232.23275796168562]",25.5,625,5,"[-148,-150,-152,-153,-154,-155,-157,-158,-158,-159,-159,-159,-159,-159,-158,-152,-140,-120,-98,-51,-3,39,77,102,117,128,136,140,144,148,151,154,157,159,161,164,166,169,171,173,174,178,179,182,184,185,187,189,191,192,195,196,198,198,200,200,202,203,204,205]","[263,265,266,267,267,267,267,268,268,268,268,268,267,266,261,252,235,210,184,128,70,19,-27,-60,-84,-103,-116,-125,-133,-140,-146,-153,-158,-163,-166,-171,-174,-178,-181,-183,-185,-187,-187,-189,-191,-192,-196,-199,-202,-206,-208,-210,-212,-213,-214,-215,-217,-219,-220,-221]","[0,0,0,0,0,0,0,0,0,0,0,0,0,0,0,0,0,0,0,0,0,0,0,0,0,0,0,0,0,0,0,0,0,0,0,0,0,0,0,0,0,0,0,0,0,0,0,0,0,0,0,0,0,0,0,0,0,0,0,0]","[0,0,0,0,0,0,0,0,0,0,0,0,0,0,0,0,0,0,0,0,0,0,0,0,0,0,0,0,0,0,0,0,0,0,0,0,0,0,0,0,0,0,0,0,0,0,0,0,0,0,0,0,0,0,0,0,0,0,0,0]","[0,0,0,0,0,0,0,0,0,0,0,0,0,0,0,0,0,0,0,0,0,0,0,0,0,0,0,0,0,0,0,0,0,0,0,0,0,0,0,0,0,0,0,0,0,0,0,0,0,0,0,0,0,0,0,0,0,0,0,0]","[0.00030000001192576065,0.01300000000000523,0.023300000011921895,0.036700000017887646,0.05010000002384629,0.06660000002384692,0.07970000001788691,0.09010000002384544,0.10340000000596206,0.11990000000596268,0.13320000001788657,0.14630000001192656,0.16010000002384572,0.17010000002384373,0.18650000000000233,0.19970000001788435,0.21320000001788486,0.22630000001192485,0.23670000001788338,0.2537000000178864,0.2667000000178845,0.2796000000238479,0.29300000000000637,0.30630000001192315,0.3197000000178818,0.33310000002384754,0.34620000001788753,0.3598000000119228,0.3729000000059628,0.3862000000178867,0.39980000001192195,0.41310000002384584,0.4262000000178858,0.4396000000238445,0.45000000000000284,0.46630000001192684,0.4796000000238436,0.49310000002384413,0.506300000011926,0.5198000000119265,0.5300000000000011,0.5463000000119251,0.5568000000119255,0.5730000000000004,0.5864000000059661,0.5968000000119247,0.6133000000119253,0.6263000000119234,0.636700000017882,0.6529000000059639,0.6663000000119226,0.6767000000178882,0.689900000005963,0.7034000000059635,0.7198000000119222,0.7302000000178879,0.7436000000238465,0.7596000000238448,0.7733000000119219,0.7835000000000036]",,1,0,1,0,1,,,,
,,A000000000,2022-11-28_21h07.16.645,GoFitts,2022.2.4,Win32,74.51009612,,,,,,,,,,,,,,,,,,"[209.10331448714328,-232.23275796168562]","[-252.81781074217105,183.6828913413979]",25.5,625,5,"[205,206,206,207,208,208,208,208,208,208,208,208,208,208,208,208,208,208,208,207,199,187,168,131,88,38,-14,-50,-79,-102,-121,-139,-158,-169,-180,-190,-198,-205,-210,-215,-219,-222,-225,-228,-230,-232,-234,-236,-238,-240,-241,-242]","[-221,-222,-223,-224,-225,-226,-226,-226,-226,-226,-226,-226,-226,-226,-226,-226,-226,-226,-226,-222,-209,-190,-164,-121,-67,-18,21,45,64,80,95,109,123,131,138,143,149,152,158,161,165,168,170,171,173,174,175,175,176,177,177,177]","[0,0,0,0,0,0,0,0,0,0,0,0,0,0,0,0,0,0,0,0,0,0,0,0,0,0,0,0,0,0,0,0,0,0,0,0,0,0,0,0,0,0,0,0,0,0,0,0,0,0,0,0]","[0,0,0,0,0,0,0,0,0,0,0,0,0,0,0,0,0,0,0,0,0,0,0,0,0,0,0,0,0,0,0,0,0,0,0,0,0,0,0,0,0,0,0,0,0,0,0,0,0,0,0,0]","[0,0,0,0,0,0,0,0,0,0,0,0,0,0,0,0,0,0,0,0,0,0,0,0,0,0,0,0,0,0,0,0,0,0,0,0,0,0,0,0,0,0,0,0,0,0,0,0,0,0,0,0]","[0.0001999999880837322,0.01659999999404249,0.02949999999999875,0.042699999988080606,0.053199999988081004,0.06640000000596302,0.08269999998807975,0.09330000001192218,0.10650000000000404,0.11980000001192082,0.13630000001192144,0.14919999998808464,0.15990000000596183,0.17619999998807856,0.18640000000596046,0.19980000001192622,0.21309999999404283,0.22659999999404334,0.24009999999404386,0.253099999994042,0.269400000005966,0.28249999999999886,0.2959000000059646,0.3094000000059651,0.32240000000596325,0.3360999999940404,0.3494000000059643,0.36250000000000426,0.3759000000059629,0.38909999999404477,0.4020999999940429,0.4128000000119201,0.4293000000119207,0.44250000000000256,0.45600000000000307,0.4694000000059617,0.4825000000000017,0.4958000000119256,0.5093000000119261,0.5225000000000009,0.5359000000059595,0.5490999999940414,0.5625999999940419,0.5760000000000005,0.5889999999999986,0.5995999999940409,0.6161999999880834,0.6263000000119234,0.6425999999940402,0.6558000000119222,0.6661999999880805,0.6795999999940392]",,2,0,2,0,1,,,,
,,A000000000,2022-11-28_21h07.16.645,GoFitts,2022.2.4,Win32,74.51009612,,,,,,,,,,,,,,,,,,"[-252.81781074217105,183.6828913413979]","[285.4829555133128,-127.10520096118755]",25.5,625,5,"[-242,-244,-244,-244,-244,-244,-244,-244,-244,-242,-231,-209,-174,-115,-66,24,104,165,223,243,262,268,272,276,279,281]","[177,178,178,178,178,178,178,178,178,174,164,147,124,92,67,27,-6,-32,-62,-75,-91,-100,-105,-110,-113,-116]","[0,0,0,0,0,0,0,0,0,0,0,0,0,0,0,0,0,0,0,0,0,0,0,0,0,0]","[0,0,0,0,0,0,0,0,0,0,0,0,0,0,0,0,0,0,0,0,0,0,0,0,0,0]","[0,0,0,0,0,0,0,0,0,0,0,0,0,0,0,0,0,0,0,0,0,0,0,0,0,0]","[0.00019999998807662678,0.029799999982117242,0.04289999997615723,0.05309999999403914,0.06939999997615587,0.07969999998807964,0.09309999999403828,0.10629999998212014,0.11989999997615541,0.1361999999880794,0.14939999997616127,0.16259999999403618,0.1760999999940367,0.18950000000000244,0.19969999998807708,0.2161999999880777,0.2295000000000016,0.23959999999404147,0.25619999998807685,0.2663999999761586,0.28279999998211736,0.2965999999940365,0.309299999982116,0.3227999999821165,0.3359999999999985,0.3463999999761569]",,3,0,3,0,1,,,,
,,A000000000,2022-11-28_21h07.16.645,GoFitts,2022.2.4,Win32,74.51009612,,,,,,,,,,,,,,,,,,"[285.4829555133128,-127.10520096118755]","[-305.67112522931427,64.97240338054979]",25.5,625,5,"[281,283,285,287,288,288,288,288,288,288,289,289,289,289,289,289,289,289,280,255,217,159,96,-4,-85,-135,-166,-187,-198,-207,-214,-221,-227,-241,-254,-269,-282,-295,-304]","[-116,-119,-122,-124,-126,-127,-128,-129,-131,-132,-133,-133,-134,-134,-134,-134,-134,-134,-133,-125,-114,-95,-75,-41,-12,9,24,36,42,48,53,57,61,67,72,75,76,77,77]","[0,0,0,0,0,0,0,0,0,0,0,0,0,0,0,0,0,0,0,0,0,0,0,0,0,0,0,0,0,0,0,0,0,0,0,0,0,0,0]","[0,0,0,0,0,0,0,0,0,0,0,0,0,0,0,0,0,0,0,0,0,0,0,0,0,0,0,0,0,0,0,0,0,0,0,0,0,0,0]","[0,0,0,0,0,0,0,0,0,0,0,0,0,0,0,0,0,0,0,0,0,0,0,0,0,0,0,0,0,0,0,0,0,0,0,0,0,0,0]","[0.00009999999403476068,0.016199999988074865,0.030999999999998806,0.03969999998808049,0.056400000005957907,0.06659999999403965,0.08309999999404027,0.09329999998211491,0.10979999998211554,0.11999999999999744,0.1334000000059561,0.14679999998211457,0.16049999999999898,0.17629999998212043,0.18649999999999523,0.20309999999403772,0.2134000000059615,0.22659999999403624,0.23990000000596012,0.256099999994035,0.26969999998807737,0.28279999998211736,0.2930999999940411,0.3096999999880765,0.32290000000595853,0.336299999982117,0.34990000000595955,0.3629000000059577,0.37629999998211616,0.3892999999821143,0.4029000000059568,0.4159999999999968,0.4265999999940391,0.44299999999999784,0.45609999999403783,0.469900000005957,0.4827999999821202,0.49619999998807884,0.5094000000059609]",,4,0,4,0,1,,,,
,,A000000000,2022-11-28_21h07.16.645,GoFitts,2022.2.4,Win32,74.51009612,,,,,,,,,,,,,,,,,,"[-305.67112522931427,64.97240338054979]","[312.5,0]",25.5,625,5,"[-304,-310,-313,-317,-320,-322,-323,-323,-324,-324,-324,-324,-324,-324,-324,-324,-321,-305,-280,-253,-191,-138,-76,-14,38,86,124,151,171,190,201,219,232,244,253,262,268,273,277,281,283,290,296,301]","[77,77,77,77,77,76,76,75,75,74,73,72,72,72,72,72,71,71,71,72,73,73,73,69,66,59,51,43,35,28,22,14,9,5,1,-2,-3,-4,-5,-5,-5,-5,-5,-5]","[0,0,0,0,0,0,0,0,0,0,0,0,0,0,0,0,0,0,0,0,0,0,0,0,0,0,0,0,0,0,0,0,0,0,0,0,0,0,0,0,0,0,0,0]","[0,0,0,0,0,0,0,0,0,0,0,0,0,0,0,0,0,0,0,0,0,0,0,0,0,0,0,0,0,0,0,0,0,0,0,0,0,0,0,0,0,0,0,0]","[0,0,0,0,0,0,0,0,0,0,0,0,0,0,0,0,0,0,0,0,0,0,0,0,0,0,0,0,0,0,0,0,0,0,0,0,0,0,0,0,0,0,0,0]","[0.00020000001787678912,0.01309999999403999,0.026499999999998636,0.03990000000595728,0.050099999994039024,0.06359999999403954,0.07980000001192167,0.0902000000178802,0.10349999999999682,0.12009999999403931,0.13049999999999784,0.14380000001192172,0.1595000000000013,0.17340000000596234,0.18380000001192087,0.19990000000596098,0.21040000000596137,0.22659999999403624,0.23990000000596012,0.2502000000178768,0.2665000000000006,0.2798000000119174,0.2930999999940411,0.3064000000059579,0.3197000000178818,0.3330999999940403,0.34640000000595705,0.35990000000595757,0.37320000001788145,0.38630000001192144,0.39670000001788,0.4134000000059572,0.4264999999999972,0.43970000001787923,0.4533000000119216,0.46649999999999636,0.4797000000178784,0.4932000000178789,0.5064000000059607,0.5195999999940355,0.5302000000178779,0.5467000000178786,0.5598000000119185,0.5703000000119189]",,5,0,5,0,1,,,,
