key_resp_4.keys,key_resp_4.rt,身分證字號,date,expName,psychopyVersion,OS,frameRate,mouse_2.x,mouse_2.y,mouse_2.leftButton,mouse_2.midButton,mouse_2.rightButton,mouse_2.time,cont.keys,cont.rt,retry_testing.thisRepN,retry_testing.thisTrialN,retry_testing.thisN,retry_testing.thisIndex,retry_testing.ran,key_resp.keys,key_resp.rt,key_resp_3.keys,key_resp_3.rt,from,to,w,a,sequence_loop.thisN,mouse.x,mouse.y,mouse.leftButton,mouse.midButton,mouse.rightButton,mouse.time,key_resp_2.keys,trial_loop.thisRepN,trial_loop.thisTrialN,trial_loop.thisN,trial_loop.thisIndex,trial_loop.ran,sequence_loop.thisRepN,sequence_loop.thisTrialN,sequence_loop.thisIndex,sequence_loop.ran
return,4.9382,A000000000,2022-11-28_15h06.06.749,GoFitts,2022.2.4,Win32,75.17666516,,,,,,,,,,,,,,,,,,,,,,,,,,,,,,,,,,,,,,
,,A000000000,2022-11-28_15h06.06.749,GoFitts,2022.2.4,Win32,75.17666516,"[276,276,276,276,276,276,276,276,276,276,276,276,276,276,276,276,276,276,276,276,276,276,276,276,276,276,276,276,276,276,276,276,276,276,276,276,276,276,276,276,276,276,276,276,276,276,276,265,251,253,267,281,299,312,321,330,336,341,345,348,350,353,354,354,354,354,354,354,355,355,355,355,355,355,355,355,355,355,355,355,355,355,355,355,354,348,337,316,284,241,197,154,126,110,102,99,98,95,94,91,87,83,78,72,66,60,53,46,39,32,28,25,23,23,23,23,23,23,23,23,23,23,23,23,21,21,20,18,16,13,10,10,10,10,9,8,6,4,2,2,1,1,1,1,1,1,1,1,1,1,1,1,2,3,8,17,25,32,39,42,42,41,36,29,22,15,8,0,-11,-27,-46,-71,-112,-162,-222,-273,-305,-329,-345,-352,-355,-356,-357,-357,-357,-357,-357,-357,-357,-357,-357,-357,-357,-355,-353,-348,-340,-324,-303,-272,-236,-195,-162,-112,-71,-56,-41,-35,-34,-34,-33,-31,-29,-26,-22,-17,-14,-10,-6]","[-193,-193,-193,-193,-193,-193,-193,-193,-193,-193,-193,-193,-193,-193,-193,-193,-193,-193,-193,-193,-193,-193,-193,-193,-193,-193,-193,-193,-193,-193,-193,-193,-193,-193,-193,-193,-193,-193,-193,-193,-193,-193,-193,-193,-193,-193,-193,-187,-170,-148,-112,-73,-41,-24,-16,-8,-5,-1,1,3,4,5,7,7,7,7,7,7,7,7,7,8,8,8,8,8,8,8,8,8,8,8,8,8,8,9,24,63,121,184,244,299,333,351,360,363,364,364,365,365,364,362,360,358,358,358,357,357,357,359,360,361,361,362,362,362,362,362,362,362,362,362,362,362,359,354,344,333,324,316,312,311,311,311,313,320,322,329,337,343,349,355,359,362,363,363,363,363,363,363,363,355,340,323,278,231,174,109,31,-35,-97,-144,-181,-211,-231,-241,-246,-247,-246,-239,-227,-208,-178,-139,-99,-66,-44,-28,-19,-13,-9,-7,-6,-6,-6,-6,-6,-6,-4,0,4,7,9,10,10,8,1,-18,-44,-86,-143,-206,-254,-322,-364,-376,-385,-388,-389,-389,-389,-389,-387,-385,-382,-379,-376,-371,-363]","[0,0,0,0,0,0,0,0,0,0,0,0,0,0,0,0,0,0,0,0,0,0,0,0,0,0,0,0,0,0,0,0,0,0,0,0,0,0,0,0,0,0,0,0,0,0,0,0,0,0,0,0,0,0,0,0,0,0,0,0,0,0,0,0,0,0,0,0,0,0,0,0,0,0,0,0,0,0,0,0,0,0,0,0,0,0,0,0,0,0,0,0,0,0,0,0,0,0,0,0,0,0,0,0,0,0,0,0,0,0,0,0,0,0,0,0,0,0,0,0,0,0,0,0,0,0,0,0,0,0,0,0,0,0,0,0,0,0,0,0,0,0,0,0,0,0,0,0,0,0,0,0,0,0,0,0,0,0,0,0,0,0,0,0,0,0,0,0,0,0,0,0,0,0,0,0,0,0,0,0,0,0,0,0,0,0,0,0,0,0,0,0,0,0,0,0,0,0,0,0,0,0,0,0,0,0,0,0,0,0,0,0,0,0,0,0,0,0,0]","[0,0,0,0,0,0,0,0,0,0,0,0,0,0,0,0,0,0,0,0,0,0,0,0,0,0,0,0,0,0,0,0,0,0,0,0,0,0,0,0,0,0,0,0,0,0,0,0,0,0,0,0,0,0,0,0,0,0,0,0,0,0,0,0,0,0,0,0,0,0,0,0,0,0,0,0,0,0,0,0,0,0,0,0,0,0,0,0,0,0,0,0,0,0,0,0,0,0,0,0,0,0,0,0,0,0,0,0,0,0,0,0,0,0,0,0,0,0,0,0,0,0,0,0,0,0,0,0,0,0,0,0,0,0,0,0,0,0,0,0,0,0,0,0,0,0,0,0,0,0,0,0,0,0,0,0,0,0,0,0,0,0,0,0,0,0,0,0,0,0,0,0,0,0,0,0,0,0,0,0,0,0,0,0,0,0,0,0,0,0,0,0,0,0,0,0,0,0,0,0,0,0,0,0,0,0,0,0,0,0,0,0,0,0,0,0,0,0,0]","[0,0,0,0,0,0,0,0,0,0,0,0,0,0,0,0,0,0,0,0,0,0,0,0,0,0,0,0,0,0,0,0,0,0,0,0,0,0,0,0,0,0,0,0,0,0,0,0,0,0,0,0,0,0,0,0,0,0,0,0,0,0,0,0,0,0,0,0,0,0,0,0,0,0,0,0,0,0,0,0,0,0,0,0,0,0,0,0,0,0,0,0,0,0,0,0,0,0,0,0,0,0,0,0,0,0,0,0,0,0,0,0,0,0,0,0,0,0,0,0,0,0,0,0,0,0,0,0,0,0,0,0,0,0,0,0,0,0,0,0,0,0,0,0,0,0,0,0,0,0,0,0,0,0,0,0,0,0,0,0,0,0,0,0,0,0,0,0,0,0,0,0,0,0,0,0,0,0,0,0,0,0,0,0,0,0,0,0,0,0,0,0,0,0,0,0,0,0,0,0,0,0,0,0,0,0,0,0,0,0,0,0,0,0,0,0,0,0,0]","[0.001400000005959967,0.009200000017880683,0.022800000011921284,0.033099999994039564,0.046599999994040076,0.06349999999999945,0.07680000001191978,0.08620000001788064,0.09949999999999903,0.11570000001788117,0.12650000000000006,0.1398000000119204,0.1535999999940394,0.16970000001788144,0.18280000001192143,0.19330000001192005,0.20680000001192056,0.22230000001191996,0.236200000017881,0.24659999999403936,0.2598000000119214,0.2762000000178819,0.2895000000000003,0.30270000001788055,0.3129000000059605,0.32640000000595926,0.34240000000595927,0.35490000000596034,0.3687000000178813,0.3827000000178806,0.3929000000059606,0.40940000000595944,0.41990000000595984,0.43599999999999994,0.44640000000596025,0.45990000000596076,0.4760999999940392,0.4864999999999995,0.5000999999940401,0.51309999999404,0.5292000000178803,0.5428000000119209,0.5533000000119213,0.5665999999940396,0.5825999999940397,0.5929000000059599,0.6064000000059604,0.6199000000059609,0.6360999999940393,0.6494999999999997,0.6627000000178818,0.6760000000000002,0.6893000000119205,0.7024999999999988,0.7159999999999993,0.7292000000178813,0.7425999999940398,0.7565999999940392,0.7692000000178805,0.7824999999999989,0.7960999999940395,0.80959999999404,0.8227000000178819,0.8360999999940386,0.8492000000178805,0.859800000011921,0.8759999999999994,0.8892000000178815,0.8997000000178819,0.9130999999940386,0.9293000000119207,0.9428000000119212,0.9529000000059593,0.9694000000059599,0.9827000000178803,0.9960000000000004,1.006499999999999,1.0228000000119213,1.0329999999999995,1.04640000000596,1.0628000000119204,1.0760999999940388,1.089400000005961,1.0999000000059596,1.11630000001192,1.1297000000178805,1.1425,1.1559000000059605,1.1692000000178808,1.1827000000178813,1.1959999999999997,1.20930000001192,1.22240000000596,1.2359999999999989,1.2490999999940389,1.2625999999940394,1.2759000000059597,1.2893000000119201,1.3027000000178806,1.315999999999999,1.3294000000059594,1.3425999999940395,1.3559000000059598,1.369200000017882,1.3828000000119207,1.3958000000119206,1.409099999994039,1.4224000000059593,1.4359000000059599,1.44909999999404,1.4625999999940387,1.4758000000119207,1.4893000000119212,1.5024999999999995,1.5129000000059598,1.52909999999404,1.5398000000119207,1.5530999999940391,1.5663000000119212,1.5827000000178817,1.59309999999404,1.60909999999404,1.6198000000119208,1.635900000005961,1.6494000000059597,1.6627000000178818,1.67580000001192,1.6890999999940384,1.7025999999940389,1.715900000005961,1.7290999999940393,1.7425999999940398,1.7560000000000002,1.7692000000178805,1.7797000000178809,1.7963000000119198,1.8064999999999998,1.8225999999940399,1.8364000000059608,1.8499999999999996,1.8628000000119211,1.8759000000059594,1.8893000000119198,1.9027000000178802,1.9162000000178807,1.9264000000059607,1.939700000017881,1.9529000000059593,1.9689999999999994,1.9827000000178803,1.9930000000000003,2.0090999999940387,2.022599999994039,2.0330999999940396,2.0495,2.0625,2.0759000000059604,2.089300000011921,2.102499999999999,2.1159000000059596,2.12930000001192,2.1425,2.1559000000059605,2.169200000017881,2.182499999999999,2.1959000000059596,2.20930000001192,2.2225,2.2359000000059606,2.249200000017881,2.2625999999940394,2.2759000000059597,2.28930000001192,2.3025,2.3159000000059606,2.329300000011921,2.3425999999940395,2.35590000000596,2.36930000001192,2.382999999999999,2.3959000000059607,2.409200000017881,2.4225999999940395,2.4355999999940394,2.449700000017881,2.4625999999940387,2.4757000000178806,2.486300000011921,2.50280000001192,2.5160999999940383,2.5293000000119203,2.542900000005961,2.5529000000059607,2.5694000000059596,2.5797000000178816,2.59309999999404,2.6064000000059604,2.62359999999404,2.635900000005961,2.6494000000059597,2.6627000000178818,2.676,2.6864000000059605,2.702700000017881,2.71940000000596,2.728800000011921,2.7424000000059596,2.7557000000178817,2.7692000000178805,2.7824000000059605,2.792800000011921,2.8063000000119214,2.819700000017882,2.8332000000178805,2.846499999999999,2.862700000017881,2.8732000000178815,2.8863000000119214,2.90270000001788]",return,2.04,0,0,0,0,1,,,,,,,,,,,,,,,,,,,,,,,,,
,,A000000000,2022-11-28_15h06.06.749,GoFitts,2022.2.4,Win32,75.17666516,,,,,,,,,,,,,,return,1.5655,,,,,,,,,,,,,,,,,,,,,,,
,,A000000000,2022-11-28_15h06.06.749,GoFitts,2022.2.4,Win32,75.17666516,,,,,,,,,,,,,,,,return,0.547,"[345,32]","[85,0]",77.8,170,0,"[345,344,342,340,338,337,336,336,336,336,333,330,328,327,325,324,323,318,311,303,294,281,267,251,234,217,199,186,174,164,156,151,147,145,141,137,131,125,119]","[32,32,32,32,32,32,32,32,32,32,31,31,29,28,28,27,27,24,20,15,11,6,3,1,-1,-1,-1,-1,-1,-1,-1,-1,0,0,0,2,3,4,5]","[0,0,0,0,0,0,0,0,0,0,0,0,0,0,0,0,0,0,0,0,0,0,0,0,0,0,0,0,0,0,0,0,0,0,0,0,0,0,0]","[0,0,0,0,0,0,0,0,0,0,0,0,0,0,0,0,0,0,0,0,0,0,0,0,0,0,0,0,0,0,0,0,0,0,0,0,0,0,0]","[0,0,0,0,0,0,0,0,0,0,0,0,0,0,0,0,0,0,0,0,0,0,0,0,0,0,0,0,0,0,0,0,0,0,0,0,0,0,0]","[0.0015000000000000568,0.013000000000001677,0.022999999999999687,0.03970000001788421,0.052800000011920645,0.06740000000596069,0.07920000001788097,0.09270000001788148,0.10300000000000153,0.11640000000596018,0.13259999999404215,0.1457000000178823,0.1565000000000012,0.1697000000178832,0.18320000001788372,0.19930000001192028,0.21270000001788247,0.22570000001788415,0.23930000001192298,0.25240000000596297,0.26559999999404127,0.2792000000178838,0.2924000000059621,0.30570000001788245,0.31920000001788296,0.3324999999999996,0.3457000000178816,0.3592000000178821,0.3725000000000023,0.3855000000000004,0.3990000000000009,0.4125000000000014,0.42570000001788344,0.43640000000596046,0.45190000000595987,0.46559999999404056,0.47909999999404107,0.4923000000119231,0.5055999999940397]",,0,0,0,0,1,,,,
,,A000000000,2022-11-28_15h06.06.749,GoFitts,2022.2.4,Win32,75.17666516,,,,,,,,,,,,,,,,,,"[85,0]","[-83.14254606237348,-17.67249371950952]",77.8,170,0,"[119,112,105,96,90,80,72,63,57,43,31,20,11,2,-8,-18,-30,-39,-46,-52,-57]","[5,5,5,6,6,7,7,7,8,8,8,8,8,8,8,8,8,8,8,8,7]","[0,0,0,0,0,0,0,0,0,0,0,0,0,0,0,0,0,0,0,0,0]","[0,0,0,0,0,0,0,0,0,0,0,0,0,0,0,0,0,0,0,0,0]","[0,0,0,0,0,0,0,0,0,0,0,0,0,0,0,0,0,0,0,0,0]","[0.00020000001788034183,0.013200000017878466,0.026499999999998636,0.03960000002383879,0.04999999999999716,0.06630000001192116,0.07960000002384149,0.0929000000059581,0.10330000001192019,0.11930000001191843,0.13299999999999912,0.14630000001191945,0.15970000001788165,0.1732000000178786,0.18640000000596046,0.19670000001788068,0.2126000000238406,0.22630000001191775,0.23970000001787994,0.2530000000000001,0.26630000001192045]",,1,0,1,0,1,,,,
,,A000000000,2022-11-28_15h06.06.749,GoFitts,2022.2.4,Win32,75.17666516,,,,,,,,,,,,,,,,,,"[-83.14254606237348,-17.67249371950952]","[77.65136389962107,34.57261466144301]",77.8,170,0,"[-57,-59,-61,-62,-63,-65,-66,-67,-67,-67,-67,-68,-69,-69,-69,-69,-66,-52,-28,-3,33,58]","[7,6,5,4,3,1,0,-1,-2,-2,-2,-2,-2,-3,-3,-3,-2,2,9,15,22,27]","[0,0,0,0,0,0,0,0,0,0,0,0,0,0,0,0,0,0,0,0,0,0]","[0,0,0,0,0,0,0,0,0,0,0,0,0,0,0,0,0,0,0,0,0,0]","[0,0,0,0,0,0,0,0,0,0,0,0,0,0,0,0,0,0,0,0,0,0]","[0.0001999999880801795,0.013000000000001677,0.026899999976158995,0.03689999997616056,0.05009999999404258,0.06679999998211983,0.0768999999761597,0.09319999998808015,0.10359999999404224,0.12019999998808117,0.1338999999761583,0.14689999997616,0.15729999998211852,0.17339999997615863,0.18629999998211844,0.19969999998808063,0.21309999999403928,0.22689999997615828,0.23969999998807978,0.2501999999880802,0.26619999998808197,0.2797999999821208]",,2,0,2,0,1,,,,
,,A000000000,2022-11-28_15h06.06.749,GoFitts,2022.2.4,Win32,75.17666516,,,,,,,,,,,,,,,,,,"[77.65136389962107,34.57261466144301]","[-68.76644452187054,-49.96174644486021]",77.8,170,0,"[58,75,86,89,89,89,89,89,89,89,89,89,89,86,77,67,44,19,-5,-26,-45]","[27,31,33,33,34,34,34,34,34,34,34,34,32,26,16,6,-11,-25,-37,-46,-53]","[0,0,0,0,0,0,0,0,0,0,0,0,0,0,0,0,0,0,0,0,0]","[0,0,0,0,0,0,0,0,0,0,0,0,0,0,0,0,0,0,0,0,0]","[0,0,0,0,0,0,0,0,0,0,0,0,0,0,0,0,0,0,0,0,0]","[0.0001999999880801795,0.01329999998212017,0.026299999982118294,0.03869999998807927,0.05000000000000071,0.06350000000000122,0.07959999999404133,0.09019999998808004,0.10650000000000048,0.11659999999404036,0.13019999998807918,0.1436999999880797,0.1571999999880802,0.17059999999403885,0.18649999999999878,0.19679999998211883,0.21329999998211946,0.22629999998211758,0.23969999998807978,0.2530000000000001,0.2661999999880784]",,3,0,3,0,1,,,,
,,A000000000,2022-11-28_15h06.06.749,GoFitts,2022.2.4,Win32,75.17666516,,,,,,,,,,,,,,,,,,"[-68.76644452187054,-49.96174644486021]","[56.87610154050295,63.16731016557851]",77.8,170,0,"[-45,-58,-65,-66,-66,-66,-66,-66,-66,-66,-66,-61,-52,-39,-20,0,22,42]","[-53,-58,-61,-61,-62,-62,-62,-62,-62,-62,-61,-54,-44,-31,-13,4,20,35]","[0,0,0,0,0,0,0,0,0,0,0,0,0,0,0,0,0,0]","[0,0,0,0,0,0,0,0,0,0,0,0,0,0,0,0,0,0]","[0,0,0,0,0,0,0,0,0,0,0,0,0,0,0,0,0,0]","[0.0000999999940418661,0.01329999998212017,0.02650000000000219,0.039900000005960834,0.05309999999403914,0.06669999998808152,0.08009999999404016,0.09029999998211835,0.10640000000596217,0.11690000000596257,0.1305000000000014,0.14649999999999963,0.15990000000596183,0.17290000000595995,0.18640000000596046,0.19979999998211895,0.21300000000000097,0.2264000000059596]",,4,0,4,0,1,,,,
,,A000000000,2022-11-28_15h06.06.749,GoFitts,2022.2.4,Win32,75.17666516,,,,,,,,,,,,,,,,,,"[56.87610154050295,63.16731016557851]","[-42.500000000000036,-73.61215932167727]",77.8,170,0,"[42,57,67,72,76,77,77,77,77,77,74,69,60,47,35,23,13,6,-1,-4,-5,-6,-8]","[35,45,53,58,62,62,62,62,62,58,49,38,21,1,-20,-39,-57,-69,-81,-86,-89,-91,-91]","[0,0,0,0,0,0,0,0,0,0,0,0,0,0,0,0,0,0,0,0,0,0,0]","[0,0,0,0,0,0,0,0,0,0,0,0,0,0,0,0,0,0,0,0,0,0,0]","[0,0,0,0,0,0,0,0,0,0,0,0,0,0,0,0,0,0,0,0,0,0,0]","[0.00030000001192220793,0.013300000011920332,0.026400000005960322,0.03969999998808049,0.053400000005961346,0.06659999999403965,0.07680000001192155,0.09030000001192207,0.10390000000596089,0.11969999998807879,0.1331999999880793,0.14640000000596132,0.15990000000596183,0.17309999999404013,0.18680000001192099,0.19969999998808063,0.21309999999403928,0.22650000000000148,0.23990000000596012,0.25349999999999895,0.2664000000059623,0.277000000000001,0.29330000001192147]",,5,0,5,0,1,,,,
,,A000000000,2022-11-28_15h06.06.749,GoFitts,2022.2.4,Win32,75.17666516,,,,,,,,,,,,,,,,,,"[-42.500000000000036,-73.61215932167727]","[26.266444521870532,80.83980388508805]",77.8,170,0,"[-8,-8,-8,-8,-8,-10,-12,-14,-16,-17,-18,-19,-21,-23,-25,-25,-26,-26,-24,-16,-5,4,14,24,29]","[-91,-91,-91,-91,-91,-91,-88,-83,-77,-73,-70,-68,-67,-67,-66,-65,-64,-58,-50,-32,-12,7,25,42,55]","[0,0,0,0,0,0,0,0,0,0,0,0,0,0,0,0,0,0,0,0,0,0,0,0,0]","[0,0,0,0,0,0,0,0,0,0,0,0,0,0,0,0,0,0,0,0,0,0,0,0,0]","[0,0,0,0,0,0,0,0,0,0,0,0,0,0,0,0,0,0,0,0,0,0,0,0,0]","[0.0003000000119186552,0.013300000011920332,0.026099999994038114,0.036800000011918854,0.049900000005958844,0.06349999999999767,0.07690000000595987,0.09299999999999997,0.10680000001191914,0.11980000001192082,0.1329000000059608,0.14340000000595765,0.15680000001191985,0.17259999999403774,0.18680000001192099,0.19990000000596098,0.2131999999880776,0.22680000001192013,0.2365999999940378,0.25319999998807674,0.26659999999403894,0.27969999998807893,0.29299999999999926,0.3063000000119196,0.31669999998807796]",,6,0,6,0,1,,,,
,,A000000000,2022-11-28_15h06.06.749,GoFitts,2022.2.4,Win32,75.17666516,,,,,,,,,,,,,,,,,,"[26.266444521870532,80.83980388508805]","[-8.88491937775061,-84.53436110630322]",77.8,170,0,"[29,34,39,40,40,40,40,40,40,38,36,34,29,25,21,19]","[55,68,75,78,78,78,78,78,75,63,46,26,-4,-28,-49,-66]","[0,0,0,0,0,0,0,0,0,0,0,0,0,0,0,0]","[0,0,0,0,0,0,0,0,0,0,0,0,0,0,0,0]","[0,0,0,0,0,0,0,0,0,0,0,0,0,0,0,0]","[0.0001999999880801795,0.016199999988078417,0.029799999982120795,0.04309999999404113,0.05609999999403925,0.07000000000000028,0.08009999999404016,0.09619999998808026,0.1065999999940388,0.1229000000059628,0.1360999999940411,0.1465999999940415,0.16279999998211991,0.17619999998807856,0.18940000000596058,0.20269999998808075]",,7,0,7,0,1,,,,
,,A000000000,2022-11-28_15h06.06.749,GoFitts,2022.2.4,Win32,75.17666516,,,,,,,,,,,,,,,,,,"[-8.88491937775061,-84.53436110630322]","[-8.884919377750533,84.53436110630324]",77.8,170,0,"[19,18,17,17,17,17,17,17,17,17,17,15,13,10,8,6,4,3,2,1]","[-66,-78,-86,-90,-90,-92,-92,-92,-92,-92,-92,-83,-75,-62,-46,-28,-3,18,37,51]","[0,0,0,0,0,0,0,0,0,0,0,0,0,0,0,0,0,0,0,0]","[0,0,0,0,0,0,0,0,0,0,0,0,0,0,0,0,0,0,0,0]","[0,0,0,0,0,0,0,0,0,0,0,0,0,0,0,0,0,0,0,0]","[0.0003000000119186552,0.01309999999403999,0.026499999999998636,0.039599999994038626,0.050099999994039024,0.0669000000059583,0.07690000000595987,0.09240000000595927,0.10650000000000048,0.11700000000000088,0.13019999998807918,0.14640000000596132,0.15990000000595828,0.17319999998807845,0.18649999999999878,0.19669999998807697,0.2129000000059591,0.22649999999999793,0.23959999999403792,0.25290000000595825]",,8,0,8,0,1,,,,
,,A000000000,2022-11-28_15h06.06.749,GoFitts,2022.2.4,Win32,75.17666516,,,,,,,,,,,,,,,,,,"[-8.884919377750533,84.53436110630324]","[26.266444521870515,-80.83980388508806]",77.8,170,0,"[1,1,0,0,-1,-1,-1,-1,-1,-1,-1,2,5,9,11,14]","[51,63,72,78,81,83,84,84,84,84,75,58,36,7,-21,-45]","[0,0,0,0,0,0,0,0,0,0,0,0,0,0,0,0]","[0,0,0,0,0,0,0,0,0,0,0,0,0,0,0,0]","[0,0,0,0,0,0,0,0,0,0,0,0,0,0,0,0]","[0.00020000001788034183,0.013000000000001677,0.026599999994040502,0.03980000001192252,0.05030000001192292,0.06400000000000006,0.08000000000000185,0.09320000001788031,0.1065999999940388,0.11700000000000088,0.13040000000595953,0.14649999999999963,0.16009999999403846,0.17340000000596234,0.18659999999404064,0.19980000001192266]",,9,0,9,0,1,,,,
,,A000000000,2022-11-28_15h06.06.749,GoFitts,2022.2.4,Win32,75.17666516,,,,,,,,,,,,,,,,,,"[26.266444521870515,-80.83980388508806]","[-42.49999999999998,73.6121593216773]",77.8,170,0,"[14,19,24,29,32,34,34,34,34,34,34,33,28,20,10,-1,-8,-19,-28,-36,-39,-44]","[-45,-68,-83,-94,-103,-107,-109,-109,-109,-109,-109,-103,-91,-76,-59,-42,-30,-10,5,19,27,37]","[0,0,0,0,0,0,0,0,0,0,0,0,0,0,0,0,0,0,0,0,0,0]","[0,0,0,0,0,0,0,0,0,0,0,0,0,0,0,0,0,0,0,0,0,0]","[0,0,0,0,0,0,0,0,0,0,0,0,0,0,0,0,0,0,0,0,0,0]","[0.00020000001788389454,0.013500000000000512,0.026599999994040502,0.03980000001192252,0.05330000001192303,0.06659999999403965,0.08000000000000185,0.09359999999404067,0.10359999999404224,0.1168000000119207,0.1305000000000014,0.1440000000000019,0.16000000000000014,0.17350000000000065,0.18670000001788267,0.1997000000178808,0.2102000000178812,0.22620000001788299,0.23990000000596012,0.2533000000119223,0.26370000001788085,0.2799000000059628]",,10,0,10,0,1,,,,
,,A000000000,2022-11-28_15h06.06.749,GoFitts,2022.2.4,Win32,75.17666516,,,,,,,,,,,,,,,,,,"[-42.49999999999998,73.6121593216773]","[56.87610154050297,-63.16731016557849]",77.8,170,0,"[-44,-46,-46,-46,-46,-46,-46,-46,-43,-37,-29,-22,-14,-7,6,20,33]","[37,43,46,46,46,46,46,45,41,32,24,16,7,-2,-20,-37,-53]","[0,0,0,0,0,0,0,0,0,0,0,0,0,0,0,0,0]","[0,0,0,0,0,0,0,0,0,0,0,0,0,0,0,0,0]","[0,0,0,0,0,0,0,0,0,0,0,0,0,0,0,0,0]","[0.0001999999880801795,0.013799999982119004,0.026299999982118294,0.03669999998808038,0.05019999998808089,0.06350000000000122,0.08009999999404016,0.09019999998808004,0.10339999997615834,0.11969999998807879,0.1331999999880793,0.14649999999999963,0.1597999999821198,0.17009999999404002,0.1863999999761603,0.19959999999403877,0.21300000000000097]",,11,0,11,0,1,,,,
,,A000000000,2022-11-28_15h06.06.749,GoFitts,2022.2.4,Win32,75.17666516,,,,,,,,,,,,,,,,,,"[56.87610154050297,-63.16731016557849]","[-68.76644452187053,49.961746444860225]",77.8,170,0,"[33,43,52,56,60,61,61,61,61,61,59,53,40,20,-3,-24,-47,-62,-75,-81,-87,-88,-88,-88,-88,-88,-85,-77]","[-53,-64,-71,-75,-76,-77,-77,-77,-77,-77,-75,-68,-58,-47,-34,-23,-12,-3,3,8,11,12,13,13,13,13,13,13]","[0,0,0,0,0,0,0,0,0,0,0,0,0,0,0,0,0,0,0,0,0,0,0,0,0,0,0,0]","[0,0,0,0,0,0,0,0,0,0,0,0,0,0,0,0,0,0,0,0,0,0,0,0,0,0,0,0]","[0,0,0,0,0,0,0,0,0,0,0,0,0,0,0,0,0,0,0,0,0,0,0,0,0,0,0,0]","[0.00009999999403831339,0.013000000000001677,0.02630000001192201,0.039700000017880654,0.053200000017881166,0.06659999999403965,0.0797000000178798,0.0902000000178802,0.10640000000596217,0.1168000000119207,0.1303000000119212,0.14640000000596132,0.15970000001788165,0.17300000000000182,0.18630000001192215,0.19959999999403877,0.2132000000178813,0.22650000000000148,0.2394999999999996,0.25020000001788034,0.2664000000059623,0.2795999999940406,0.29330000001192147,0.30340000000596135,0.31690000000596186,0.3333000000119206,0.34559999999403956,0.3594000000059623]",,12,0,12,0,1,,,,
,,A000000000,2022-11-28_15h06.06.749,GoFitts,2022.2.4,Win32,75.17666516,,,,,,,,,,,,,,,,,,"[-68.76644452187053,49.961746444860225]","[77.65136389962109,-34.57261466144301]",77.8,170,0,"[-77,-61,-46,-21,-3,10,17,22,22,23,23,23,23,23,22,22,22,22,22,28,40,54,67]","[13,12,12,12,12,12,11,9,9,9,9,9,9,9,9,9,9,9,9,9,4,-1,-7]","[0,0,0,0,0,0,0,0,0,0,0,0,0,0,0,0,0,0,0,0,0,0,0]","[0,0,0,0,0,0,0,0,0,0,0,0,0,0,0,0,0,0,0,0,0,0,0]","[0,0,0,0,0,0,0,0,0,0,0,0,0,0,0,0,0,0,0,0,0,0,0]","[0.00019999998807662678,0.013699999988077138,0.024199999988077536,0.04049999999999798,0.05359999999403797,0.0671999999880768,0.0774000000059587,0.09380000001192101,0.10709999999403763,0.12049999999999983,0.13090000000595836,0.14699999999999847,0.15740000000596055,0.1738000000119193,0.18419999998807768,0.197499999999998,0.21380000001191846,0.22419999998807683,0.23759999999403902,0.25390000000595947,0.2670999999940378,0.2804000000059581,0.2935999999940364]",,13,0,13,0,1,,,,
,,A000000000,2022-11-28_15h06.06.749,GoFitts,2022.2.4,Win32,75.17666516,,,,,,,,,,,,,,,,,,"[77.65136389962109,-34.57261466144301]","[-83.14254606237348,17.672493719509543]",77.8,170,0,"[67,78,86,94,99,101,101,101,102,102,102,102,102,102,100,95,87,75,50,27,3,-30,-54]","[-7,-10,-14,-18,-22,-24,-25,-25,-25,-25,-25,-25,-25,-25,-25,-24,-21,-16,-6,2,8,13,15]","[0,0,0,0,0,0,0,0,0,0,0,0,0,0,0,0,0,0,0,0,0,0,0]","[0,0,0,0,0,0,0,0,0,0,0,0,0,0,0,0,0,0,0,0,0,0,0]","[0,0,0,0,0,0,0,0,0,0,0,0,0,0,0,0,0,0,0,0,0,0,0]","[0.00019999998807662678,0.013299999982116617,0.0236999999880787,0.04019999998807933,0.05319999998807745,0.06359999999403954,0.07719999998807836,0.09029999998211835,0.10709999999403763,0.12009999999403931,0.1332999999821176,0.1436999999880797,0.15719999998807666,0.1703999999761585,0.1869999999999976,0.19989999997615726,0.2131999999880776,0.223699999988078,0.2398999999761564,0.2530999999940384,0.2635999999940388,0.28019999998807776,0.2937999999821166]",,14,0,14,0,1,,,,
,,A000000000,2022-11-28_15h06.06.749,GoFitts,2022.2.4,Win32,75.17666516,,,,,,,,,,,,,,,,,,,,,,0,,,,,,,,,,,,,0,0,0,1
,,A000000000,2022-11-28_15h06.06.749,GoFitts,2022.2.4,Win32,75.17666516,,,,,,,,,,,,,,,,return,0.427,"[125,19]","[319.7409101749103,142.35782507653005]",20,700,1,"[125,125,125,125,125,125,125,125,125,125,125,125,125,125,123,122,119,116,113,110,108,107,106,106,106,110,117,133,147,179,207,234,259,281,294,302,306,309,309,309,309,309,310,310,310,311,311,312]","[19,19,19,19,19,19,19,19,19,19,19,19,19,19,19,19,19,19,19,19,19,20,20,20,22,27,35,47,55,72,87,100,111,120,125,128,131,132,132,132,132,132,133,133,134,135,136,137]","[0,0,0,0,0,0,0,0,0,0,0,0,0,0,0,0,0,0,0,0,0,0,0,0,0,0,0,0,0,0,0,0,0,0,0,0,0,0,0,0,0,0,0,0,0,0,0,0]","[0,0,0,0,0,0,0,0,0,0,0,0,0,0,0,0,0,0,0,0,0,0,0,0,0,0,0,0,0,0,0,0,0,0,0,0,0,0,0,0,0,0,0,0,0,0,0,0]","[0,0,0,0,0,0,0,0,0,0,0,0,0,0,0,0,0,0,0,0,0,0,0,0,0,0,0,0,0,0,0,0,0,0,0,0,0,0,0,0,0,0,0,0,0,0,0,0]","[0.0005999999940407008,0.015699999988079583,0.028999999999999915,0.0423999999761584,0.052899999976158796,0.06589999997615692,0.08229999998211923,0.09569999998807788,0.10859999999404124,0.12249999999999872,0.1355999999940387,0.14889999997615888,0.1592999999821174,0.1755999999940414,0.18879999998211972,0.19950000000000045,0.21539999997616022,0.2289999999999992,0.24229999998211937,0.2558999999761582,0.2690000000000019,0.27969999998807893,0.29519999998807833,0.30869999998807884,0.31919999998807924,0.33279999998211807,0.3460000000000001,0.3620999999940402,0.3725999999940406,0.3888999999761573,0.402000000000001,0.4151999999880793,0.42869999998807984,0.44200000000000017,0.4551999999880785,0.4684999999999988,0.4792999999821177,0.4953999999761578,0.5058999999761582,0.5190000000000019,0.5325999999940407,0.5458999999761573,0.5620999999940395,0.5730000000000004,0.5857999999821182,0.6022999999821188,0.6155999999940391,0.6288999999761593]",,0,0,0,0,1,,,,
,,A000000000,2022-11-28_15h06.06.749,GoFitts,2022.2.4,Win32,75.17666516,,,,,,,,,,,,,,,,,,"[319.7409101749103,142.35782507653005]","[-283.1559480312316,-205.72483830236555]",20,700,1,"[312,312,313,315,316,316,316,316,316,316,316,316,316,316,314,308,299,282,254,222,153,94,29,-31,-82,-124,-157,-177,-189,-199,-203,-205,-206,-208,-211,-213,-215,-218,-222,-228,-234,-244,-253,-263,-271,-277]","[137,140,142,144,145,146,146,146,146,146,146,146,146,146,144,140,135,124,106,88,52,21,-9,-39,-62,-81,-96,-106,-113,-120,-127,-133,-140,-145,-152,-158,-163,-168,-173,-178,-182,-189,-193,-197,-199,-201]","[0,0,0,0,0,0,0,0,0,0,0,0,0,0,0,0,0,0,0,0,0,0,0,0,0,0,0,0,0,0,0,0,0,0,0,0,0,0,0,0,0,0,0,0,0,0]","[0,0,0,0,0,0,0,0,0,0,0,0,0,0,0,0,0,0,0,0,0,0,0,0,0,0,0,0,0,0,0,0,0,0,0,0,0,0,0,0,0,0,0,0,0,0]","[0,0,0,0,0,0,0,0,0,0,0,0,0,0,0,0,0,0,0,0,0,0,0,0,0,0,0,0,0,0,0,0,0,0,0,0,0,0,0,0,0,0,0,0,0,0]","[0.0002999999821184929,0.014199999988079526,0.026699999988078815,0.039799999982118806,0.05309999999403914,0.06679999998211983,0.07700000000000173,0.09319999998808015,0.10629999998212014,0.1197999999821171,0.13299999999999912,0.1436999999880797,0.15899999999999892,0.1726999999880796,0.18359999999404053,0.19990000000596098,0.2129000000059591,0.2264000000059596,0.2394999999999996,0.24979999998211966,0.2664000000059623,0.27949999999999875,0.29290000000596095,0.30619999998807756,0.31950000000000145,0.33200000000000074,0.34579999998211974,0.3594000000059623,0.370000000000001,0.3862999999821177,0.39949999999999974,0.41290000000596194,0.42619999998807856,0.4394999999999989,0.4529000000059611,0.4661999999880777,0.4796999999880782,0.4927999999821182,0.5064999999999991,0.5194000000059624,0.5327999999821174,0.5461999999880796,0.5595999999940382,0.5729000000059621,0.586400000005959,0.5994000000059607]",,1,0,1,0,1,,,,
,,A000000000,2022-11-28_15h06.06.749,GoFitts,2022.2.4,Win32,75.17666516,,,,,,,,,,,,,,,,,,"[-283.1559480312316,-205.72483830236555]","[234.19571222560037,260.100688917088]",20,700,1,"[-277,-281,-282,-282,-282,-282,-282,-282,-282,-282,-282,-282,-282,-276,-266,-235,-194,-135,-66,10,74,121,149,173,183,187,188,189,191,192,193,196,197,199,201,202,204,207,211,216,221,227,230,234]","[-201,-202,-202,-202,-202,-202,-203,-203,-203,-203,-203,-203,-200,-191,-176,-136,-88,-25,34,84,122,151,168,183,191,195,199,200,202,203,204,206,207,209,212,214,218,222,227,233,240,245,247,251]","[0,0,0,0,0,0,0,0,0,0,0,0,0,0,0,0,0,0,0,0,0,0,0,0,0,0,0,0,0,0,0,0,0,0,0,0,0,0,0,0,0,0,0,0]","[0,0,0,0,0,0,0,0,0,0,0,0,0,0,0,0,0,0,0,0,0,0,0,0,0,0,0,0,0,0,0,0,0,0,0,0,0,0,0,0,0,0,0,0]","[0,0,0,0,0,0,0,0,0,0,0,0,0,0,0,0,0,0,0,0,0,0,0,0,0,0,0,0,0,0,0,0,0,0,0,0,0,0,0,0,0,0,0,0]","[0.0001999999880801795,0.01329999998212017,0.02400000000000091,0.03719999998807921,0.05329999998211932,0.06390000000596174,0.08019999998808203,0.09069999998807887,0.106900000005961,0.1174000000059614,0.13369999998808169,0.1440000000000019,0.16019999998808032,0.17340000000596234,0.1837999999821207,0.20050000000000168,0.2134999999999998,0.22669999998808166,0.240000000000002,0.2535000000000025,0.2666999999880808,0.28000000000000114,0.29050000000000153,0.30679999998211827,0.32009999999404215,0.3334000000059625,0.3466999999880791,0.3574000000059634,0.37340000000596163,0.38690000000596214,0.3972999999821205,0.41300000000000026,0.4239000000059612,0.4400000000000013,0.4535000000000018,0.4640999999940405,0.4801999999880806,0.4939999999999998,0.5067999999821211,0.5199999999999996,0.5335000000000001,0.5465999999940401,0.5570999999940405,0.570599999994041]",,2,0,2,0,1,,,,
,,A000000000,2022-11-28_15h06.06.749,GoFitts,2022.2.4,Win32,75.17666516,,,,,,,,,,,,,,,,,,"[234.19571222560037,260.100688917088]","[-175.00000000000014,-303.1088913245535]",20,700,1,"[234,236,238,239,239,239,239,239,239,239,239,239,238,235,230,217,194,174,145,112,79,38,3,-27,-51,-68,-83,-98,-107,-113,-119,-123,-126,-127,-129,-130,-131,-133,-135,-139,-143,-145,-148,-152,-154,-157,-160,-162,-164,-165,-166,-167,-167,-168,-170]","[251,254,256,256,256,256,256,256,256,256,257,257,256,252,244,229,200,172,128,79,34,-16,-52,-85,-109,-128,-146,-162,-174,-182,-190,-196,-201,-206,-212,-218,-223,-227,-235,-242,-250,-257,-262,-267,-270,-275,-279,-282,-284,-287,-287,-290,-292,-294,-295]","[0,0,0,0,0,0,0,0,0,0,0,0,0,0,0,0,0,0,0,0,0,0,0,0,0,0,0,0,0,0,0,0,0,0,0,0,0,0,0,0,0,0,0,0,0,0,0,0,0,0,0,0,0,0,0]","[0,0,0,0,0,0,0,0,0,0,0,0,0,0,0,0,0,0,0,0,0,0,0,0,0,0,0,0,0,0,0,0,0,0,0,0,0,0,0,0,0,0,0,0,0,0,0,0,0,0,0,0,0,0,0]","[0,0,0,0,0,0,0,0,0,0,0,0,0,0,0,0,0,0,0,0,0,0,0,0,0,0,0,0,0,0,0,0,0,0,0,0,0,0,0,0,0,0,0,0,0,0,0,0,0,0,0,0,0,0,0]","[0.00020000001788034183,0.015999999999998238,0.02930000001191857,0.04270000001788077,0.05590000000595907,0.06630000001192116,0.08020000001787864,0.09320000001788031,0.1063000000119203,0.12260000002384075,0.13610000002384126,0.14649999999999963,0.16300000000000026,0.17590000000596007,0.18649999999999878,0.19960000002383893,0.21570000001787903,0.22860000002383885,0.24220000001788122,0.25590000000595836,0.26930000001192056,0.28280000001192107,0.2959000000059575,0.3093000000119197,0.3224000000059597,0.3329999999999984,0.34660000002384095,0.3626000000238392,0.37650000000000006,0.3894999999999982,0.40249999999999986,0.41600000000000037,0.42920000001787884,0.43970000001787923,0.4559999999999995,0.4708000000119199,0.4826000000238402,0.4932000000178789,0.509300000011919,0.5224999999999973,0.5359999999999978,0.5493000000119181,0.5627000000178803,0.5758000000119203,0.5863000000119207,0.6026000000238412,0.6159000000059578,0.62930000001192,0.6399000000059587,0.6559000000059605,0.6664999999999992,0.6827000000178813,0.69610000002384,0.70920000001788,0.7198000000119187]",,3,0,3,0,1,,,,
,,A000000000,2022-11-28_15h06.06.749,GoFitts,2022.2.4,Win32,75.17666516,,,,,,,,,,,,,,,,,,"[-175.00000000000014,-303.1088913245535]","[108.1559480312316,332.8697807033037]",20,700,1,"[-170,-170,-171,-171,-171,-171,-171,-171,-171,-171,-170,-166,-153,-136,-110,-69,-19,30,75,110,132,146,152,155,158,159,160,162,164,166,166,167,167,167,165,161,156,150,145,139,133,129,126,122,119,116]","[-295,-298,-299,-301,-303,-303,-303,-303,-303,-303,-300,-289,-257,-207,-132,-36,56,129,187,228,253,269,279,286,291,295,299,304,310,314,319,324,327,329,332,333,335,336,337,337,337,337,337,337,337,337]","[0,0,0,0,0,0,0,0,0,0,0,0,0,0,0,0,0,0,0,0,0,0,0,0,0,0,0,0,0,0,0,0,0,0,0,0,0,0,0,0,0,0,0,0,0,0]","[0,0,0,0,0,0,0,0,0,0,0,0,0,0,0,0,0,0,0,0,0,0,0,0,0,0,0,0,0,0,0,0,0,0,0,0,0,0,0,0,0,0,0,0,0,0]","[0,0,0,0,0,0,0,0,0,0,0,0,0,0,0,0,0,0,0,0,0,0,0,0,0,0,0,0,0,0,0,0,0,0,0,0,0,0,0,0,0,0,0,0,0,0]","[0.0003000000119186552,0.01659999999403894,0.02970000001787909,0.0432000000178796,0.05620000001788128,0.06630000001192116,0.08240000000595771,0.09320000001788031,0.10670000001788082,0.12240000000596041,0.13340000000595964,0.14670000001787997,0.1627000000178782,0.17620000001787872,0.1894999999999989,0.2027000000178809,0.2160999999940394,0.22949999999999804,0.24259999999403803,0.2560000000000002,0.26930000001192056,0.2827000000178792,0.2959999999999994,0.3093000000119197,0.32299999999999685,0.33609999999403684,0.34920000001788054,0.35980000001191925,0.37609999999403954,0.389300000011918,0.4028000000119185,0.4159999999999968,0.42949999999999733,0.4399000000059594,0.455700000017881,0.46950000000000003,0.48249999999999815,0.49599999999999866,0.5092000000178807,0.5229999999999997,0.5364000000059583,0.5493000000119181,0.5627000000178803,0.5764000000059575,0.5894000000059592,0.6029000000059597]",,4,0,4,0,1,,,,
,,A000000000,2022-11-28_15h06.06.749,GoFitts,2022.2.4,Win32,75.17666516,,,,,,,,,,,,,,,,,,"[108.1559480312316,332.8697807033037]","[-36.58496214367898,-348.08266337889563]",20,700,1,"[116,114,112,112,112,111,111,111,110,110,108,108,106,104,102,97,91,86,80,76,71,63,57,49,41,35,29,25,22,19,18,15,14,13,11,11,9,7,4,0,-3,-8,-13,-18,-21,-25,-27,-29,-31,-31,-32,-33]","[337,336,336,336,335,335,335,335,335,335,335,335,333,331,326,313,291,255,197,151,83,0,-64,-115,-157,-183,-202,-213,-224,-234,-239,-244,-249,-253,-257,-260,-263,-268,-273,-278,-283,-290,-299,-306,-311,-318,-324,-328,-332,-336,-338,-342]","[0,0,0,0,0,0,0,0,0,0,0,0,0,0,0,0,0,0,0,0,0,0,0,0,0,0,0,0,0,0,0,0,0,0,0,0,0,0,0,0,0,0,0,0,0,0,0,0,0,0,0,0]","[0,0,0,0,0,0,0,0,0,0,0,0,0,0,0,0,0,0,0,0,0,0,0,0,0,0,0,0,0,0,0,0,0,0,0,0,0,0,0,0,0,0,0,0,0,0,0,0,0,0,0,0]","[0,0,0,0,0,0,0,0,0,0,0,0,0,0,0,0,0,0,0,0,0,0,0,0,0,0,0,0,0,0,0,0,0,0,0,0,0,0,0,0,0,0,0,0,0,0,0,0,0,0,0,0]","[0.00030000001192220793,0.01309999999403999,0.023599999994040388,0.03980000001192252,0.050099999994039024,0.06680000001191999,0.07659999999404121,0.09030000001192207,0.10390000000596089,0.11700000000000088,0.13330000001192133,0.1437000000178834,0.16000000000000014,0.17340000000596234,0.18350000000000222,0.20009999999404116,0.21309999999403928,0.2264000000059596,0.240000000000002,0.2503000000119222,0.2638000000119227,0.27970000001788264,0.2930999999940411,0.30630000001192315,0.3197000000178818,0.3329000000059601,0.3464000000059606,0.3568000000119227,0.3703000000119232,0.38640000000595975,0.39970000001788364,0.41300000000000026,0.42640000000596245,0.4397000000178828,0.4532000000178833,0.4665999999940418,0.48009999999403874,0.4930999999940404,0.5062000000178806,0.516700000017881,0.5304000000059617,0.5435000000000016,0.5597000000178802,0.5729000000059621,0.5835999999940391,0.5995999999940409,0.6129999999999995,0.6262000000178816,0.6397000000178821,0.6530000000000022,0.6638000000119213,0.6799000000059614]",,5,0,5,0,1,,,,
,,A000000000,2022-11-28_15h06.06.749,GoFitts,2022.2.4,Win32,75.17666516,,,,,,,,,,,,,,,,,,"[-36.58496214367898,-348.08266337889563]","[-36.584962143678666,348.0826633788957]",20,700,1,"[-33,-33,-34,-34,-34,-34,-34,-34,-34,-34,-34,-34,-34,-34,-34,-33,-31,-31,-30,-27,-25,-18,-16,-16,-16,-16,-16,-16,-16,-16,-16,-17,-17,-18,-19,-22,-26,-29]","[-342,-345,-346,-348,-348,-348,-348,-348,-348,-348,-348,-348,-344,-334,-317,-271,-208,-133,-60,28,109,186,228,258,277,292,303,310,317,322,327,331,335,337,338,339,340,342]","[0,0,0,0,0,0,0,0,0,0,0,0,0,0,0,0,0,0,0,0,0,0,0,0,0,0,0,0,0,0,0,0,0,0,0,0,0,0]","[0,0,0,0,0,0,0,0,0,0,0,0,0,0,0,0,0,0,0,0,0,0,0,0,0,0,0,0,0,0,0,0,0,0,0,0,0,0]","[0,0,0,0,0,0,0,0,0,0,0,0,0,0,0,0,0,0,0,0,0,0,0,0,0,0,0,0,0,0,0,0,0,0,0,0,0,0]","[0.0000999999940418661,0.013200000017882019,0.023599999994040388,0.03999999999999915,0.05040000000596123,0.06650000000000134,0.08000000000000185,0.09309999999404184,0.1063000000119203,0.11670000001788239,0.13000000000000256,0.14380000001192172,0.16000000000000014,0.17300000000000182,0.18350000000000222,0.19950000000000045,0.21300000000000097,0.22650000000000148,0.23690000000596,0.25009999999404187,0.2635000000000005,0.27980000001192096,0.29280000001192263,0.3064999999999998,0.31959999999403976,0.3330999999940403,0.3464000000059606,0.3567000000178808,0.3730999999940394,0.38640000000595975,0.39970000001788364,0.4130999999940421,0.42640000000596245,0.4400999999940396,0.4532000000178833,0.4664000000059616,0.47970000001788193,0.49320000001788245]",,6,0,6,0,1,,,,
,,A000000000,2022-11-28_15h06.06.749,GoFitts,2022.2.4,Win32,75.17666516,,,,,,,,,,,,,,,,,,"[-36.584962143678666,348.0826633788957]","[108.15594803123153,-332.8697807033038]",20,700,1,"[-29,-32,-35,-38,-39,-39,-40,-42,-42,-42,-42,-42,-43,-44,-40,-29,-9,9,21,34,58,77,88,96,101,103,104,104,104,104,106,108,109,111,113,116,119,120,120,121,121,121,121,118,117,115]","[342,343,343,344,344,345,345,345,345,345,345,345,342,332,304,265,198,109,17,-56,-170,-241,-294,-328,-347,-357,-360,-361,-361,-361,-361,-361,-360,-360,-360,-360,-360,-359,-359,-359,-356,-353,-348,-343,-339,-337]","[0,0,0,0,0,0,0,0,0,0,0,0,0,0,0,0,0,0,0,0,0,0,0,0,0,0,0,0,0,0,0,0,0,0,0,0,0,0,0,0,0,0,0,0,0,0]","[0,0,0,0,0,0,0,0,0,0,0,0,0,0,0,0,0,0,0,0,0,0,0,0,0,0,0,0,0,0,0,0,0,0,0,0,0,0,0,0,0,0,0,0,0,0]","[0,0,0,0,0,0,0,0,0,0,0,0,0,0,0,0,0,0,0,0,0,0,0,0,0,0,0,0,0,0,0,0,0,0,0,0,0,0,0,0,0,0,0,0,0,0]","[0.00019999998807662678,0.012999999999998124,0.023499999999998522,0.039599999994038626,0.05330000001191948,0.06330000001192104,0.07980000001191812,0.09009999999403817,0.1065999999940388,0.11980000001192082,0.13309999999403743,0.14340000000595765,0.15690000000595816,0.17009999999403647,0.18649999999999878,0.19969999998807708,0.2128000000119208,0.2263000000119213,0.2394999999999996,0.2501999999880766,0.26630000001192045,0.27969999998807893,0.29299999999999926,0.3063000000119196,0.31959999999403976,0.3329000000059601,0.3460999999940384,0.3596999999880772,0.36999999999999744,0.38659999999403993,0.3970999999940368,0.41019999998807677,0.4265999999940391,0.4398000000119211,0.4504000000059598,0.465599999994037,0.47949999999999804,0.49059999999403914,0.5064999999999991,0.5169000000059576,0.5330999999940396,0.5434999999999981,0.5569000000059603,0.5739000000059598,0.5863000000119207,0.6000999999940397]",,7,0,7,0,1,,,,
,,A000000000,2022-11-28_15h06.06.749,GoFitts,2022.2.4,Win32,75.17666516,,,,,,,,,,,,,,,,,,"[108.15594803123153,-332.8697807033038]","[-174.99999999999991,303.10889132455355]",20,700,1,"[115,115,114,114,113,113,112,110,109,106,103,97,91,77,60,31,-5,-46,-81,-108,-126,-140,-149,-153,-154,-154,-154,-154,-154,-154,-154,-154,-156,-159,-163,-168]","[-337,-336,-335,-335,-335,-335,-334,-334,-332,-329,-325,-311,-293,-252,-200,-117,-21,91,178,243,285,311,324,330,330,331,331,331,331,331,331,331,331,326,321,310]","[0,0,0,0,0,0,0,0,0,0,0,0,0,0,0,0,0,0,0,0,0,0,0,0,0,0,0,0,0,0,0,0,0,0,0,0]","[0,0,0,0,0,0,0,0,0,0,0,0,0,0,0,0,0,0,0,0,0,0,0,0,0,0,0,0,0,0,0,0,0,0,0,0]","[0,0,0,0,0,0,0,0,0,0,0,0,0,0,0,0,0,0,0,0,0,0,0,0,0,0,0,0,0,0,0,0,0,0,0,0]","[0.0002999999821184929,0.012999999999998124,0.023599999994040388,0.0365000000000002,0.04989999997615868,0.06679999998211983,0.07679999998211784,0.09299999999999997,0.1059999999999981,0.11939999997615658,0.12989999997615698,0.1460999999940391,0.15619999998807899,0.17249999999999943,0.18589999997615791,0.19919999998807825,0.21249999999999858,0.2259999999999991,0.2391999999880774,0.2525999999940396,0.2660999999940401,0.2791999999880801,0.29269999998807705,0.3058999999761589,0.3163999999761593,0.32979999998211795,0.34319999998808015,0.356799999982119,0.3701999999880776,0.38639999997615604,0.3993999999761577,0.4128999999761582,0.42329999998211676,0.43939999997615686,0.44989999997615726,0.4660999999940394]",,8,0,8,0,1,,,,
,,A000000000,2022-11-28_15h06.06.749,GoFitts,2022.2.4,Win32,75.17666516,,,,,,,,,,,,,,,,,,"[-174.99999999999991,303.10889132455355]","[234.19571222560046,-260.1006889170879]",20,700,1,"[-168,-172,-176,-179,-180,-181,-181,-181,-181,-181,-181,-181,-181,-181,-181,-180,-175,-168,-158,-136,-104,-57,-20,17,50,73,94,110,118,124,128,133,136,139,142,145,149,154,157,163,168,176,181,187,191,197,202,205,208,210,212,213,214,214,214,214,214,214,214,215,217,220,222,225,229,231]","[310,301,295,287,284,282,282,282,282,282,282,282,282,282,282,281,278,270,258,231,195,131,72,13,-40,-71,-99,-121,-131,-141,-146,-151,-156,-160,-163,-167,-172,-176,-179,-183,-187,-192,-195,-198,-201,-206,-211,-216,-219,-224,-226,-229,-231,-232,-233,-233,-233,-233,-234,-235,-238,-241,-243,-246,-249,-251]","[0,0,0,0,0,0,0,0,0,0,0,0,0,0,0,0,0,0,0,0,0,0,0,0,0,0,0,0,0,0,0,0,0,0,0,0,0,0,0,0,0,0,0,0,0,0,0,0,0,0,0,0,0,0,0,0,0,0,0,0,0,0,0,0,0,0]","[0,0,0,0,0,0,0,0,0,0,0,0,0,0,0,0,0,0,0,0,0,0,0,0,0,0,0,0,0,0,0,0,0,0,0,0,0,0,0,0,0,0,0,0,0,0,0,0,0,0,0,0,0,0,0,0,0,0,0,0,0,0,0,0,0,0]","[0,0,0,0,0,0,0,0,0,0,0,0,0,0,0,0,0,0,0,0,0,0,0,0,0,0,0,0,0,0,0,0,0,0,0,0,0,0,0,0,0,0,0,0,0,0,0,0,0,0,0,0,0,0,0,0,0,0,0,0,0,0,0,0,0,0]","[0.00009999999403831339,0.012999999999998124,0.023499999999998522,0.03990000000595728,0.050099999994039024,0.06670000001788168,0.0797000000178798,0.09320000001788031,0.10359999999403868,0.11690000000595901,0.13309999999403743,0.14370000001787986,0.15700000000000003,0.1732000000178786,0.18640000000596046,0.1969000000059573,0.21309999999403928,0.2264000000059596,0.23690000000596,0.25030000001191866,0.2635999999940388,0.2802000000178815,0.2929000000059574,0.3064000000059579,0.31970000001787824,0.33020000001787864,0.3433000000119186,0.35949999999999704,0.37030000001191965,0.38649999999999807,0.3968000000119183,0.41300000000000026,0.4263000000119206,0.4399000000059594,0.45020000001787963,0.4634999999999998,0.47680000001192013,0.4932000000178789,0.503499999999999,0.5199000000059577,0.5304000000059581,0.5464000000059599,0.5602000000178791,0.5729000000059585,0.5837000000178811,0.5995999999940373,0.6137000000178787,0.6265000000000001,0.6365999999940364,0.6503000000119208,0.6634999999999991,0.6768000000119194,0.6932000000178817,0.7064999999999984,0.7199000000059605,0.7304000000059574,0.7439999999999998,0.759300000011919,0.7733000000119183,0.7864000000059583,0.7997000000178787,0.8130999999940371,0.8265999999940377,0.8398000000119197,0.8532000000178783,0.8664999999999985]",,9,0,9,0,1,,,,
,,A000000000,2022-11-28_15h06.06.749,GoFitts,2022.2.4,Win32,75.17666516,,,,,,,,,,,,,,,,,,"[234.19571222560046,-260.1006889170879]","[-283.15594803123156,205.72483830236564]",20,700,1,"[231,234,235,237,238,239,239,239,239,239,239,236,230,220,196,155,101,43,-18,-77,-117,-154,-184,-206,-220,-226,-229,-230,-231,-231,-231,-232,-235,-238,-243,-249,-252,-258,-264,-268,-274]","[-251,-253,-254,-255,-256,-257,-257,-257,-257,-257,-257,-254,-244,-227,-190,-137,-70,-4,55,103,132,157,175,189,197,200,202,203,203,203,203,203,204,204,204,204,204,204,205,206,206]","[0,0,0,0,0,0,0,0,0,0,0,0,0,0,0,0,0,0,0,0,0,0,0,0,0,0,0,0,0,0,0,0,0,0,0,0,0,0,0,0,0]","[0,0,0,0,0,0,0,0,0,0,0,0,0,0,0,0,0,0,0,0,0,0,0,0,0,0,0,0,0,0,0,0,0,0,0,0,0,0,0,0,0]","[0,0,0,0,0,0,0,0,0,0,0,0,0,0,0,0,0,0,0,0,0,0,0,0,0,0,0,0,0,0,0,0,0,0,0,0,0,0,0,0,0]","[0.00030000001192220793,0.013100000023843705,0.023700000017882417,0.0400000000000027,0.05040000000596123,0.06370000001788156,0.07740000000596226,0.093100000023842,0.10670000001788438,0.11710000002384291,0.1305000000000014,0.14350000000000307,0.15980000001192352,0.17310000002384385,0.18620000001788384,0.19960000002384248,0.213100000023843,0.2263000000119213,0.23960000002384163,0.253200000017884,0.2653000000119228,0.2793000000119221,0.29320000001788316,0.30630000001192315,0.31980000001192366,0.3301000000238439,0.3463000000119223,0.3598000000119228,0.37310000002384314,0.3864000000059633,0.39690000000596015,0.41000000000000014,0.4266000000238428,0.4371000000238432,0.4502000000178832,0.4664000000059616,0.476900000005962,0.49020000001788233,0.5064000000059607,0.5168000000119228,0.5302000000178815]",,10,0,10,0,1,,,,
,,A000000000,2022-11-28_15h06.06.749,GoFitts,2022.2.4,Win32,75.17666516,,,,,,,,,,,,,,,,,,"[-283.15594803123156,205.72483830236564]","[319.74091017491037,-142.35782507653005]",20,700,1,"[-274,-280,-284,-285,-286,-286,-286,-286,-286,-286,-285,-274,-252,-209,-145,-67,26,91,194,239,283,314,323,325,325,325,325,325,325,327,329,331,332,333,333,333,331,329,327]","[206,207,208,209,209,210,210,210,210,210,208,199,182,156,119,74,21,-18,-82,-110,-138,-158,-164,-165,-165,-165,-165,-164,-160,-155,-151,-148,-146,-144,-142,-141,-138,-137,-137]","[0,0,0,0,0,0,0,0,0,0,0,0,0,0,0,0,0,0,0,0,0,0,0,0,0,0,0,0,0,0,0,0,0,0,0,0,0,0,0]","[0,0,0,0,0,0,0,0,0,0,0,0,0,0,0,0,0,0,0,0,0,0,0,0,0,0,0,0,0,0,0,0,0,0,0,0,0,0,0]","[0,0,0,0,0,0,0,0,0,0,0,0,0,0,0,0,0,0,0,0,0,0,0,0,0,0,0,0,0,0,0,0,0,0,0,0,0,0,0]","[0.00020000001788034183,0.016099999994040104,0.026599999994040502,0.04240000000596211,0.05359999999403797,0.06990000000596197,0.07990000000595998,0.09330000001192218,0.1065999999940388,0.11980000001192082,0.13330000001192133,0.14970000001788009,0.16270000001788176,0.17599999999999838,0.1894999999999989,0.20259999999403888,0.21600000000000108,0.22670000001788182,0.24280000001192192,0.25320000001788046,0.26630000001192045,0.28270000001788276,0.29590000000596106,0.30640000000596146,0.3228000000119202,0.3333000000119206,0.3463000000119223,0.3598000000119228,0.3730999999940394,0.38890000000596103,0.40240000000596154,0.41600000000000037,0.4295000000000009,0.44320000001788173,0.4559000000059612,0.46659999999403823,0.48259999999404,0.4930999999940404,0.5065999999940409]",,11,0,11,0,1,,,,
,,A000000000,2022-11-28_15h06.06.749,GoFitts,2022.2.4,Win32,75.17666516,,,,,,,,,,,,,,,,,,"[319.74091017491037,-142.35782507653005]","[-342.351660256832,72.76909178621575]",20,700,1,"[327,325,324,323,323,322,322,322,322,321,320,317,310,299,280,258,197,126,37,-61,-138,-196,-235,-251,-257,-259,-259,-259,-260,-261,-263,-269,-273,-280,-287,-299,-310,-319,-326,-332,-335,-337,-337,-337,-337,-337,-337,-338,-338]","[-137,-136,-135,-135,-135,-135,-135,-135,-135,-135,-135,-134,-134,-131,-125,-118,-91,-57,-12,39,74,96,108,114,115,115,115,115,115,111,106,100,95,92,89,86,84,84,83,83,83,83,83,83,83,83,83,83,81]","[0,0,0,0,0,0,0,0,0,0,0,0,0,0,0,0,0,0,0,0,0,0,0,0,0,0,0,0,0,0,0,0,0,0,0,0,0,0,0,0,0,0,0,0,0,0,0,0,0]","[0,0,0,0,0,0,0,0,0,0,0,0,0,0,0,0,0,0,0,0,0,0,0,0,0,0,0,0,0,0,0,0,0,0,0,0,0,0,0,0,0,0,0,0,0,0,0,0,0]","[0,0,0,0,0,0,0,0,0,0,0,0,0,0,0,0,0,0,0,0,0,0,0,0,0,0,0,0,0,0,0,0,0,0,0,0,0,0,0,0,0,0,0,0,0,0,0,0,0]","[0.0001999999880801795,0.015999999999998238,0.029400000005960436,0.04259999999403874,0.05319999998807745,0.06969999998807808,0.08279999998211807,0.09309999999403828,0.10909999999404008,0.12279999998211721,0.13309999999404099,0.1462999999821193,0.16229999998211753,0.17590000000596007,0.18919999998808024,0.19959999999403877,0.21600000000000108,0.22909999999404107,0.2424000000059614,0.2559000000059619,0.2690999999940402,0.28249999999999886,0.29590000000596106,0.30909999999403936,0.31950000000000145,0.3359999999999985,0.3491999999880804,0.35940000000595873,0.3727999999821172,0.38959999999404005,0.39979999998211824,0.41600000000000037,0.4291999999880787,0.442499999999999,0.45279999998211906,0.4690000000000012,0.4822999999821178,0.4957999999821183,0.5091999999880805,0.522299999982117,0.5359000000059595,0.5491999999880797,0.5595999999940382,0.5761999999880771,0.586400000005959,0.5999000000059596,0.6159000000059613,0.6267999999821185,0.6427999999821168]",,12,0,12,0,1,,,,
,,A000000000,2022-11-28_15h06.06.749,GoFitts,2022.2.4,Win32,75.17666516,,,,,,,,,,,,,,,,,,"[-342.351660256832,72.76909178621575]","[350,0]",20,700,1,"[-338,-341,-342,-343,-344,-344,-345,-345,-345,-345,-345,-345,-345,-340,-330,-312,-277,-230,-171,-93,-24,73,146,203,234,266,285,293,297,299,300,300,300,301,302,304,305,307,311,315,319,324,328,331,333,334,336,337,337,337,338,338,339,340]","[81,80,79,78,78,78,78,78,78,78,78,78,78,76,76,75,75,74,70,60,54,41,33,29,25,23,21,21,21,21,21,21,21,21,21,21,20,20,18,17,15,13,11,8,6,5,3,2,1,1,1,1,0,0]","[0,0,0,0,0,0,0,0,0,0,0,0,0,0,0,0,0,0,0,0,0,0,0,0,0,0,0,0,0,0,0,0,0,0,0,0,0,0,0,0,0,0,0,0,0,0,0,0,0,0,0,0,0,0]","[0,0,0,0,0,0,0,0,0,0,0,0,0,0,0,0,0,0,0,0,0,0,0,0,0,0,0,0,0,0,0,0,0,0,0,0,0,0,0,0,0,0,0,0,0,0,0,0,0,0,0,0,0,0]","[0,0,0,0,0,0,0,0,0,0,0,0,0,0,0,0,0,0,0,0,0,0,0,0,0,0,0,0,0,0,0,0,0,0,0,0,0,0,0,0,0,0,0,0,0,0,0,0,0,0,0,0,0,0]","[0.0002999999821184929,0.013599999994042378,0.023500000000002075,0.03679999998211869,0.053199999988081004,0.06350000000000122,0.07950000000000301,0.09029999998211835,0.10650000000000048,0.120000000000001,0.13359999999403982,0.14359999999404138,0.1567999999821197,0.17339999997615863,0.18659999999404064,0.19959999999404232,0.21309999999403928,0.22629999998212114,0.23850000000000193,0.25239999997615925,0.2635000000000005,0.2795999999940406,0.2930999999940411,0.3061999999880811,0.31659999999403965,0.33009999999404016,0.34639999997616044,0.3596999999880808,0.3700999999940393,0.3861999999880794,0.3996999999880799,0.4130999999940421,0.4232999999821203,0.43700000000000117,0.45279999998211906,0.4637999999821183,0.4797999999821201,0.4902999999821205,0.5063999999761606,0.5195999999940426,0.5330000000000013,0.5463999999761597,0.5596999999880801,0.5730999999940423,0.5863999999761589,0.5970000000000013,0.6102999999821215,0.626399999976158,0.6397999999821202,0.6503999999761589,0.6663999999761607,0.6770000000000032,0.6931999999880816,0.7035999999940401]",,13,0,13,0,1,,,,
,,A000000000,2022-11-28_15h06.06.749,GoFitts,2022.2.4,Win32,75.17666516,,,,,,,,,,,,,,,,,,"[350,0]","[-342.351660256832,-72.76909178621567]",20,700,1,"[340,341,341,342,343,343,344,345,346,347,348,349,349,349,350,350,350,350,345,330,298,257,199,126,54,-33,-102,-151,-189,-215,-240,-253,-265,-277,-289,-300,-311,-321,-329,-336,-342,-345,-346,-346,-346,-346,-346,-346,-346,-346]","[0,0,0,0,0,0,0,-1,-1,-1,-2,-2,-2,-2,-2,-2,-2,-2,-3,-5,-8,-11,-15,-22,-28,-37,-43,-49,-55,-58,-64,-67,-70,-74,-77,-80,-81,-82,-83,-83,-83,-83,-83,-83,-83,-83,-83,-83,-83,-82]","[0,0,0,0,0,0,0,0,0,0,0,0,0,0,0,0,0,0,0,0,0,0,0,0,0,0,0,0,0,0,0,0,0,0,0,0,0,0,0,0,0,0,0,0,0,0,0,0,0,0]","[0,0,0,0,0,0,0,0,0,0,0,0,0,0,0,0,0,0,0,0,0,0,0,0,0,0,0,0,0,0,0,0,0,0,0,0,0,0,0,0,0,0,0,0,0,0,0,0,0,0]","[0,0,0,0,0,0,0,0,0,0,0,0,0,0,0,0,0,0,0,0,0,0,0,0,0,0,0,0,0,0,0,0,0,0,0,0,0,0,0,0,0,0,0,0,0,0,0,0,0,0]","[0.00020000001788034183,0.015999999999998238,0.026200000017880143,0.04280000001191908,0.05330000001191948,0.06650000000000134,0.0799999999999983,0.09590000000596177,0.10959999999403891,0.12290000000595924,0.13320000001787946,0.14920000001788125,0.16270000001788176,0.17330000001192047,0.1894999999999989,0.20250000000000057,0.2134000000059615,0.22670000001788182,0.2400999999940403,0.2530000000000001,0.26640000000595876,0.27980000001192096,0.2932000000178796,0.3064999999999998,0.31959999999403976,0.3359000000059602,0.34920000001788054,0.36240000000595884,0.37580000001192104,0.38630000001192144,0.40240000000596154,0.4158000000119202,0.42909999999404036,0.44259999999404087,0.4559000000059612,0.4690000000000012,0.48249999999999815,0.49580000001192204,0.5094000000059609,0.5225000000000009,0.5359000000059595,0.5493000000119217,0.5629999999999988,0.575700000017882,0.5892000000178825,0.6024999999999991,0.6129000000059612,0.6260999999940395,0.6400000000000006,0.6559000000059605]",,14,0,14,0,1,,,,
,,A000000000,2022-11-28_15h06.06.749,GoFitts,2022.2.4,Win32,75.17666516,,,,,,,,,,,,,,,,,,,,,,1,,,,,,,,,,,,,1,0,0,1
,,A000000000,2022-11-28_15h06.06.749,GoFitts,2022.2.4,Win32,75.17666516,,,,,,,,,,,,,,,,return,0.4132,"[-163,-24]","[-158.94898511924342,-33.78564975788585]",60.5,325,2,"[-163,-139]","[-24,-15]","[0,0]","[0,0]","[0,0]","[0.0004999999999988347,0.01309999999403999]",,0,0,0,0,1,,,,
,,A000000000,2022-11-28_15h06.06.749,GoFitts,2022.2.4,Win32,75.17666516,,,,,,,,,,,,,,,,,,"[-158.94898511924342,-33.78564975788585]","[148.45113686692264,66.09470449981752]",60.5,325,2,"[-139,-116,-98,-82,-67,-56,-46,-39,-32,-27,-23,-17,-11,-5,2,8,11,15,19,23,31,41,51,65,77,89,99,117,128]","[-15,-6,2,8,13,16,20,22,24,26,27,29,31,31,32,33,34,36,39,42,46,49,52,57,60,63,64,66,67]","[0,0,0,0,0,0,0,0,0,0,0,0,0,0,0,0,0,0,0,0,0,0,0,0,0,0,0,0,0]","[0,0,0,0,0,0,0,0,0,0,0,0,0,0,0,0,0,0,0,0,0,0,0,0,0,0,0,0,0]","[0,0,0,0,0,0,0,0,0,0,0,0,0,0,0,0,0,0,0,0,0,0,0,0,0,0,0,0,0]","[0.00020000001788034183,0.01309999999403999,0.02670000001788253,0.03999999999999915,0.05420000001788239,0.06680000001191999,0.07980000001192167,0.0902000000178802,0.10640000000595862,0.1197000000178825,0.1303000000119212,0.14659999999403794,0.15990000000596183,0.17320000001788216,0.18640000000596046,0.1998000000119191,0.2102000000178812,0.2265999999940398,0.2398000000119218,0.25020000001788034,0.26670000001788097,0.27990000000595927,0.2902000000178795,0.3063000000119196,0.3199000000059584,0.3330999999940403,0.3435999999940407,0.35970000001788094,0.3730999999940394]",,1,0,1,0,1,,,,
,,A000000000,2022-11-28_15h06.06.749,GoFitts,2022.2.4,Win32,75.17666516,,,,,,,,,,,,,,,,,,"[148.45113686692264,66.09470449981752]","[-131.46526158592897,-95.51510349752687]",60.5,325,2,"[128,138,144,147,150,151,151,151,151,151,151,145,129,103,70,39,-18,-56,-89,-114,-129]","[67,68,68,68,68,68,68,68,68,68,68,64,56,42,24,9,-21,-40,-56,-68,-76]","[0,0,0,0,0,0,0,0,0,0,0,0,0,0,0,0,0,0,0,0,0]","[0,0,0,0,0,0,0,0,0,0,0,0,0,0,0,0,0,0,0,0,0]","[0,0,0,0,0,0,0,0,0,0,0,0,0,0,0,0,0,0,0,0,0]","[0.00020000001788034183,0.012999999999998124,0.026200000017880143,0.03680000001192241,0.050099999994039024,0.06330000001192104,0.0797000000178798,0.09009999999403817,0.10350000000000037,0.1168000000119207,0.1303000000119212,0.14640000000596132,0.15970000001788165,0.17290000000595995,0.18620000001788028,0.19690000000596086,0.21309999999403928,0.2263000000119213,0.2398000000119218,0.2530999999940384,0.26640000000595876]",,2,0,2,0,1,,,,
,,A000000000,2022-11-28_15h06.06.749,GoFitts,2022.2.4,Win32,75.17666516,,,,,,,,,,,,,,,,,,"[-131.46526158592897,-95.51510349752687]","[108.73372353331446,120.76103414007656]",60.5,325,2,"[-129,-137,-140,-141,-141,-142,-143,-144,-145,-145,-145,-146,-146,-146,-146,-146,-145,-137,-119,-95,-72,-43,-22,6,21,31,38,42,46,49,51,54,58,63,68,71,74,75,77,79,82,86]","[-76,-82,-85,-85,-87,-88,-90,-92,-94,-95,-96,-96,-96,-96,-96,-96,-91,-78,-51,-22,9,35,49,69,77,84,88,91,93,94,95,96,98,99,100,102,103,103,103,104,105,107]","[0,0,0,0,0,0,0,0,0,0,0,0,0,0,0,0,0,0,0,0,0,0,0,0,0,0,0,0,0,0,0,0,0,0,0,0,0,0,0,0,0,0]","[0,0,0,0,0,0,0,0,0,0,0,0,0,0,0,0,0,0,0,0,0,0,0,0,0,0,0,0,0,0,0,0,0,0,0,0,0,0,0,0,0,0]","[0,0,0,0,0,0,0,0,0,0,0,0,0,0,0,0,0,0,0,0,0,0,0,0,0,0,0,0,0,0,0,0,0,0,0,0,0,0,0,0,0,0]","[0.00020000001788034183,0.013300000011920332,0.026300000011918456,0.03980000001191897,0.053200000017881166,0.06370000001788156,0.07670000001787969,0.09340000000596049,0.10350000000000037,0.11980000001192082,0.13340000000595964,0.14380000001192172,0.15990000000595828,0.1732000000178786,0.183700000017879,0.19999999999999574,0.21040000000596137,0.22370000001787815,0.23990000000596012,0.2535000000000025,0.2665000000000006,0.27990000000595927,0.29020000001788304,0.30659999999404164,0.31959999999403976,0.3332000000178823,0.3465999999940408,0.35970000001788094,0.3730999999940394,0.38649999999999807,0.3999999999999986,0.41309999999403857,0.4265999999940391,0.43990000000596297,0.45320000001787974,0.46659999999403823,0.476900000005962,0.4932000000178789,0.5067000000178794,0.5203000000119253,0.5330999999940396,0.5465999999940401]",,3,0,3,0,1,,,,
,,A000000000,2022-11-28_15h06.06.749,GoFitts,2022.2.4,Win32,75.17666516,,,,,,,,,,,,,,,,,,"[108.73372353331446,120.76103414007656]","[-81.25000000000007,-140.72912811497125]",60.5,325,2,"[86,90,92,96,100,102,102,102,102,102,100,97,89,76,64,38,16,0,-23,-40,-55,-62,-64,-66,-67,-69,-70,-71,-73,-73,-73,-74,-74,-74,-74,-75,-75]","[107,108,109,111,112,112,112,112,112,111,106,99,85,70,57,33,12,-4,-24,-38,-51,-60,-65,-68,-73,-77,-81,-85,-89,-92,-96,-99,-101,-103,-106,-109,-112]","[0,0,0,0,0,0,0,0,0,0,0,0,0,0,0,0,0,0,0,0,0,0,0,0,0,0,0,0,0,0,0,0,0,0,0,0,0]","[0,0,0,0,0,0,0,0,0,0,0,0,0,0,0,0,0,0,0,0,0,0,0,0,0,0,0,0,0,0,0,0,0,0,0,0,0]","[0,0,0,0,0,0,0,0,0,0,0,0,0,0,0,0,0,0,0,0,0,0,0,0,0,0,0,0,0,0,0,0,0,0,0,0,0]","[0.00019999998807662678,0.012799999982121335,0.023299999982121733,0.03990000000595728,0.05290000000596251,0.06679999998211628,0.07699999999999818,0.09299999999999642,0.10319999998807816,0.11699999999999733,0.13029999998212105,0.14350000000000307,0.15959999999403607,0.17309999999403658,0.18329999998211832,0.19969999998807708,0.21309999999403573,0.2234000000059595,0.23679999998211798,0.2501999999880766,0.2667999999821191,0.28069999998808015,0.29299999999999926,0.3034000000059578,0.3200000000000003,0.3330999999940403,0.346299999982115,0.35979999998211554,0.3731999999880813,0.3864000000059633,0.3967999999821217,0.41309999999403857,0.42340000000596234,0.43690000000596285,0.45019999998807947,0.4635999999940381,0.47959999999403635]",,4,0,4,0,1,,,,
,,A000000000,2022-11-28_15h06.06.749,GoFitts,2022.2.4,Win32,75.17666516,,,,,,,,,,,,,,,,,,"[-81.25000000000007,-140.72912811497125]","[50.215261585928964,154.54668389796245]",60.5,325,2,"[-75,-75,-75,-76,-76,-76,-76,-76,-76,-76,-76,-76,-76,-74,-65,-54,-41,-27,-16,-4,8,15,21,27]","[-112,-114,-116,-117,-117,-117,-117,-117,-117,-117,-117,-117,-117,-106,-84,-50,-13,31,62,89,115,131,142,150]","[0,0,0,0,0,0,0,0,0,0,0,0,0,0,0,0,0,0,0,0,0,0,0,0]","[0,0,0,0,0,0,0,0,0,0,0,0,0,0,0,0,0,0,0,0,0,0,0,0]","[0,0,0,0,0,0,0,0,0,0,0,0,0,0,0,0,0,0,0,0,0,0,0,0]","[0.00020000001787678912,0.013400000005958645,0.02360000002384055,0.03710000002384106,0.05330000001191593,0.06380000001191632,0.07699999999999818,0.09320000001788031,0.10660000002383896,0.11749999999999972,0.13060000002383987,0.14399999999999835,0.15699999999999648,0.17310000002383674,0.18680000001192099,0.19999999999999574,0.2124000000059567,0.22620000001788299,0.23690000000596,0.2502000000178768,0.2667000000178774,0.27970000001788264,0.2933000000119179,0.3066000000238418]",,5,0,5,0,1,,,,
,,A000000000,2022-11-28_15h06.06.749,GoFitts,2022.2.4,Win32,75.17666516,,,,,,,,,,,,,,,,,,"[50.215261585928964,154.54668389796245]","[-16.985875280993813,-161.6098079973444]",60.5,325,2,"[27,30,33,34,37,37,39,40,41,41,41,41,41,41,41,32,21,7,-7,-19,-28,-33,-36,-36,-36,-35]","[150,156,160,162,164,165,166,168,168,169,169,169,169,160,149,118,80,39,-3,-36,-66,-92,-111,-123,-132,-139]","[0,0,0,0,0,0,0,0,0,0,0,0,0,0,0,0,0,0,0,0,0,0,0,0,0,0]","[0,0,0,0,0,0,0,0,0,0,0,0,0,0,0,0,0,0,0,0,0,0,0,0,0,0]","[0,0,0,0,0,0,0,0,0,0,0,0,0,0,0,0,0,0,0,0,0,0,0,0,0,0]","[0.00019999998807662678,0.01309999999403999,0.025500000000000966,0.03659999999403851,0.050099999994039024,0.06669999998808152,0.0799999999999983,0.09319999998808015,0.10330000001192019,0.11699999999999733,0.13049999999999784,0.14650000000000318,0.1571999999880802,0.1728000000119181,0.18350000000000222,0.2000999999940376,0.2131999999880776,0.22650000000000148,0.23980000001191826,0.253099999994042,0.26619999998808197,0.2798000000119245,0.293199999988083,0.3064999999999998,0.31980000001192366,0.3335000000000008]",,6,0,6,0,1,,,,
,,A000000000,2022-11-28_15h06.06.749,GoFitts,2022.2.4,Win32,75.17666516,,,,,,,,,,,,,,,,,,"[-16.985875280993813,-161.6098079973444]","[-16.985875280993668,161.60980799734443]",60.5,325,2,"[-35,-34,-32,-31,-30,-29,-28,-27,-25,-25,-25,-24,-24,-24,-24,-23,-17,-16,-14,-12,-13,-18,-22,-25,-26,-26,-26,-26]","[-139,-143,-148,-151,-155,-156,-159,-162,-163,-164,-165,-165,-165,-165,-165,-164,-156,-145,-115,-81,-32,15,49,92,113,124,131,136]","[0,0,0,0,0,0,0,0,0,0,0,0,0,0,0,0,0,0,0,0,0,0,0,0,0,0,0,0]","[0,0,0,0,0,0,0,0,0,0,0,0,0,0,0,0,0,0,0,0,0,0,0,0,0,0,0,0]","[0,0,0,0,0,0,0,0,0,0,0,0,0,0,0,0,0,0,0,0,0,0,0,0,0,0,0,0]","[0.0003000000119186552,0.012900000005956258,0.02599999999999625,0.03949999999999676,0.05270000001787878,0.06299999999999528,0.07640000000596103,0.09290000000595455,0.10620000001787844,0.11659999999403681,0.13299999999999557,0.1460000000000008,0.1594999999999942,0.16990000000595984,0.18640000000596046,0.1965999999940351,0.21280000001191723,0.22299999999999898,0.23959999999403436,0.2530000000000001,0.2663000000119169,0.27920000001788026,0.2899000000059573,0.3062000000178813,0.31959999999403976,0.33290000000595654,0.3429999999999964,0.35640000000595506]",,7,0,7,0,1,,,,
,,A000000000,2022-11-28_15h06.06.749,GoFitts,2022.2.4,Win32,75.17666516,,,,,,,,,,,,,,,,,,"[-16.985875280993668,161.60980799734443]","[50.21526158592892,-154.54668389796245]",60.5,325,2,"[-26,-26,-26,-26,-26,-26,-26,-26,-26,-26,-26,-26,-23,-19,-12,-7,0,7,13,19,23,28]","[136,140,141,141,141,141,141,141,141,141,141,136,124,105,77,42,0,-43,-83,-111,-127,-144]","[0,0,0,0,0,0,0,0,0,0,0,0,0,0,0,0,0,0,0,0,0,0]","[0,0,0,0,0,0,0,0,0,0,0,0,0,0,0,0,0,0,0,0,0,0]","[0,0,0,0,0,0,0,0,0,0,0,0,0,0,0,0,0,0,0,0,0,0]","[0.0003000000119186552,0.01670000001788452,0.029700000017882644,0.03990000000596439,0.056400000005957907,0.07000000000000028,0.08309999999404027,0.09330000001192218,0.1098000000119228,0.1229000000059628,0.13309999999403743,0.14970000001788009,0.1632000000178806,0.1763000000119206,0.18970000001787923,0.20280000001191922,0.2164000000059616,0.2297000000178855,0.24290000000596024,0.2563000000119189,0.2665000000000006,0.280099999994043]",,8,0,8,0,1,,,,
,,A000000000,2022-11-28_15h06.06.749,GoFitts,2022.2.4,Win32,75.17666516,,,,,,,,,,,,,,,,,,"[50.21526158592892,-154.54668389796245]","[-81.24999999999996,140.7291281149713]",60.5,325,2,"[28,32,35,37,38,39,39,39,39,39,39,39,40,40,40,39,35,28,15,-10,-29,-53,-68,-74]","[-144,-158,-165,-169,-171,-174,-174,-174,-174,-174,-174,-174,-174,-172,-170,-163,-151,-137,-105,-46,-4,50,90,112]","[0,0,0,0,0,0,0,0,0,0,0,0,0,0,0,0,0,0,0,0,0,0,0,0]","[0,0,0,0,0,0,0,0,0,0,0,0,0,0,0,0,0,0,0,0,0,0,0,0]","[0,0,0,0,0,0,0,0,0,0,0,0,0,0,0,0,0,0,0,0,0,0,0,0]","[0.0000999999940418661,0.015999999999998238,0.029599999994040616,0.04259999999403874,0.05309999999403914,0.0697999999821235,0.08259999999403789,0.09309999999403828,0.10929999998212026,0.11990000000596268,0.1361999999880794,0.1497999999821218,0.1600000000000037,0.17629999998212043,0.18650000000000233,0.20279999998211906,0.2161999999880777,0.22650000000000148,0.23990000000596012,0.2560999999940421,0.26629999998212384,0.27979999998211724,0.29609999999404124,0.3094000000059651]",,9,0,9,0,1,,,,
,,A000000000,2022-11-28_15h06.06.749,GoFitts,2022.2.4,Win32,75.17666516,,,,,,,,,,,,,,,,,,"[-81.24999999999996,140.7291281149713]","[108.7337235333145,-120.76103414007653]",60.5,325,2,"[-74,-79,-81,-82,-82,-82,-82,-82,-82,-82,-82,-82,-82,-82,-80,-73,-55,-30,-1,24,48,68,83,90,96,99,101,102,102]","[112,128,141,151,157,159,160,160,160,160,160,160,160,160,152,138,113,83,48,17,-9,-30,-47,-59,-70,-77,-83,-88,-94]","[0,0,0,0,0,0,0,0,0,0,0,0,0,0,0,0,0,0,0,0,0,0,0,0,0,0,0,0,0]","[0,0,0,0,0,0,0,0,0,0,0,0,0,0,0,0,0,0,0,0,0,0,0,0,0,0,0,0,0]","[0,0,0,0,0,0,0,0,0,0,0,0,0,0,0,0,0,0,0,0,0,0,0,0,0,0,0,0,0]","[0.0000999999940418661,0.012999999999998124,0.026599999994040502,0.03980000001192252,0.05309999999403914,0.06640000000596302,0.07990000000595643,0.09319999998808015,0.10340000000596206,0.11690000000596257,0.1303000000119212,0.14380000001192172,0.15690000000596172,0.17059999999403885,0.1865999999940371,0.1998000000119191,0.2131999999880776,0.2264000000059596,0.23990000000596012,0.25319999998807674,0.26669999998807725,0.2796999999880754,0.2933000000119179,0.3064000000059579,0.31980000001192366,0.33330000001191706,0.34709999999403607,0.3600999999940413,0.3731999999880813]",,10,0,10,0,1,,,,
,,A000000000,2022-11-28_15h06.06.749,GoFitts,2022.2.4,Win32,75.17666516,,,,,,,,,,,,,,,,,,"[108.7337235333145,-120.76103414007653]","[-131.46526158592894,95.51510349752691]",60.5,325,2,"[102,102,102,102,102,102,102,102,102,102,102,102,102,102,100,94,80,65,40,17,-2,-21,-29,-33,-37,-39,-42,-44,-46,-49,-53,-61,-69,-77,-89,-104]","[-94,-101,-107,-112,-114,-116,-118,-119,-121,-121,-122,-122,-122,-122,-120,-111,-90,-72,-45,-21,-5,13,22,28,34,39,42,44,46,48,51,57,62,67,76,85]","[0,0,0,0,0,0,0,0,0,0,0,0,0,0,0,0,0,0,0,0,0,0,0,0,0,0,0,0,0,0,0,0,0,0,0,0]","[0,0,0,0,0,0,0,0,0,0,0,0,0,0,0,0,0,0,0,0,0,0,0,0,0,0,0,0,0,0,0,0,0,0,0,0]","[0,0,0,0,0,0,0,0,0,0,0,0,0,0,0,0,0,0,0,0,0,0,0,0,0,0,0,0,0,0,0,0,0,0,0,0]","[0.0002999999821184929,0.013299999982123722,0.026400000005963875,0.04340000000595978,0.05300000000000438,0.06329999998212088,0.07679999998212139,0.09019999998808004,0.10350000000000392,0.11979999998212065,0.13029999998212105,0.1434000000059612,0.1571999999880802,0.17009999999404357,0.18340000000596035,0.19690000000596086,0.21479999998211952,0.22629999998211758,0.23959999999404147,0.2530000000000001,0.26340000000596575,0.2796999999880825,0.2930999999940411,0.30309999999403914,0.3167999999821234,0.3300000000000054,0.3464999999999989,0.35990000000596467,0.3734000000059652,0.3834000000059632,0.39659999999403794,0.41319999998808044,0.4262999999821204,0.43669999998807896,0.45000000000000284,0.4664000000059616]",,11,0,11,0,1,,,,
,,A000000000,2022-11-28_15h06.06.749,GoFitts,2022.2.4,Win32,75.17666516,,,,,,,,,,,,,,,,,,"[-131.46526158592894,95.51510349752691]","[148.45113686692267,-66.09470449981752]",60.5,325,2,"[-104,-115,-123,-126,-128,-128,-128,-128,-128,-128,-124,-111,-72,-30,17,55,104,136]","[85,92,95,97,98,98,98,98,98,98,94,84,59,34,4,-17,-48,-69]","[0,0,0,0,0,0,0,0,0,0,0,0,0,0,0,0,0,0]","[0,0,0,0,0,0,0,0,0,0,0,0,0,0,0,0,0,0]","[0,0,0,0,0,0,0,0,0,0,0,0,0,0,0,0,0,0]","[0.00019999998807662678,0.01309999999403999,0.026599999994040502,0.03900000000000148,0.052499999999994884,0.06359999999403954,0.07719999998807481,0.09049999999999869,0.10369999998808055,0.12029999998211593,0.13009999999403732,0.1434000000059612,0.15990000000596183,0.17300000000000182,0.1865999999940371,0.19690000000596086,0.21309999999403573,0.2266999999880781]",,12,0,12,0,1,,,,
,,A000000000,2022-11-28_15h06.06.749,GoFitts,2022.2.4,Win32,75.17666516,,,,,,,,,,,,,,,,,,"[148.45113686692267,-66.09470449981752]","[-158.94898511924342,33.78564975788589]",60.5,325,2,"[136,161,176,183,185,185,185,185,185,185,185,185,185,183,178,168,152,129,98,71,27,-10,-45,-82,-102,-117,-124,-130]","[-69,-86,-96,-102,-104,-104,-104,-104,-104,-104,-104,-104,-104,-103,-99,-93,-85,-74,-59,-46,-28,-14,-2,12,19,25,28,31]","[0,0,0,0,0,0,0,0,0,0,0,0,0,0,0,0,0,0,0,0,0,0,0,0,0,0,0,0]","[0,0,0,0,0,0,0,0,0,0,0,0,0,0,0,0,0,0,0,0,0,0,0,0,0,0,0,0]","[0,0,0,0,0,0,0,0,0,0,0,0,0,0,0,0,0,0,0,0,0,0,0,0,0,0,0,0]","[0.00020000001787678912,0.013100000023840153,0.026200000017880143,0.039700000017880654,0.0531000000238393,0.06649999999999778,0.07680000001191445,0.0899999999999963,0.10330000001192019,0.11690000000595546,0.13299999999999557,0.14670000001787997,0.15680000001191985,0.1699999999999946,0.18330000001191848,0.19990000000596098,0.21299999999999386,0.2264000000059596,0.23980000001191826,0.25010000002384203,0.26340000000595865,0.2768000000119173,0.2901000000238412,0.3061000000238394,0.31980000001191655,0.33310000002384044,0.3433000000119151,0.3567000000178808]",,13,0,13,0,1,,,,
,,A000000000,2022-11-28_15h06.06.749,GoFitts,2022.2.4,Win32,75.17666516,,,,,,,,,,,,,,,,,,"[-158.94898511924342,33.78564975788589]","[162.5,0]",60.5,325,2,"[-130,-134,-136,-140,-145,-151,-156,-164,-167,-167,-167,-167,-167,-166,-161,-141,-111,-63,-11,41,89,116,142]","[31,33,34,36,36,37,37,37,37,37,37,37,37,37,37,37,37,36,33,31,29,26,20]","[0,0,0,0,0,0,0,0,0,0,0,0,0,0,0,0,0,0,0,0,0,0,0]","[0,0,0,0,0,0,0,0,0,0,0,0,0,0,0,0,0,0,0,0,0,0,0]","[0,0,0,0,0,0,0,0,0,0,0,0,0,0,0,0,0,0,0,0,0,0,0]","[0.00010000002384202844,0.016200000017882132,0.02630000001192201,0.04280000001191553,0.05630000001191604,0.06960000002383993,0.07949999999999591,0.09540000000595938,0.10940000000595518,0.12290000000595569,0.13630000001192144,0.14640000000596132,0.1629999999999967,0.17599999999999483,0.18640000000596046,0.20280000001191922,0.21620000001787787,0.22940000000595973,0.2427000000178765,0.25610000002384226,0.2694000000059589,0.27990000000595927,0.29620000001787616]",,14,0,14,0,1,,,,
,,A000000000,2022-11-28_15h06.06.749,GoFitts,2022.2.4,Win32,75.17666516,,,,,,,,,,,,,,,,,,,,,,2,,,,,,,,,,,,,2,0,0,1
,,A000000000,2022-11-28_15h06.06.749,GoFitts,2022.2.4,Win32,75.17666516,,,,,,,,,,,,,,,,return,0.3998,"[-132,-18]","[96.56781074217108,297.2051613422355]",25.5,625,3,"[-132,-132,-132,-132,-132,-132,-132,-132,-132,-132,-132,-132,-131,-128,-122,-112,-103,-97,-90,-83,-78,-72,-64,-47,-34,-18,0,20,36,54,66,73,77,81,82,82,83,83,83,83,83,83,84,84,85,87,88,90]","[-18,-18,-18,-18,-18,-18,-18,-18,-18,-18,-18,-18,-18,-18,-17,-14,-12,-11,-8,-4,1,3,11,29,49,77,108,142,164,195,213,224,232,238,242,245,249,254,257,262,266,270,274,275,278,281,285,287]","[0,0,0,0,0,0,0,0,0,0,0,0,0,0,0,0,0,0,0,0,0,0,0,0,0,0,0,0,0,0,0,0,0,0,0,0,0,0,0,0,0,0,0,0,0,0,0,0]","[0,0,0,0,0,0,0,0,0,0,0,0,0,0,0,0,0,0,0,0,0,0,0,0,0,0,0,0,0,0,0,0,0,0,0,0,0,0,0,0,0,0,0,0,0,0,0,0]","[0,0,0,0,0,0,0,0,0,0,0,0,0,0,0,0,0,0,0,0,0,0,0,0,0,0,0,0,0,0,0,0,0,0,0,0,0,0,0,0,0,0,0,0,0,0,0,0]","[0.0002999999821184929,0.013299999982116617,0.02369999998807515,0.03719999998807566,0.050499999999999545,0.06359999999403954,0.08039999997615865,0.09039999997615666,0.10629999998212014,0.12049999999999983,0.13339999997615593,0.14689999997615644,0.1599999999999966,0.17039999997615496,0.18669999998807896,0.19979999998211895,0.21300000000000097,0.22329999998211747,0.23689999997615985,0.2535000000000025,0.2665000000000006,0.2765999999940405,0.2901999999880758,0.3075999999940393,0.31959999999403976,0.3332999999821169,0.3464999999999989,0.3596999999880808,0.3700999999940393,0.38609999999403755,0.3997999999821147,0.41309999999403857,0.4264999999999972,0.4395999999940372,0.45299999999999585,0.46539999997615666,0.47939999997615956,0.4928999999761601,0.5033999999761605,0.5166999999880773,0.5300999999940359,0.5435999999940364,0.5593999999761579,0.5700999999940422,0.5835000000000008,0.5997999999821175,0.6129999999999995,0.6265999999940419]",,0,0,0,0,1,,,,
,,A000000000,2022-11-28_15h06.06.749,GoFitts,2022.2.4,Win32,75.17666516,,,,,,,,,,,,,,,,,,"[96.56781074217108,297.2051613422355]","[-32.66514477114195,-310.7880923025854]",25.5,625,3,"[90,92,92,92,92,92,92,92,92,92,92,92,92,90,83,75,66,54,40,28,19,13,8,5,2,-1,-4,-8,-11,-14,-18,-20,-22,-24,-26,-28,-30,-33,-34,-36,-37,-38,-38,-38,-39,-39,-39,-39,-39,-38,-38,-38,-38,-39]","[287,289,290,290,290,290,290,290,290,290,290,290,286,277,259,232,197,155,105,49,-4,-50,-92,-122,-150,-169,-181,-190,-197,-202,-208,-211,-215,-220,-225,-228,-233,-237,-242,-251,-258,-264,-269,-275,-281,-286,-289,-292,-293,-295,-296,-298,-299,-301]","[0,0,0,0,0,0,0,0,0,0,0,0,0,0,0,0,0,0,0,0,0,0,0,0,0,0,0,0,0,0,0,0,0,0,0,0,0,0,0,0,0,0,0,0,0,0,0,0,0,0,0,0,0,0]","[0,0,0,0,0,0,0,0,0,0,0,0,0,0,0,0,0,0,0,0,0,0,0,0,0,0,0,0,0,0,0,0,0,0,0,0,0,0,0,0,0,0,0,0,0,0,0,0,0,0,0,0,0,0]","[0,0,0,0,0,0,0,0,0,0,0,0,0,0,0,0,0,0,0,0,0,0,0,0,0,0,0,0,0,0,0,0,0,0,0,0,0,0,0,0,0,0,0,0,0,0,0,0,0,0,0,0,0,0]","[0.0003000000119186552,0.012999999999998124,0.02640000000595677,0.039599999994038626,0.053200000017881166,0.06330000001192104,0.07680000001192155,0.09009999999403817,0.10330000001192019,0.11720000001788122,0.1305999999940397,0.14390000000595649,0.15690000000596172,0.1700000000000017,0.1863000000119186,0.19959999999403522,0.21309999999403573,0.22630000001191775,0.2397000000178835,0.253099999994042,0.26620000001788213,0.27949999999999875,0.29299999999999926,0.30630000001192315,0.3194999999999979,0.3328000000119218,0.3460999999940384,0.35949999999999704,0.3729000000059628,0.38649999999999807,0.3997000000178801,0.41009999999403846,0.42340000000596234,0.43650000000000233,0.4529000000059611,0.4633000000119196,0.47980000001192025,0.49309999999403686,0.5033000000119188,0.5198000000119194,0.5328000000119175,0.5462000000178833,0.5565999999940416,0.5699000000059584,0.5865000000000009,0.5998000000119177,0.6132000000178834,0.6264000000059582,0.6368000000119167,0.6530999999940406,0.6634000000059572,0.6769000000059577,0.6933000000119236,0.7034999999999982]",,1,0,1,0,1,,,,
,,A000000000,2022-11-28_15h06.06.749,GoFitts,2022.2.4,Win32,75.17666516,,,,,,,,,,,,,,,,,,"[-32.66514477114195,-310.7880923025854]","[-32.66514477114167,310.7880923025854]",25.5,625,3,"[-39,-40,-41,-41,-41,-41,-41,-41,-41,-41,-41,-42,-42,-43,-44,-45,-46,-48,-50,-53,-56,-56,-53,-51,-49,-47,-45,-45,-44,-44,-44,-43,-41,-40,-39,-37,-37,-35,-33,-31,-29,-29]","[-301,-304,-305,-305,-306,-306,-306,-306,-306,-306,-306,-304,-300,-294,-281,-260,-222,-144,-68,14,78,150,192,224,244,256,263,266,267,267,268,270,271,274,276,278,279,283,287,292,297,302]","[0,0,0,0,0,0,0,0,0,0,0,0,0,0,0,0,0,0,0,0,0,0,0,0,0,0,0,0,0,0,0,0,0,0,0,0,0,0,0,0,0,0]","[0,0,0,0,0,0,0,0,0,0,0,0,0,0,0,0,0,0,0,0,0,0,0,0,0,0,0,0,0,0,0,0,0,0,0,0,0,0,0,0,0,0]","[0,0,0,0,0,0,0,0,0,0,0,0,0,0,0,0,0,0,0,0,0,0,0,0,0,0,0,0,0,0,0,0,0,0,0,0,0,0,0,0,0,0]","[0.00019999998807662678,0.016399999976158597,0.02939999997615672,0.042699999988080606,0.05339999997615763,0.06679999998211628,0.07989999997615627,0.09559999999403601,0.10669999998808066,0.11989999997615541,0.13339999997615593,0.1494999999999962,0.16279999998211991,0.1728999999761598,0.18629999998211844,0.19959999999403522,0.21289999997615894,0.22939999997615956,0.2427999999821182,0.2560000000000002,0.26629999998211673,0.28259999999404073,0.2959999999999994,0.30939999997615786,0.32269999998807464,0.3359999999999985,0.34929999998211514,0.3595999999940389,0.37299999999999756,0.38659999999403993,0.402000000000001,0.4132999999821152,0.4262999999821204,0.43949999999999534,0.45589999997615394,0.46959999999403834,0.48289999997615496,0.4962999999821136,0.5090999999940351,0.5225000000000009,0.5330000000000013,0.5462999999821179]",,2,0,2,0,1,,,,
,,A000000000,2022-11-28_15h06.06.749,GoFitts,2022.2.4,Win32,75.17666516,,,,,,,,,,,,,,,,,,"[-32.66514477114167,310.7880923025854]","[96.567810742171,-297.2051613422355]",25.5,625,3,"[-29,-28,-28,-28,-28,-28,-28,-28,-28,-30,-28,-23,-11,15,38,80,112,139,156,173,182,186,189,189,189,188,187,187,185,183,181,179,177,175,171,165,156,146,135,127,117,112,106]","[302,306,307,308,308,309,309,308,307,298,282,253,218,143,89,-5,-78,-142,-186,-232,-263,-281,-301,-309,-316,-320,-321,-324,-326,-328,-331,-331,-332,-332,-332,-329,-323,-318,-312,-308,-304,-302,-300]","[0,0,0,0,0,0,0,0,0,0,0,0,0,0,0,0,0,0,0,0,0,0,0,0,0,0,0,0,0,0,0,0,0,0,0,0,0,0,0,0,0,0,0]","[0,0,0,0,0,0,0,0,0,0,0,0,0,0,0,0,0,0,0,0,0,0,0,0,0,0,0,0,0,0,0,0,0,0,0,0,0,0,0,0,0,0,0]","[0,0,0,0,0,0,0,0,0,0,0,0,0,0,0,0,0,0,0,0,0,0,0,0,0,0,0,0,0,0,0,0,0,0,0,0,0,0,0,0,0,0,0]","[0.00019999998807662678,0.016199999988074865,0.026499999999998636,0.04009999999403391,0.05629999998211588,0.06989999997615826,0.08299999999999841,0.09619999998807316,0.10699999999999932,0.12249999999999517,0.13629999998211417,0.1492999999821123,0.15959999999403607,0.17599999999999483,0.18649999999999523,0.20249999999999346,0.21599999999999397,0.2292999999821177,0.2397999999821181,0.2553999999761558,0.26899999999999835,0.2796999999880754,0.29609999999403414,0.3062999999821159,0.3194999999999979,0.33569999998807276,0.3465999999940337,0.3598999999761574,0.3728999999761555,0.3892999999821143,0.4029999999999987,0.41309999999403857,0.42669999998807384,0.4399999999999977,0.4533999999761562,0.46959999999403834,0.4827999999821131,0.496099999994037,0.5093999999761536,0.5197999999821121,0.5360999999940361,0.5463999999761526,0.5598999999761531]",,3,0,3,0,1,,,,
,,A000000000,2022-11-28_15h06.06.749,GoFitts,2022.2.4,Win32,75.17666516,,,,,,,,,,,,,,,,,,"[96.567810742171,-297.2051613422355]","[-156.24999999999994,270.6329386826371]",25.5,625,3,"[106,102,101,100,98,98,97,97,97,96,96,94,91,90,83,77,64,48,1,-21,-40,-57,-77,-90,-99,-104,-110,-115,-119,-121,-123,-124,-126,-128,-131,-132,-135,-138,-140,-142,-143,-145]","[-300,-299,-298,-298,-298,-298,-298,-298,-298,-298,-298,-296,-292,-286,-269,-254,-222,-181,-79,-18,25,62,102,128,148,160,175,185,193,199,203,208,214,219,227,232,242,251,256,260,263,265]","[0,0,0,0,0,0,0,0,0,0,0,0,0,0,0,0,0,0,0,0,0,0,0,0,0,0,0,0,0,0,0,0,0,0,0,0,0,0,0,0,0,0]","[0,0,0,0,0,0,0,0,0,0,0,0,0,0,0,0,0,0,0,0,0,0,0,0,0,0,0,0,0,0,0,0,0,0,0,0,0,0,0,0,0,0]","[0,0,0,0,0,0,0,0,0,0,0,0,0,0,0,0,0,0,0,0,0,0,0,0,0,0,0,0,0,0,0,0,0,0,0,0,0,0,0,0,0,0]","[0.0000999999940418661,0.016199999988074865,0.02640000000595677,0.04309999999404113,0.05619999998808112,0.06969999998808163,0.08009999999404016,0.09619999998808026,0.10679999998211542,0.11990000000596268,0.13329999998212116,0.14640000000596132,0.16279999998211991,0.17300000000000182,0.18940000000596058,0.19950000000000045,0.21519999998808004,0.22859999999403868,0.25529999998212105,0.26929999998211684,0.27949999999999875,0.29299999999999926,0.309299999982116,0.3225999999940399,0.3360999999940404,0.346299999982115,0.3596999999880808,0.3730999999940394,0.38959999999404005,0.40259999999403817,0.41290000000596194,0.4262999999821204,0.44250000000000256,0.45299999999999585,0.4694000000059617,0.4796999999880782,0.4957999999821183,0.5094999999999956,0.5225999999940356,0.5360000000000014,0.54940000000596,0.5625999999940419]",,4,0,4,0,1,,,,
,,A000000000,2022-11-28_15h06.06.749,GoFitts,2022.2.4,Win32,75.17666516,,,,,,,,,,,,,,,,,,"[-156.24999999999994,270.6329386826371]","[209.10331448714328,-232.23275796168562]",25.5,625,3,"[-145,-146,-147,-149,-150,-152,-154,-154,-156,-157,-157,-157,-157,-157,-155,-143,-126,-96,-57,-12,30,67,102,134,152,162,170,172,172,172,172,172,172,172,175,177,179,183,187,189,192,193,195,197]","[265,267,268,269,271,272,273,273,273,273,273,274,274,273,265,243,212,165,109,47,-16,-65,-112,-156,-179,-191,-200,-201,-201,-201,-202,-202,-202,-203,-204,-208,-211,-217,-220,-224,-228,-229,-231,-233]","[0,0,0,0,0,0,0,0,0,0,0,0,0,0,0,0,0,0,0,0,0,0,0,0,0,0,0,0,0,0,0,0,0,0,0,0,0,0,0,0,0,0,0,0]","[0,0,0,0,0,0,0,0,0,0,0,0,0,0,0,0,0,0,0,0,0,0,0,0,0,0,0,0,0,0,0,0,0,0,0,0,0,0,0,0,0,0,0,0]","[0,0,0,0,0,0,0,0,0,0,0,0,0,0,0,0,0,0,0,0,0,0,0,0,0,0,0,0,0,0,0,0,0,0,0,0,0,0,0,0,0,0,0,0]","[0.00020000001788389454,0.013500000000000512,0.026400000005963875,0.036999999999999034,0.0534000000059649,0.06370000001788156,0.07980000001192167,0.09040000000596393,0.10370000001788071,0.1203000000119232,0.1334000000059632,0.14399999999999835,0.15720000001788037,0.1705000000000041,0.18359999999404408,0.2003000000119215,0.21359999999403811,0.22659999999404334,0.23990000000596012,0.2533000000119259,0.2665000000000006,0.27690000000595916,0.2903000000119249,0.30680000001192553,0.3199000000059655,0.33030000001192406,0.3465999999940408,0.3600999999940413,0.3734000000059652,0.3835999999940398,0.40009999999404045,0.41030000001192235,0.423700000017881,0.4372000000178815,0.4533000000119216,0.4668000000119221,0.48030000001192263,0.493900000005965,0.5067000000178865,0.5200999999940379,0.5332000000178851,0.5435999999940435,0.5568000000119255,0.5734000000059609]",,5,0,5,0,1,,,,
,,A000000000,2022-11-28_15h06.06.749,GoFitts,2022.2.4,Win32,75.17666516,,,,,,,,,,,,,,,,,,"[209.10331448714328,-232.23275796168562]","[-252.81781074217105,183.6828913413979]",25.5,625,3,"[197,199,201,203,204,204,205,205,205,205,205,205,204,200,192,177,147,110,59,18,-55,-102,-137,-167,-182,-189,-196,-198,-201,-204,-206,-209,-211,-214,-216,-219,-221,-224,-228,-229,-233,-235,-237,-239,-241]","[-233,-235,-237,-239,-240,-240,-240,-240,-240,-240,-240,-240,-239,-237,-231,-222,-199,-172,-134,-100,-43,-5,20,50,66,77,93,101,106,114,121,126,131,138,141,147,149,154,160,163,168,172,174,177,180]","[0,0,0,0,0,0,0,0,0,0,0,0,0,0,0,0,0,0,0,0,0,0,0,0,0,0,0,0,0,0,0,0,0,0,0,0,0,0,0,0,0,0,0,0,0]","[0,0,0,0,0,0,0,0,0,0,0,0,0,0,0,0,0,0,0,0,0,0,0,0,0,0,0,0,0,0,0,0,0,0,0,0,0,0,0,0,0,0,0,0,0]","[0,0,0,0,0,0,0,0,0,0,0,0,0,0,0,0,0,0,0,0,0,0,0,0,0,0,0,0,0,0,0,0,0,0,0,0,0,0,0,0,0,0,0,0,0]","[0.00020000001787678912,0.01330000001191678,0.023400000005956656,0.03920000001787827,0.0531000000238393,0.06349999999999767,0.07699999999999818,0.0902000000178802,0.10649999999999693,0.11670000001787884,0.1331000000238376,0.1466000000238381,0.1599999999999966,0.17310000002383674,0.18320000001787662,0.19649999999999324,0.21349999999999625,0.22630000001191775,0.2397000000178764,0.24990000000595813,0.2664999999999935,0.27970000001787554,0.28999999999999915,0.3062000000178813,0.3199000000059584,0.32990000000595643,0.3463000000119152,0.3596000000238391,0.37020000001788134,0.38649999999999807,0.3997000000178801,0.4099999999999966,0.4234999999999971,0.43970000001787923,0.45010000002383777,0.46630000001191974,0.47670000001787827,0.4899999999999949,0.5064000000059536,0.5166000000238355,0.5331000000238362,0.546300000011918,0.5571000000238371,0.5738000000119143,0.5869000000059543]",,6,0,6,0,1,,,,
,,A000000000,2022-11-28_15h06.06.749,GoFitts,2022.2.4,Win32,75.17666516,,,,,,,,,,,,,,,,,,"[-252.81781074217105,183.6828913413979]","[285.4829555133128,-127.10520096118755]",25.5,625,3,"[-241,-243,-244,-244,-245,-245,-245,-245,-245,-246,-246,-246,-247,-244,-236,-212,-176,-137,-54,20,90,150,192,212,230,241,246,248,251,251,253,256,257,260,260,262,263,264,266,267,268,268,269,270,270,271,271,272,272,272,272,272,272,272,272,272,272,272,272,272,272,272,272,273,275]","[180,181,182,182,183,183,183,183,183,183,183,183,181,176,166,146,125,103,57,19,-16,-44,-66,-78,-89,-97,-101,-104,-106,-107,-108,-110,-112,-113,-114,-116,-116,-119,-120,-120,-121,-122,-122,-122,-122,-122,-123,-123,-123,-123,-123,-123,-123,-123,-123,-123,-123,-123,-123,-123,-123,-123,-123,-124,-124]","[0,0,0,0,0,0,0,0,0,0,0,0,0,0,0,0,0,0,0,0,0,0,0,0,0,0,0,0,0,0,0,0,0,0,0,0,0,0,0,0,0,0,0,0,0,0,0,0,0,0,0,0,0,0,0,0,0,0,0,0,0,0,0,0,0]","[0,0,0,0,0,0,0,0,0,0,0,0,0,0,0,0,0,0,0,0,0,0,0,0,0,0,0,0,0,0,0,0,0,0,0,0,0,0,0,0,0,0,0,0,0,0,0,0,0,0,0,0,0,0,0,0,0,0,0,0,0,0,0,0,0]","[0,0,0,0,0,0,0,0,0,0,0,0,0,0,0,0,0,0,0,0,0,0,0,0,0,0,0,0,0,0,0,0,0,0,0,0,0,0,0,0,0,0,0,0,0,0,0,0,0,0,0,0,0,0,0,0,0,0,0,0,0,0,0,0,0]","[0.0003000000119186552,0.012900000005963363,0.023300000011921895,0.036400000005961886,0.05299999999999727,0.06320000001787918,0.07670000001787969,0.09030000001192207,0.10330000001192019,0.11990000000596268,0.1331000000238447,0.14330000001191934,0.15960000002384334,0.16980000001191797,0.18299999999999983,0.19950000000000045,0.21270000001788247,0.22299999999999898,0.23940000000595774,0.25260000002383975,0.26599999999999824,0.279400000005964,0.2926000000238389,0.3029000000059625,0.316400000005963,0.3325000000000031,0.34610000002384567,0.3594000000059623,0.3729000000059628,0.3831000000238447,0.39630000001191945,0.41290000000596194,0.4232000000178786,0.4363000000119186,0.4498000000119191,0.4660000000000011,0.4765000000000015,0.49280000001191837,0.5063000000119189,0.5167000000178845,0.5333000000119199,0.546300000011918,0.5567000000178837,0.5728000000119238,0.5832000000178823,0.5996000000238411,0.6132000000178834,0.6234999999999999,0.6396000000238402,0.6527000000178802,0.6633000000119225,0.676800000011923,0.6931000000238399,0.703100000023845,0.7198000000119222,0.7343000000119204,0.7464000000059627,0.7566000000238446,0.7726000000238429,0.7831000000238433,0.7968000000119204,0.8129000000059605,0.8261000000238425,0.839500000000001,0.8498000000119177]",,7,0,7,0,1,,,,
,,A000000000,2022-11-28_15h06.06.749,GoFitts,2022.2.4,Win32,75.17666516,,,,,,,,,,,,,,,,,,"[285.4829555133128,-127.10520096118755]","[-305.67112522931427,64.97240338054979]",25.5,625,3,"[275,277,278,279,279,279,279,279,279,279,279,279,279,278,268,249,220,192,146,75,11,-56,-117,-161,-196,-223,-238,-250,-257,-260,-261,-264,-267,-269,-273,-275,-278,-280,-282,-283,-285,-288,-291,-295,-299,-305]","[-124,-125,-126,-126,-126,-126,-126,-126,-126,-126,-126,-126,-126,-126,-124,-118,-111,-103,-86,-57,-39,-31,-28,-27,-26,-25,-23,-19,-15,-11,-8,-4,0,4,10,14,20,24,30,33,37,41,45,47,50,53]","[0,0,0,0,0,0,0,0,0,0,0,0,0,0,0,0,0,0,0,0,0,0,0,0,0,0,0,0,0,0,0,0,0,0,0,0,0,0,0,0,0,0,0,0,0,0]","[0,0,0,0,0,0,0,0,0,0,0,0,0,0,0,0,0,0,0,0,0,0,0,0,0,0,0,0,0,0,0,0,0,0,0,0,0,0,0,0,0,0,0,0,0,0]","[0,0,0,0,0,0,0,0,0,0,0,0,0,0,0,0,0,0,0,0,0,0,0,0,0,0,0,0,0,0,0,0,0,0,0,0,0,0,0,0,0,0,0,0,0,0]","[0.00020000001787678912,0.016100000023840266,0.02630000001192201,0.039700000017880654,0.05330000001192303,0.0669000000059583,0.08020000001788219,0.0963000000119223,0.10660000002383896,0.11999999999999744,0.13620000001787957,0.14940000000596143,0.1599999999999966,0.17330000001192047,0.18960000002383737,0.20280000001191922,0.21600000000000108,0.22630000001191775,0.23990000000596012,0.25610000002384226,0.2694000000059589,0.2828000000119175,0.29620000001788327,0.309400000005958,0.32280000001191667,0.33610000002384055,0.3463000000119223,0.3596000000238391,0.37599999999999767,0.3894000000059563,0.3997000000178801,0.41590000000596206,0.4297000000178812,0.4398000000119211,0.45599999999999596,0.46649999999999636,0.4827000000178785,0.4960000000000022,0.5092000000178771,0.5195000000000007,0.5330000000000013,0.546300000011918,0.5597000000178838,0.5730000000000004,0.5865000000000009,0.6026000000238412]",,8,0,8,0,1,,,,
,,A000000000,2022-11-28_15h06.06.749,GoFitts,2022.2.4,Win32,75.17666516,,,,,,,,,,,,,,,,,,"[-305.67112522931427,64.97240338054979]","[312.5,0]",25.5,625,3,"[-305,-307,-308,-309,-309,-309,-309,-309,-309,-309,-309,-309,-309,-309,-302,-288,-258,-209,-134,-37,59,160,232,292,318,338,347,348,348,348,348,348,348,348,348,348,348,347,343,340,338,336,332,330,329,326,324]","[53,56,56,57,57,57,57,57,57,57,57,57,57,57,55,52,46,41,36,34,28,26,23,22,21,21,21,21,21,21,21,21,21,21,21,21,21,21,21,20,18,16,13,9,8,6,4]","[0,0,0,0,0,0,0,0,0,0,0,0,0,0,0,0,0,0,0,0,0,0,0,0,0,0,0,0,0,0,0,0,0,0,0,0,0,0,0,0,0,0,0,0,0,0,0]","[0,0,0,0,0,0,0,0,0,0,0,0,0,0,0,0,0,0,0,0,0,0,0,0,0,0,0,0,0,0,0,0,0,0,0,0,0,0,0,0,0,0,0,0,0,0,0]","[0,0,0,0,0,0,0,0,0,0,0,0,0,0,0,0,0,0,0,0,0,0,0,0,0,0,0,0,0,0,0,0,0,0,0,0,0,0,0,0,0,0,0,0,0,0,0]","[0.00019999998807662678,0.013400000005958645,0.023599999994033283,0.03690000000595717,0.053299999982115764,0.06400000000000006,0.08029999998211679,0.09340000000595694,0.1039999999999992,0.11749999999999972,0.13069999998807447,0.14379999998211446,0.15759999999403362,0.17069999998807361,0.18679999998211372,0.20019999998807947,0.2131999999880776,0.2264000000059596,0.23990000000596012,0.25340000000596064,0.2665999999940354,0.2804999999999964,0.2931999999880759,0.30659999999403453,0.31709999999403493,0.3302999999821168,0.34669999998807555,0.3570999999940341,0.3734000000059581,0.3840999999940351,0.40049999999999386,0.410499999999999,0.42409999999403425,0.43759999999403476,0.4504999999999981,0.46649999999999636,0.4774000000059573,0.4932999999821135,0.5066999999880792,0.519999999999996,0.5302999999821125,0.5436999999880783,0.5601999999880789,0.5734000000059609,0.5835999999940356,0.5995999999940338,0.6136999999880786]",,9,0,9,0,1,,,,
,,A000000000,2022-11-28_15h06.06.749,GoFitts,2022.2.4,Win32,75.17666516,,,,,,,,,,,,,,,,,,"[312.5,0]","[-305.67112522931427,-64.97240338054971]",25.5,625,3,"[324,322,320,318,317,315,313,310,299,290,263,228,185,135,84,30,-30,-84,-133,-171,-195,-214,-226,-237,-249,-257,-269,-275,-280,-285,-288,-291,-294]","[4,2,2,0,0,-1,-1,-2,-3,-4,-7,-9,-10,-13,-14,-18,-22,-27,-32,-39,-44,-50,-54,-58,-61,-63,-65,-66,-66,-66,-66,-66,-66]","[0,0,0,0,0,0,0,0,0,0,0,0,0,0,0,0,0,0,0,0,0,0,0,0,0,0,0,0,0,0,0,0,0]","[0,0,0,0,0,0,0,0,0,0,0,0,0,0,0,0,0,0,0,0,0,0,0,0,0,0,0,0,0,0,0,0,0]","[0,0,0,0,0,0,0,0,0,0,0,0,0,0,0,0,0,0,0,0,0,0,0,0,0,0,0,0,0,0,0,0,0]","[0.0001999999880837322,0.012899999976163201,0.023199999988079867,0.039599999994038626,0.04979999998212037,0.06639999997616286,0.07659999999404477,0.08959999999404289,0.10619999998807828,0.11650000000000205,0.13289999997616064,0.1460000000000008,0.1595000000000013,0.17269999998808316,0.18599999999999994,0.19929999998212367,0.2126999999880823,0.22609999999404096,0.23939999997615757,0.25269999998808146,0.2660999999940401,0.2793999999761638,0.2926999999880806,0.3061999999880811,0.31919999998807924,0.33009999999404016,0.34669999998808265,0.3598999999761574,0.3731999999880813,0.38639999997616314,0.39959999999404516,0.4102999999821222,0.4262999999821204]",,10,0,10,0,1,,,,
,,A000000000,2022-11-28_15h06.06.749,GoFitts,2022.2.4,Win32,75.17666516,,,,,,,,,,,,,,,,,,"[-305.67112522931427,-64.97240338054971]","[285.4829555133128,127.10520096118755]",25.5,625,3,"[-294,-297,-298,-300,-302,-304,-305,-305,-305,-305,-305,-305,-305,-305,-305,-305,-305,-289,-256,-222,-136,-60,20,79,122,151,172,186,195,204,213,220,230,240,248,253,256,258,260,260,262,264,265,269,272,275,279]","[-66,-66,-66,-67,-67,-67,-67,-67,-67,-67,-67,-67,-67,-67,-67,-67,-66,-59,-46,-32,1,24,45,59,66,72,77,80,83,88,90,93,97,100,103,105,106,108,108,110,111,112,112,114,115,117,119]","[0,0,0,0,0,0,0,0,0,0,0,0,0,0,0,0,0,0,0,0,0,0,0,0,0,0,0,0,0,0,0,0,0,0,0,0,0,0,0,0,0,0,0,0,0,0,0]","[0,0,0,0,0,0,0,0,0,0,0,0,0,0,0,0,0,0,0,0,0,0,0,0,0,0,0,0,0,0,0,0,0,0,0,0,0,0,0,0,0,0,0,0,0,0,0]","[0,0,0,0,0,0,0,0,0,0,0,0,0,0,0,0,0,0,0,0,0,0,0,0,0,0,0,0,0,0,0,0,0,0,0,0,0,0,0,0,0,0,0,0,0,0,0]","[0.0001999999880837322,0.012900000005963363,0.023199999988079867,0.036400000005961886,0.05329999998212287,0.06659999999403965,0.07659999999404477,0.09000000000000341,0.10329999998212003,0.11679999998212054,0.13019999998807918,0.1436999999880797,0.1574000000059641,0.17009999999404357,0.18319999998808356,0.1965999999940422,0.21019999998808458,0.22609999999404096,0.23959999999404147,0.24990000000596524,0.26629999998212384,0.2795999999940406,0.29299999999999926,0.3061999999880811,0.3199000000059655,0.3330000000000055,0.3460999999940455,0.3594000000059623,0.37279999998212077,0.3861999999880794,0.39940000000596143,0.41009999999404556,0.4232999999821203,0.43929999998211855,0.45259999999404243,0.46609999999404295,0.47959999999404346,0.4927999999821182,0.5062999999821187,0.5195999999940426,0.5327999999821245,0.543199999988083,0.556299999982123,0.5727999999821236,0.5861999999880823,0.5995999999940409,0.6129999999999995]",,11,0,11,0,1,,,,
,,A000000000,2022-11-28_15h06.06.749,GoFitts,2022.2.4,Win32,75.17666516,,,,,,,,,,,,,,,,,,"[285.4829555133128,127.10520096118755]","[-252.81781074217108,-183.68289134139783]",25.5,625,3,"[279,280,283,285,287,289,291,293,293,293,293,293,293,292,286,279,259,232,207,153,102,63,-3,-48,-85,-111,-128,-142,-151,-160,-166,-171,-176,-180,-184,-188,-194,-200,-205,-207,-212,-214,-216,-219,-223,-225,-229,-232,-235,-238,-242,-243,-247]","[119,120,121,123,124,125,126,127,127,127,127,127,127,125,120,115,101,86,71,45,19,2,-27,-47,-62,-75,-85,-93,-98,-106,-112,-116,-120,-124,-127,-129,-133,-136,-139,-142,-146,-150,-152,-157,-161,-163,-165,-168,-169,-171,-174,-175,-177]","[0,0,0,0,0,0,0,0,0,0,0,0,0,0,0,0,0,0,0,0,0,0,0,0,0,0,0,0,0,0,0,0,0,0,0,0,0,0,0,0,0,0,0,0,0,0,0,0,0,0,0,0,0]","[0,0,0,0,0,0,0,0,0,0,0,0,0,0,0,0,0,0,0,0,0,0,0,0,0,0,0,0,0,0,0,0,0,0,0,0,0,0,0,0,0,0,0,0,0,0,0,0,0,0,0,0,0]","[0,0,0,0,0,0,0,0,0,0,0,0,0,0,0,0,0,0,0,0,0,0,0,0,0,0,0,0,0,0,0,0,0,0,0,0,0,0,0,0,0,0,0,0,0,0,0,0,0,0,0,0,0]","[0.00009999999403476068,0.012900000005956258,0.023400000005956656,0.03659999999403851,0.04999999999999716,0.0634000000059558,0.07680000001192155,0.0902000000178802,0.1063000000119203,0.1168000000119207,0.1303000000119212,0.14649999999999608,0.15980000001191996,0.1700000000000017,0.18640000000596046,0.196800000011919,0.21309999999403573,0.2264000000059596,0.23670000001788338,0.2530999999940349,0.26620000001788213,0.27670000001788253,0.29280000001192263,0.30630000001191604,0.3197000000178818,0.3328000000119218,0.34640000000595705,0.3595999999940389,0.3698000000119208,0.3864000000059562,0.3994999999999962,0.41290000000596194,0.4262000000178787,0.4395999999940372,0.44999999999999574,0.46320000001787776,0.47659999999403624,0.49280000001191837,0.5064000000059607,0.5195999999940355,0.5330000000000013,0.5462000000178833,0.5567000000178766,0.5700000000000003,0.585599999994038,0.5968000000119176,0.6099000000059576,0.6264000000059582,0.636700000017882,0.6500999999940404,0.6663000000119226,0.6767000000178811,0.692200000017877]",,12,0,12,0,1,,,,
,,A000000000,2022-11-28_15h06.06.749,GoFitts,2022.2.4,Win32,75.17666516,,,,,,,,,,,,,,,,,,"[-252.81781074217108,-183.68289134139783]","[209.1033144871432,232.2327579616857]",25.5,625,3,"[-247,-250,-253,-254,-256,-256,-258,-258,-258,-258,-258,-258,-258,-258,-258,-258,-258,-258,-253,-246,-225,-199,-163,-124,-77,-22,16,76,110,131,146,153,156,160,162,165,168,172,176,179,182,184,187,190,193,195,197,200,202,203,204,204,205,206,206,207]","[-177,-179,-181,-182,-183,-183,-183,-183,-183,-183,-183,-183,-183,-183,-183,-183,-183,-183,-176,-167,-141,-115,-77,-28,31,80,108,143,161,173,182,187,190,194,194,196,197,199,201,203,204,206,207,208,208,210,212,214,215,216,217,218,218,218,219,220]","[0,0,0,0,0,0,0,0,0,0,0,0,0,0,0,0,0,0,0,0,0,0,0,0,0,0,0,0,0,0,0,0,0,0,0,0,0,0,0,0,0,0,0,0,0,0,0,0,0,0,0,0,0,0,0,0]","[0,0,0,0,0,0,0,0,0,0,0,0,0,0,0,0,0,0,0,0,0,0,0,0,0,0,0,0,0,0,0,0,0,0,0,0,0,0,0,0,0,0,0,0,0,0,0,0,0,0,0,0,0,0,0,0]","[0,0,0,0,0,0,0,0,0,0,0,0,0,0,0,0,0,0,0,0,0,0,0,0,0,0,0,0,0,0,0,0,0,0,0,0,0,0,0,0,0,0,0,0,0,0,0,0,0,0,0,0,0,0,0,0]","[0.00019999998807662678,0.013800000011919167,0.02719999998807765,0.03769999998807805,0.05390000000596018,0.06440000000596058,0.0809000000059612,0.09100000000000108,0.10719999998807594,0.12069999998807646,0.13069999998807447,0.14730000001191712,0.1609000000059595,0.17409999999404135,0.18440000000595802,0.20059999999404,0.21099999999999852,0.22419999998808038,0.24009999999403675,0.25080000001192104,0.26759999999404016,0.28040000000596166,0.2938000000119203,0.3071999999880788,0.3206999999880793,0.3336999999880774,0.3444000000059617,0.3603000000119181,0.3740999999940371,0.3873000000119191,0.4004000000059591,0.4139000000059596,0.4239999999999995,0.4395999999940372,0.4510999999940353,0.4643000000119173,0.47749999999999915,0.49380000001191604,0.5073000000119166,0.5204000000059565,0.5338000000119223,0.5440999999940388,0.5575999999940393,0.5740999999940399,0.5871999999880799,0.5976999999880803,0.6109000000059623,0.6274000000059559,0.6408000000119216,0.6509999999999962,0.6643000000119201,0.6778000000119206,0.6940999999940374,0.7045999999940378,0.7209999999999965,0.7340999999940365]",,13,0,13,0,1,,,,
,,A000000000,2022-11-28_15h06.06.749,GoFitts,2022.2.4,Win32,75.17666516,,,,,,,,,,,,,,,,,,"[209.1033144871432,232.2327579616857]","[-156.25000000000014,-270.632938682637]",25.5,625,3,"[207,207,207,208,208,208,208,208,208,208,208,208,208,208,207,205,203,195,188,170,151,128,110,80,54,34,16,4,-7,-15,-22,-29,-35,-40,-45,-49,-51,-54,-58,-61,-66,-72,-77,-83,-87,-92,-96,-100,-109,-116,-123,-127,-132,-136,-139,-141,-144,-147,-148,-151]","[220,223,224,226,226,226,226,226,226,226,226,226,226,226,224,220,216,205,196,173,148,119,94,53,23,-5,-32,-53,-71,-88,-103,-117,-129,-138,-147,-156,-163,-171,-180,-184,-191,-199,-203,-207,-211,-214,-217,-219,-223,-227,-232,-235,-240,-243,-246,-249,-252,-256,-259,-264]","[0,0,0,0,0,0,0,0,0,0,0,0,0,0,0,0,0,0,0,0,0,0,0,0,0,0,0,0,0,0,0,0,0,0,0,0,0,0,0,0,0,0,0,0,0,0,0,0,0,0,0,0,0,0,0,0,0,0,0,0]","[0,0,0,0,0,0,0,0,0,0,0,0,0,0,0,0,0,0,0,0,0,0,0,0,0,0,0,0,0,0,0,0,0,0,0,0,0,0,0,0,0,0,0,0,0,0,0,0,0,0,0,0,0,0,0,0,0,0,0,0]","[0,0,0,0,0,0,0,0,0,0,0,0,0,0,0,0,0,0,0,0,0,0,0,0,0,0,0,0,0,0,0,0,0,0,0,0,0,0,0,0,0,0,0,0,0,0,0,0,0,0,0,0,0,0,0,0,0,0,0,0]","[0.00020000001788389454,0.01330000001191678,0.023499999999998522,0.03670000001788054,0.05330000001192303,0.06660000002383981,0.07730000001191684,0.09040000000595683,0.10610000002384368,0.11710000002383936,0.1303000000119212,0.14670000001787997,0.15960000002384334,0.1732000000178786,0.18350000000000222,0.19960000002384248,0.21010000002384288,0.22630000001191775,0.23700000000000188,0.25330000001191877,0.2665000000000006,0.27970000001788264,0.28999999999999915,0.3064999999999998,0.3197000000178818,0.3329999999999984,0.3462000000178804,0.3596000000238391,0.3731000000238396,0.38630000001192144,0.3996000000238382,0.41310000002383873,0.4263000000119206,0.43960000002383737,0.4529000000059611,0.46620000001787787,0.4796000000238436,0.49290000000596024,0.5063000000119189,0.5166000000238427,0.5300000000000011,0.546300000011918,0.5598000000119185,0.5729000000059585,0.5865000000000009,0.5996000000238411,0.6131000000238416,0.6233000000119233,0.6398000000119168,0.6531000000238407,0.6662000000178807,0.6767000000178811,0.6929999999999978,0.7062000000178799,0.719900000005957,0.732999999999997,0.7434999999999974,0.759999999999998,0.7702000000178799,0.7864000000059619]",,14,0,14,0,1,,,,
,,A000000000,2022-11-28_15h06.06.749,GoFitts,2022.2.4,Win32,75.17666516,,,,,,,,,,,,,,,,,,,,,,3,,,,,,,,,,,,,3,0,0,1
,,A000000000,2022-11-28_15h06.06.749,GoFitts,2022.2.4,Win32,75.17666516,,,,,,,,,,,,,,,,return,0.4198,"[-159,-278]","[-195.62952014676114,-41.58233816355181]",48,400,4,"[-159,-159,-159,-159,-157,-156,-152,-150,-146,-141,-134,-127,-117,-106,-93,-79,-66,-54,-45,-40,-39,-42,-48,-64,-84,-103,-130,-162,-182]","[-278,-277,-277,-274,-273,-269,-264,-257,-250,-240,-229,-214,-199,-183,-164,-149,-135,-123,-111,-102,-94,-88,-83,-75,-66,-61,-54,-46,-42]","[0,0,0,0,0,0,0,0,0,0,0,0,0,0,0,0,0,0,0,0,0,0,0,0,0,0,0,0,0]","[0,0,0,0,0,0,0,0,0,0,0,0,0,0,0,0,0,0,0,0,0,0,0,0,0,0,0,0,0]","[0,0,0,0,0,0,0,0,0,0,0,0,0,0,0,0,0,0,0,0,0,0,0,0,0,0,0,0,0]","[0.0002999999821184929,0.01719999998807964,0.02929999998212196,0.042699999988080606,0.05309999999403914,0.066299999982121,0.07959999999404488,0.09300000000000352,0.10959999999403891,0.12279999998212077,0.13609999999404465,0.1495000000000033,0.16269999998807805,0.17590000000596007,0.18940000000596058,0.20250000000000057,0.21600000000000108,0.2295000000000016,0.24259999999404158,0.25590000000596547,0.26929999998212395,0.2826999999880826,0.2959999999999994,0.3094000000059651,0.3225000000000051,0.3330000000000055,0.34619999998808026,0.36250000000000426,0.37609999999403954]",,0,0,0,0,1,,,,
,,A000000000,2022-11-28_15h06.06.749,GoFitts,2022.2.4,Win32,75.17666516,,,,,,,,,,,,,,,,,,"[-195.62952014676114,-41.58233816355181]","[182.70909152852016,81.34732861516002]",48,400,4,"[-182,-196,-209,-220,-225,-227,-227,-227,-227,-227,-227,-225,-215,-188,-155,-109,-54,10,44,96,127,146,166,174,179,183,184,185,188]","[-42,-39,-35,-33,-32,-32,-32,-32,-32,-32,-32,-31,-28,-21,-12,-3,4,11,15,25,32,37,44,48,49,52,53,56,59]","[0,0,0,0,0,0,0,0,0,0,0,0,0,0,0,0,0,0,0,0,0,0,0,0,0,0,0,0,0]","[0,0,0,0,0,0,0,0,0,0,0,0,0,0,0,0,0,0,0,0,0,0,0,0,0,0,0,0,0]","[0,0,0,0,0,0,0,0,0,0,0,0,0,0,0,0,0,0,0,0,0,0,0,0,0,0,0,0,0]","[0.00020000001788389454,0.013300000011923885,0.026499999999998636,0.03980000001192252,0.053200000017881166,0.06670000001788168,0.0797000000178798,0.0902000000178802,0.10340000000596206,0.11970000001787895,0.13020000001787935,0.14359999999403783,0.15690000000596172,0.17340000000596234,0.18640000000596046,0.19990000000596098,0.21320000001788486,0.22630000001191775,0.2364999999999995,0.253200000017884,0.26640000000595876,0.27670000001788253,0.2930999999940411,0.3034000000059578,0.3167000000178817,0.3330999999940403,0.3467000000178828,0.35970000001788094,0.37349999999999994]",,1,0,1,0,1,,,,
,,A000000000,2022-11-28_15h06.06.749,GoFitts,2022.2.4,Win32,75.17666516,,,,,,,,,,,,,,,,,,"[182.70909152852016,81.34732861516002]","[-161.80339887498948,-117.5570504584946]",48,400,4,"[188,189,191,193,196,197,200,202,202,202,202,199,187,166,134,106,58,10,-45,-82,-123,-143]","[59,62,65,67,71,73,75,77,77,77,77,73,65,52,32,15,-15,-40,-69,-86,-102,-111]","[0,0,0,0,0,0,0,0,0,0,0,0,0,0,0,0,0,0,0,0,0,0]","[0,0,0,0,0,0,0,0,0,0,0,0,0,0,0,0,0,0,0,0,0,0]","[0,0,0,0,0,0,0,0,0,0,0,0,0,0,0,0,0,0,0,0,0,0]","[0.00009999999403476068,0.012999999999998124,0.022999999999996135,0.036499999999996646,0.05279999998211338,0.06319999998807901,0.07659999999403766,0.0925999999940359,0.1063999999761549,0.11939999997615303,0.12979999998211866,0.14619999998807742,0.1594999999999942,0.17279999998211792,0.1860999999940347,0.1963999999761583,0.2096999999880751,0.2231999999880756,0.23939999997615757,0.2497999999821161,0.26579999998211434,0.27949999999999875]",,2,0,2,0,1,,,,
,,A000000000,2022-11-28_15h06.06.749,GoFitts,2022.2.4,Win32,75.17666516,,,,,,,,,,,,,,,,,,"[-161.80339887498948,-117.5570504584946]","[133.82612127177165,148.62896509547886]",48,400,4,"[-143,-154,-159,-160,-160,-161,-161,-161,-163,-163,-163,-163,-163,-162,-157,-145,-130,-104,-71,-21,15,44,66,76,88,91,94,95,98,100,102,105,109,112,116,122,127]","[-111,-116,-120,-121,-122,-123,-124,-127,-127,-128,-128,-128,-128,-125,-120,-106,-91,-72,-49,-13,14,37,59,70,82,88,92,97,102,105,108,111,114,116,119,123,127]","[0,0,0,0,0,0,0,0,0,0,0,0,0,0,0,0,0,0,0,0,0,0,0,0,0,0,0,0,0,0,0,0,0,0,0,0,0]","[0,0,0,0,0,0,0,0,0,0,0,0,0,0,0,0,0,0,0,0,0,0,0,0,0,0,0,0,0,0,0,0,0,0,0,0,0]","[0,0,0,0,0,0,0,0,0,0,0,0,0,0,0,0,0,0,0,0,0,0,0,0,0,0,0,0,0,0,0,0,0,0,0,0,0]","[0.0001999999880837322,0.01309999999403999,0.023499999999998522,0.03980000001192252,0.050099999994039024,0.06669999998808152,0.07680000001192155,0.09009999999403817,0.10650000000000404,0.11950000000000216,0.1331999999880793,0.1434000000059612,0.15969999998807793,0.17330000001192047,0.18340000000596035,0.19969999998807708,0.21000000000000085,0.2234000000059595,0.23669999998808322,0.2528000000119235,0.2665000000000006,0.2796999999880825,0.29299999999999926,0.3034000000059649,0.3190999999940374,0.32980000001192167,0.3433000000119222,0.35999999999999943,0.3730999999940394,0.38630000001192144,0.39659999999403794,0.41009999999403846,0.42600000000000193,0.43990000000596297,0.4500999999940376,0.4664000000059616,0.4766999999880781]",,3,0,3,0,1,,,,
