key_resp.keys,key_resp.rt,key_resp_3.keys,key_resp_3.rt,from,to,w,a,sequence_loop.thisN,mouse.x,mouse.y,mouse.leftButton,mouse.midButton,mouse.rightButton,mouse.time,key_resp_2.keys,trial_loop.thisRepN,trial_loop.thisTrialN,trial_loop.thisN,trial_loop.thisIndex,trial_loop.ran,受試者ID,date,expName,psychopyVersion,OS,frameRate,sequence_loop.thisRepN,sequence_loop.thisTrialN,sequence_loop.thisIndex,sequence_loop.ran
return,1.3852,return,0.9581,"[203.66668701171875,-139.5555419921875]","[108.73372353331446,120.76103414007656]",60.5,325,0,"[203.66668701171875,203.66668701171875,203.66668701171875,203.66668701171875,203.66668701171875,203.66668701171875,203.66668701171875,203.66668701171875,203.66668701171875,203.66668701171875,203.66668701171875,203.66668701171875,203.66668701171875,203.66668701171875,203.66668701171875,203.66668701171875,203.66668701171875,203.66668701171875,203.66668701171875,203.66668701171875,203.66668701171875,203.66668701171875,203.66668701171875,203.66668701171875,203.66668701171875,203.66668701171875,203.66668701171875,203.66668701171875,203.66668701171875,196.5555419921875,170.77783203125,153.888916015625,153.888916015625,146.77777099609375,135.2222900390625]","[-139.5555419921875,-139.5555419921875,-139.5555419921875,-139.5555419921875,-139.5555419921875,-139.5555419921875,-139.5555419921875,-139.5555419921875,-139.5555419921875,-139.5555419921875,-139.5555419921875,-139.5555419921875,-139.5555419921875,-139.5555419921875,-139.5555419921875,-139.5555419921875,-139.5555419921875,-139.5555419921875,-139.5555419921875,-139.5555419921875,-139.5555419921875,-139.5555419921875,-139.5555419921875,-139.5555419921875,-139.5555419921875,-139.5555419921875,-139.5555419921875,-139.5555419921875,-139.5555419921875,-127.11114501953125,-56,13.333343505859375,72.88888549804688,88.88888549804688,106.66665649414062]","[0,0,0,0,0,0,0,0,0,0,0,0,0,0,0,0,0,0,0,0,0,0,0,0,0,0,0,0,0,0,0,0,0,0,0]","[0,0,0,0,0,0,0,0,0,0,0,0,0,0,0,0,0,0,0,0,0,0,0,0,0,0,0,0,0,0,0,0,0,0,0]","[0,0,0,0,0,0,0,0,0,0,0,0,0,0,0,0,0,0,0,0,0,0,0,0,0,0,0,0,0,0,0,0,0,0,0]","[0.004099999999628068,0.03569999999925422,0.046800000000745356,0.06340000000037271,0.07990000000037334,0.09659999999962743,0.11390000000037226,0.13000000000000078,0.14719999999925548,0.163099999999627,0.17980000000074448,0.19650000000000034,0.2140000000000004,0.22969999999925506,0.24649999999999928,0.2629999999999999,0.27969999999925577,0.29630000000074475,0.3130000000000006,0.32959999999962797,0.3469000000003728,0.3629000000003728,0.37950000000000017,0.39740000000037234,0.413099999999627,0.4294000000003724,0.44609999999962824,0.4626999999992556,0.4793000000007446,0.4985999999996267,0.5156999999992546,0.5305999999996267,0.5473000000007442,0.5639000000003733,0.5805000000000007]",,0,0,0,0,1,,2022-09-22_21h53.41.858,GoFitts,2022.1.4,Win32,59.64451867,,,,
,,,,"[108.73372353331446,120.76103414007656]","[-81.25000000000007,-140.72912811497125]",60.5,325,0,"[135.2222900390625,124.5555419921875,120.11114501953125,115.66668701171875,112.11114501953125,109.4444580078125,103.22222900390625,95.2222900390625,88.11114501953125,85.4444580078125,85.4444580078125,85.4444580078125,85.4444580078125,85.4444580078125,85.4444580078125,85.4444580078125,85.4444580078125,85.4444580078125,85.4444580078125,85.4444580078125,82.77777099609375,81,73.888916015625,61.4444580078125,33.00006103515625,-6.111083984375,-44.33331298828125,-71,-89.66668701171875]","[106.66665649414062,121.77777099609375,128,135.11111450195312,140.44442749023438,144.88888549804688,152.88888549804688,161.77777099609375,169.77777099609375,171.55555725097656,172.44444274902344,172.44444274902344,172.44444274902344,172.44444274902344,172.44444274902344,172.44444274902344,172.44444274902344,172.44444274902344,172.44444274902344,171.55555725097656,162.6666717529297,152.88888549804688,132.44442749023438,103.11111450195312,58.666656494140625,6.22222900390625,-48,-93.33334350585938,-120]","[0,0,0,0,0,0,0,0,0,0,0,0,0,0,0,0,0,0,0,0,0,0,0,0,0,0,0,0,0]","[0,0,0,0,0,0,0,0,0,0,0,0,0,0,0,0,0,0,0,0,0,0,0,0,0,0,0,0,0]","[0,0,0,0,0,0,0,0,0,0,0,0,0,0,0,0,0,0,0,0,0,0,0,0,0,0,0,0,0]","[0.0011999999992546861,0.014199999999254587,0.031299999998882555,0.046699999999255226,0.06329999999888258,0.08119999999925476,0.09800000000000075,0.11350000000000016,0.13029999999888275,0.14729999999888221,0.16300000000000026,0.1787999999988834,0.1955000000000009,0.21209999999962825,0.2297999999988818,0.2454000000003731,0.2620999999996272,0.2790999999996284,0.29540000000037203,0.3129000000003721,0.33000000000000007,0.3469000000003728,0.36299999999999955,0.38109999999962696,0.39609999999962753,0.4129000000003735,0.43090000000037243,0.44690000000037244,0.46369999999925504]",,1,0,1,0,1,,2022-09-22_21h53.41.858,GoFitts,2022.1.4,Win32,59.64451867,,,,
,,,,"[-81.25000000000007,-140.72912811497125]","[50.215261585928964,154.54668389796245]",60.5,325,0,"[-89.66668701171875,-106.5555419921875,-119,-121.66668701171875,-122.55548095703125,-123.4444580078125,-123.4444580078125,-123.4444580078125,-124.33331298828125,-124.33331298828125,-125.22222900390625,-125.22222900390625,-126.111083984375,-126.99993896484375,-126.99993896484375,-126.99993896484375,-126.99993896484375,-126.99993896484375,-126.99993896484375,-126.99993896484375,-126.111083984375,-117.22222900390625,-102.111083984375,-77.22222900390625,-49.66668701171875,-31,-15.88885498046875,-6.99993896484375,-1.66668701171875,4.5555419921875,7.22222900390625,11.66668701171875,17,20.5555419921875,25.888916015625,33.00006103515625,38.33331298828125]","[-120,-137.77777099609375,-149.33331298828125,-154.66668701171875,-156.4444580078125,-156.4444580078125,-157.33331298828125,-158.22222900390625,-159.11114501953125,-160,-160.888916015625,-161.77777099609375,-163.5555419921875,-168.888916015625,-171.5555419921875,-173.33331298828125,-173.33331298828125,-173.33331298828125,-173.33331298828125,-173.33331298828125,-166.22222900390625,-140.4444580078125,-100.4444580078125,-50.666656494140625,-8,17.77777099609375,39.111083984375,54.22222900390625,64,71.11111450195312,79.111083984375,85.33334350585938,95.11111450195312,100.44442749023438,109.33334350585938,122.66665649414062,132.44442749023438]","[0,0,0,0,0,0,0,0,0,0,0,0,0,0,0,0,0,0,0,0,0,0,0,0,0,0,0,0,0,0,0,0,0,0,0,0,0]","[0,0,0,0,0,0,0,0,0,0,0,0,0,0,0,0,0,0,0,0,0,0,0,0,0,0,0,0,0,0,0,0,0,0,0,0,0]","[0,0,0,0,0,0,0,0,0,0,0,0,0,0,0,0,0,0,0,0,0,0,0,0,0,0,0,0,0,0,0,0,0,0,0,0,0]","[0.0008000000007442054,0.015300000000744163,0.03200000000000003,0.04819999999925528,0.06509999999962801,0.08119999999925476,0.09819999999925422,0.11530000000074558,0.13119999999925547,0.14790000000037296,0.16499999999999915,0.1811999999992544,0.19780000000074516,0.21619999999925454,0.2324000000003732,0.24769999999925574,0.2635000000000005,0.2801999999992546,0.29680000000074536,0.3145999999996274,0.33159999999962686,0.3476999999992554,0.3654000000003723,0.3809000000003717,0.39780000000074445,0.41559999999962827,0.43099999999999916,0.4480000000000004,0.4660999999996278,0.4824000000003732,0.49940000000037266,0.5166999999992541,0.5315999999996279,0.5486999999992541,0.5656999999992554,0.5814000000003716,0.5990000000000002]",,2,0,2,0,1,,2022-09-22_21h53.41.858,GoFitts,2022.1.4,Win32,59.64451867,,,,
,,,,"[50.215261585928964,154.54668389796245]","[-16.985875280993813,-161.6098079973444]",60.5,325,0,"[38.33331298828125,39.22222900390625,40.11114501953125,41,42.77777099609375,43.66668701171875,44.5555419921875,44.5555419921875,44.5555419921875,44.5555419921875,44.5555419921875,44.5555419921875,44.5555419921875,45.4444580078125,45.4444580078125,42.77777099609375,36.5555419921875,28.55560302734375,20.5555419921875,13.4444580078125,9,4.5555419921875,1.88897705078125,-1.66668701171875,-2.55548095703125,-3.4444580078125,-5.22222900390625,-6.111083984375,-6.99993896484375,-7.88885498046875,-8.77777099609375,-8.77777099609375]","[132.44442749023438,136,136.88888549804688,139.5555419921875,142.22222900390625,145.77777099609375,148.44444274902344,150.2222137451172,150.2222137451172,150.2222137451172,150.2222137451172,150.2222137451172,150.2222137451172,149.3333282470703,139.5555419921875,118.22222900390625,89.77777099609375,55.111114501953125,25.777740478515625,-3.555572509765625,-28.4444580078125,-46.22222900390625,-58.666656494140625,-69.33334350585938,-80,-88.88888549804688,-98.66665649414062,-104.88888549804688,-112,-120,-129.77777099609375,-133.33331298828125]","[0,0,0,0,0,0,0,0,0,0,0,0,0,0,0,0,0,0,0,0,0,0,0,0,0,0,0,0,0,0,0,0]","[0,0,0,0,0,0,0,0,0,0,0,0,0,0,0,0,0,0,0,0,0,0,0,0,0,0,0,0,0,0,0,0]","[0,0,0,0,0,0,0,0,0,0,0,0,0,0,0,0,0,0,0,0,0,0,0,0,0,0,0,0,0,0,0,0]","[0.0010999999996279541,0.015000000000000568,0.03090000000037385,0.05050000000000132,0.06529999999888325,0.0810000000000013,0.09729999999888328,0.1140999999996275,0.1292999999988833,0.14590000000037406,0.1640999999996282,0.17929999999888224,0.19579999999888287,0.21390000000037368,0.23059999999962777,0.2475000000000005,0.26459999999962847,0.2805999999996285,0.29729999999888257,0.31529999999888325,0.32990000000037334,0.34679999999888267,0.3632999999988833,0.380199999999256,0.39700000000000024,0.4131999999992555,0.43150000000000155,0.44829999999888237,0.46579999999888244,0.48309999999962905,0.4984000000003732,0.5150000000000006]",,3,0,3,0,1,,2022-09-22_21h53.41.858,GoFitts,2022.1.4,Win32,59.64451867,,,,
,,,,"[-16.985875280993813,-161.6098079973444]","[-16.985875280993668,161.60980799734443]",60.5,325,0,"[-8.77777099609375,-9.66668701171875,-9.66668701171875,-10.5555419921875,-10.5555419921875,-10.5555419921875,-10.5555419921875,-10.5555419921875,-10.5555419921875,-10.5555419921875,-10.5555419921875,-10.5555419921875,-10.5555419921875,-12.33331298828125,-12.33331298828125,-12.33331298828125,-12.33331298828125,-12.33331298828125,-12.33331298828125,-15.88885498046875,-16.77777099609375,-16.77777099609375,-18.5555419921875,-18.5555419921875,-18.5555419921875,-18.5555419921875,-18.5555419921875,-18.5555419921875,-18.5555419921875]","[-133.33331298828125,-139.5555419921875,-141.33331298828125,-144,-145.77777099609375,-145.77777099609375,-145.77777099609375,-145.77777099609375,-145.77777099609375,-145.77777099609375,-145.77777099609375,-145.77777099609375,-145.77777099609375,-142.22222900390625,-122.66668701171875,-96,-67.55557250976562,-29.333343505859375,6.22222900390625,46.22222900390625,69.33334350585938,82.66665649414062,87.11111450195312,93.33334350585938,101.33331298828125,108.44442749023438,117.33334350585938,128.88888549804688,144.88888549804688]","[0,0,0,0,0,0,0,0,0,0,0,0,0,0,0,0,0,0,0,0,0,0,0,0,0,0,0,0,0]","[0,0,0,0,0,0,0,0,0,0,0,0,0,0,0,0,0,0,0,0,0,0,0,0,0,0,0,0,0]","[0,0,0,0,0,0,0,0,0,0,0,0,0,0,0,0,0,0,0,0,0,0,0,0,0,0,0,0,0]","[0.0007999999988825834,0.020099999999626306,0.03290000000037274,0.04979999999888207,0.06590000000037222,0.09909999999962693,0.10169999999925494,0.11519999999925368,0.13190000000037294,0.14859999999962703,0.16549999999999976,0.18179999999888175,0.19809999999962713,0.2154999999999987,0.2322999999988813,0.24919999999925402,0.26559999999962614,0.28240000000037213,0.3002999999988827,0.3165999999996263,0.3322999999988827,0.34929999999888217,0.36599999999999966,0.382599999999627,0.39990000000037185,0.4155999999996265,0.43219999999925385,0.44890000000037134,0.46699999999999875]",,4,0,4,0,1,,2022-09-22_21h53.41.858,GoFitts,2022.1.4,Win32,59.64451867,,,,
,,,,"[-16.985875280993668,161.60980799734443]","[50.21526158592892,-154.54668389796245]",60.5,325,0,"[-18.5555419921875,-18.5555419921875,-17.66668701171875,-15.88885498046875,-15.88885498046875,-15.88885498046875,-15.88885498046875,-15.88885498046875,-15.88885498046875,-15.88885498046875,-15.88885498046875,-14.111083984375,-14.111083984375,-14.111083984375,-12.33331298828125,-9.66668701171875,-5.22222900390625,-1.66668701171875,1.88897705078125,3.66668701171875,5.4444580078125,6.3333740234375,11.66668701171875,14.33331298828125,16.11114501953125,17,17.888916015625,18.77777099609375,18.77777099609375,19.66680908203125,20.5555419921875,22.33331298828125,23.22222900390625,24.11114501953125]","[144.88888549804688,161.77777099609375,177.77777099609375,186.6666717529297,187.55555725097656,187.55555725097656,187.55555725097656,187.55555725097656,187.55555725097656,187.55555725097656,183.11111450195312,164.44444274902344,128.88888549804688,88.88888549804688,49.77777099609375,16.88885498046875,-9.777801513671875,-31.111114501953125,-47.111114501953125,-56.888885498046875,-63.111114501953125,-70.22222900390625,-80.88888549804688,-87.11111450195312,-92.4444580078125,-99.55557250976562,-104.88888549804688,-108.4444580078125,-111.11111450195312,-113.77777099609375,-119.11114501953125,-126.22222900390625,-135.11114501953125,-143.11114501953125]","[0,0,0,0,0,0,0,0,0,0,0,0,0,0,0,0,0,0,0,0,0,0,0,0,0,0,0,0,0,0,0,0,0,0]","[0,0,0,0,0,0,0,0,0,0,0,0,0,0,0,0,0,0,0,0,0,0,0,0,0,0,0,0,0,0,0,0,0,0]","[0,0,0,0,0,0,0,0,0,0,0,0,0,0,0,0,0,0,0,0,0,0,0,0,0,0,0,0,0,0,0,0,0,0]","[0.0009999999999994458,0.01520000000111743,0.033300000000744845,0.04770000000111807,0.06570000000111698,0.08080000000074428,0.0969000000003728,0.11340000000037165,0.13040000000037288,0.14709999999962697,0.1640999999996282,0.18099999999999916,0.19730000000074455,0.2140000000000004,0.23159999999962722,0.24849999999999994,0.26480000000074533,0.28080000000074534,0.29759999999962794,0.3140999999996268,0.33209999999962747,0.347700000001117,0.36440000000037287,0.3810000000000002,0.39740000000037234,0.4140999999996282,0.4308000000007457,0.4470999999996277,0.4685000000000006,0.48059999999962777,0.4969999999999999,0.5135000000000005,0.530200000001118,0.5469000000003721]",,5,0,5,0,1,,2022-09-22_21h53.41.858,GoFitts,2022.1.4,Win32,59.64451867,,,,
,,,,"[50.21526158592892,-154.54668389796245]","[-81.24999999999996,140.7291281149713]",60.5,325,0,"[24.11114501953125,26.77777099609375,27.66668701171875,27.66668701171875,27.66668701171875,28.55560302734375,30.33331298828125,31.22222900390625,33.888916015625,34.77777099609375,35.66668701171875,35.66668701171875,33.00006103515625,28.55560302734375,16.11114501953125,-0.77777099609375,-24.7777099609375,-43.4444580078125,-54.111083984375,-57.66668701171875,-58.5555419921875,-60.33319091796875,-62.111083984375,-63,-63,-63.88885498046875,-63.88885498046875,-63.88885498046875]","[-143.11114501953125,-151.11114501953125,-154.66668701171875,-154.66668701171875,-154.66668701171875,-155.5555419921875,-155.5555419921875,-155.5555419921875,-155.5555419921875,-154.66668701171875,-145.77777099609375,-115.5555419921875,-81.77777099609375,-50.666656494140625,-17.77777099609375,10.666656494140625,39.111083984375,62.22222900390625,75.5555419921875,81.77777099609375,85.33334350585938,93.33334350585938,101.33331298828125,104,105.77774047851562,110.22219848632812,113.77777099609375,117.33334350585938]","[0,0,0,0,0,0,0,0,0,0,0,0,0,0,0,0,0,0,0,0,0,0,0,0,0,0,0,0]","[0,0,0,0,0,0,0,0,0,0,0,0,0,0,0,0,0,0,0,0,0,0,0,0,0,0,0,0]","[0,0,0,0,0,0,0,0,0,0,0,0,0,0,0,0,0,0,0,0,0,0,0,0,0,0,0,0]","[0.0003000000007453707,0.015800000000744774,0.03209999999962676,0.048400000000372145,0.06450000000000067,0.08240000000037284,0.09870000000111823,0.11540000000037232,0.13220000000111654,0.1484000000003718,0.16520000000111779,0.18190000000037188,0.19870000000111787,0.21530000000074523,0.23170000000111735,0.2484000000003732,0.26540000000037267,0.28250000000000064,0.2987000000011175,0.3155000000000001,0.33209999999962747,0.3485999999996281,0.3652000000011171,0.38190000000037294,0.39830000000074506,0.41509999999962766,0.4314999999999998,0.44820000000111726]",,6,0,6,0,1,,2022-09-22_21h53.41.858,GoFitts,2022.1.4,Win32,59.64451867,,,,
,,,,"[-81.24999999999996,140.7291281149713]","[108.7337235333145,-120.76103414007653]",60.5,325,0,"[-63.88885498046875,-63.88885498046875,-63.88885498046875,-63.88885498046875,-63.88885498046875,-63.88885498046875,-63.88885498046875,-63.88885498046875,-63.88885498046875,-63.88885498046875,-63.88885498046875,-63.88885498046875,-63.88885498046875,-63.88885498046875,-62.111083984375,-52.33331298828125,-33.6666259765625,-11.44439697265625,11.66668701171875,32.11114501953125,47.22222900390625,58.77777099609375,70.33331298828125,76.5555419921875,81.88897705078125,83.66668701171875,89.888916015625]","[117.33334350585938,119.11111450195312,119.11111450195312,119.11111450195312,120.88888549804688,124.44442749023438,130.66665649414062,134.22222900390625,135.11111450195312,136,136,136,136,136,134.22222900390625,123.5555419921875,99.5555419921875,69.33334350585938,32,1.77777099609375,-20.4444580078125,-38.22222900390625,-55.111114501953125,-68.4444580078125,-77.33334350585938,-83.55557250976562,-103.11111450195312]","[0,0,0,0,0,0,0,0,0,0,0,0,0,0,0,0,0,0,0,0,0,0,0,0,0,0,0]","[0,0,0,0,0,0,0,0,0,0,0,0,0,0,0,0,0,0,0,0,0,0,0,0,0,0,0]","[0,0,0,0,0,0,0,0,0,0,0,0,0,0,0,0,0,0,0,0,0,0,0,0,0,0,0]","[0.0015999999996285652,0.0171999999992547,0.03259999999962737,0.048400000000372145,0.06590000000037222,0.08240000000037284,0.09890000000037347,0.11599999999999966,0.13269999999925552,0.14909999999962764,0.16559999999962827,0.18200000000000038,0.19819999999925564,0.21529999999888183,0.23249999999999993,0.2490999999996273,0.266,0.2827999999988826,0.299099999999628,0.3155999999996286,0.332199999999256,0.34890000000037347,0.3655000000000008,0.3822999999988834,0.3992999999988829,0.415699999999255,0.4324000000003725]",,7,0,7,0,1,,2022-09-22_21h53.41.858,GoFitts,2022.1.4,Win32,59.64451867,,,,
,,,,"[108.7337235333145,-120.76103414007653]","[-131.46526158592894,95.51510349752691]",60.5,325,0,"[89.888916015625,93.4444580078125,97,98.77777099609375,98.77777099609375,98.77777099609375,98.77777099609375,99.66680908203125,99.66680908203125,101.4444580078125,101.4444580078125,102.33331298828125,102.33331298828125,102.33331298828125,102.33331298828125,95.2222900390625,81.88897705078125,57,17,-25.66668701171875,-63,-85.22222900390625,-95.88885498046875,-99.4444580078125,-103.88885498046875,-105.66668701171875,-107.4444580078125,-110.111083984375,-112.77777099609375,-115.4444580078125,-120.77777099609375]","[-103.11111450195312,-113.77777099609375,-120.888916015625,-126.22222900390625,-127.11114501953125,-127.11114501953125,-127.11114501953125,-127.11114501953125,-127.11114501953125,-128,-128,-128,-128,-128,-126.22222900390625,-106.66665649414062,-86.22222900390625,-64,-40,-11.555572509765625,12.444427490234375,27.5555419921875,36.444427490234375,41.77777099609375,46.22222900390625,50.666656494140625,53.333343505859375,56.88885498046875,61.33331298828125,66.66665649414062,78.22222900390625]","[0,0,0,0,0,0,0,0,0,0,0,0,0,0,0,0,0,0,0,0,0,0,0,0,0,0,0,0,0,0,0]","[0,0,0,0,0,0,0,0,0,0,0,0,0,0,0,0,0,0,0,0,0,0,0,0,0,0,0,0,0,0,0]","[0,0,0,0,0,0,0,0,0,0,0,0,0,0,0,0,0,0,0,0,0,0,0,0,0,0,0,0,0,0,0]","[0.0005999999996273431,0.016199999999255255,0.03279999999888261,0.04899999999999949,0.06589999999850882,0.0821999999992542,0.09869999999925483,0.11549999999999905,0.13189999999850954,0.1485000000000003,0.16509999999962766,0.18179999999888175,0.19849999999999923,0.21499999999999986,0.23259999999962666,0.24919999999925402,0.2657999999988814,0.282299999998882,0.29919999999925473,0.31539999999851,0.3322999999988827,0.34869999999925483,0.3653999999985089,0.38229999999888165,0.39899999999999913,0.41539999999850963,0.43189999999851025,0.44859999999962774,0.46529999999888183,0.4822999999988813,0.4988999999985104]",,8,0,8,0,1,,2022-09-22_21h53.41.858,GoFitts,2022.1.4,Win32,59.64451867,,,,
,,,,"[-131.46526158592894,95.51510349752691]","[148.45113686692267,-66.09470449981752]",60.5,325,0,"[-120.77777099609375,-121.66668701171875,-122.55548095703125,-122.55548095703125,-122.55548095703125,-123.4444580078125,-124.33331298828125,-125.22222900390625,-125.22222900390625,-125.22222900390625,-125.22222900390625,-125.22222900390625,-125.22222900390625,-125.22222900390625,-125.22222900390625,-125.22222900390625,-121.66668701171875,-112.77777099609375,-95.88885498046875,-71.88885498046875,-43.4444580078125,-11.44439697265625,14.33331298828125,45.4444580078125,51.66668701171875,57.888916015625,61.4444580078125,69.4444580078125,78.33331298828125,84.5555419921875,90.77783203125,95.2222900390625,99.66680908203125,105,111.22222900390625,114.77777099609375,117.44451904296875,122.77777099609375,136.11114501953125]","[78.22222900390625,80.88888549804688,81.77777099609375,81.77777099609375,82.66665649414062,84.44442749023438,87.99996948242188,92.44442749023438,92.44442749023438,92.44442749023438,92.44442749023438,92.44442749023438,92.44442749023438,92.44442749023438,92.44442749023438,92.44442749023438,93.33334350585938,92.44442749023438,85.33334350585938,72.88888549804688,56,36.444427490234375,23.111114501953125,7.999969482421875,6.22222900390625,3.555511474609375,0,-6.22222900390625,-14.222259521484375,-21.333343505859375,-27.555572509765625,-32.000030517578125,-35.555572509765625,-40,-42.666656494140625,-44.4444580078125,-44.4444580078125,-46.22222900390625,-53.333343505859375]","[0,0,0,0,0,0,0,0,0,0,0,0,0,0,0,0,0,0,0,0,0,0,0,0,0,0,0,0,0,0,0,0,0,0,0,0,0,0,0]","[0,0,0,0,0,0,0,0,0,0,0,0,0,0,0,0,0,0,0,0,0,0,0,0,0,0,0,0,0,0,0,0,0,0,0,0,0,0,0]","[0,0,0,0,0,0,0,0,0,0,0,0,0,0,0,0,0,0,0,0,0,0,0,0,0,0,0,0,0,0,0,0,0,0,0,0,0,0,0]","[0.0004000000003721027,0.01649999999999885,0.03259999999962737,0.048700000001117516,0.06620000000111759,0.08340000000037229,0.09909999999962693,0.11559999999962756,0.13190000000037294,0.14809999999962642,0.16509999999962766,0.18200000000000038,0.19809999999962713,0.21330000000074456,0.23190000000037259,0.2483000000007447,0.2654999999999994,0.2823000000007454,0.29880000000074425,0.3154000000003716,0.3325999999996263,0.3490000000000002,0.36549999999999905,0.3825000000000003,0.39870000000111716,0.41540000000037125,0.4320999999996271,0.44859999999962774,0.4652000000011167,0.4823000000007447,0.4988000000007453,0.5152000000011174,0.5319000000003715,0.5487000000011175,0.5649999999999995,0.5818000000007455,0.598800000000745,0.6153000000007438,0.6320999999996264]",,9,0,9,0,1,,2022-09-22_21h53.41.858,GoFitts,2022.1.4,Win32,59.64451867,,,,
,,,,"[148.45113686692267,-66.09470449981752]","[-158.94898511924342,33.78564975788589]",60.5,325,0,"[136.11114501953125,151.22222900390625,161,164.5555419921875,164.5555419921875,164.5555419921875,164.5555419921875,164.5555419921875,164.5555419921875,164.5555419921875,164.5555419921875,164.5555419921875,164.5555419921875,164.5555419921875,162.77777099609375,153.888916015625,118.33331298828125,81,21.4444580078125,-25.66668701171875,-74.5555419921875,-132.33331298828125,-159.88885498046875]","[-53.333343505859375,-59.555572509765625,-64.88888549804688,-65.77777099609375,-65.77777099609375,-65.77777099609375,-65.77777099609375,-65.77777099609375,-65.77777099609375,-65.77777099609375,-65.77777099609375,-65.77777099609375,-65.77777099609375,-65.77777099609375,-66.66665649414062,-65.77777099609375,-55.111114501953125,-41.77777099609375,-25.77777099609375,-11.555572509765625,-0.888916015625,12.444427490234375,18.666656494140625]","[0,0,0,0,0,0,0,0,0,0,0,0,0,0,0,0,0,0,0,0,0,0,0]","[0,0,0,0,0,0,0,0,0,0,0,0,0,0,0,0,0,0,0,0,0,0,0]","[0,0,0,0,0,0,0,0,0,0,0,0,0,0,0,0,0,0,0,0,0,0,0]","[0.0002999999988819724,0.015899999998509884,0.03259999999962737,0.04959999999962683,0.06539999999850998,0.08139999999851,0.09639999999851057,0.1153999999985107,0.1316999999992543,0.14700000000000024,0.16300000000000026,0.18149999999999977,0.19769999999925503,0.2129999999999992,0.23209999999962783,0.2491999999992558,0.26569999999925464,0.28179999999888317,0.2986999999992541,0.31519999999925474,0.3325999999996281,0.34919999999925544,0.3653999999985107]",,10,0,10,0,1,,2022-09-22_21h53.41.858,GoFitts,2022.1.4,Win32,59.64451867,,,,
,,,,"[-158.94898511924342,33.78564975788589]","[162.5,0]",60.5,325,0,"[-159.88885498046875,-174.111083984375,-183,-185.66668701171875,-188.33331298828125,-191.88885498046875,-195.4444580078125,-197.22222900390625,-197.22222900390625,-199,-199,-201.66665649414062,-204.33334350585938,-207,-208.77777099609375,-208.77777099609375,-208.77777099609375,-206.11111450195312,-202.5555419921875,-193.66668701171875,-170.5555419921875,-130.5555419921875,-68.33331298828125,5.4444580078125,74.77777099609375,130.77783203125,163.66668701171875]","[18.666656494140625,22.22222900390625,24.888885498046875,25.777740478515625,27.5555419921875,30.222198486328125,32,33.77777099609375,33.77777099609375,34.666595458984375,34.666595458984375,34.666595458984375,34.666595458984375,34.666595458984375,34.666595458984375,34.666595458984375,34.666595458984375,34.666595458984375,34.666595458984375,35.5555419921875,35.5555419921875,30.222198486328125,23.111114501953125,11.5555419921875,5.333343505859375,3.555511474609375,0.888885498046875]","[0,0,0,0,0,0,0,0,0,0,0,0,0,0,0,0,0,0,0,0,0,0,0,0,0,0,0]","[0,0,0,0,0,0,0,0,0,0,0,0,0,0,0,0,0,0,0,0,0,0,0,0,0,0,0]","[0,0,0,0,0,0,0,0,0,0,0,0,0,0,0,0,0,0,0,0,0,0,0,0,0,0,0]","[0.0005000000000006111,0.016300000000745385,0.0327000000011175,0.04930000000074486,0.06580000000074548,0.08410000000148976,0.09970000000111767,0.11570000000111769,0.13160000000149097,0.14860000000149043,0.1653000000007463,0.1817000000011184,0.19920000000111848,0.21630000000074467,0.23220000000111796,0.2484000000003732,0.2644000000003732,0.28240000000037213,0.29900000000000126,0.3158000000007455,0.3324999999999996,0.34880000000074496,0.3657000000011177,0.3819999999999997,0.39860000000149043,0.41549999999999976,0.4321000000014905]",,11,0,11,0,1,,2022-09-22_21h53.41.858,GoFitts,2022.1.4,Win32,59.64451867,,,,
,,,,"[162.5,0]","[-158.94898511924342,-33.78564975788585]",60.5,325,0,"[163.66668701171875,180.5555419921875,188.55560302734375,188.55560302734375,188.55560302734375,188.55560302734375,188.55560302734375,188.55560302734375,188.55560302734375,188.55560302734375,188.55560302734375,188.55560302734375,188.55560302734375,188.55560302734375,188.55560302734375,188.55560302734375,188.55560302734375,188.55560302734375,188.55560302734375,188.55560302734375,185,173.4444580078125,149.4444580078125,124.5555419921875,95.2222900390625,60.5555419921875,30.33331298828125,3.66668701171875,-15.88885498046875,-30.111083984375,-44.33331298828125,-55.88885498046875,-68.33331298828125,-79.88885498046875,-97.66668701171875,-119,-126.99993896484375,-130.5555419921875,-131.44439697265625]","[0.888885498046875,-0.888916015625,-1.77777099609375,-1.77777099609375,-1.77777099609375,-1.77777099609375,-1.77777099609375,-1.77777099609375,-1.77777099609375,-1.77777099609375,-1.77777099609375,-1.77777099609375,-1.77777099609375,-1.77777099609375,-1.77777099609375,-1.77777099609375,-1.77777099609375,-1.77777099609375,-1.77777099609375,-2.666656494140625,-3.555572509765625,-8.888885498046875,-17.77777099609375,-24.888885498046875,-32.888885498046875,-37.333343505859375,-39.111114501953125,-41.77777099609375,-44.4444580078125,-46.22222900390625,-48.888885498046875,-48.888885498046875,-49.777801513671875,-49.777801513671875,-48,-46.22222900390625,-45.333404541015625,-44.4444580078125,-44.4444580078125]","[0,0,0,0,0,0,0,0,0,0,0,0,0,0,0,0,0,0,0,0,0,0,0,0,0,0,0,0,0,0,0,0,0,0,0,0,0,0,0]","[0,0,0,0,0,0,0,0,0,0,0,0,0,0,0,0,0,0,0,0,0,0,0,0,0,0,0,0,0,0,0,0,0,0,0,0,0,0,0]","[0,0,0,0,0,0,0,0,0,0,0,0,0,0,0,0,0,0,0,0,0,0,0,0,0,0,0,0,0,0,0,0,0,0,0,0,0,0,0]","[0.0005000000000006111,0.016099999999626746,0.03250000000000064,0.048699999999255894,0.06529999999888325,0.0800999999996268,0.09819999999925422,0.11350000000000016,0.13199999999999967,0.1480999999996282,0.16469999999925555,0.18019999999925496,0.198500000000001,0.21329999999888294,0.23000000000000043,0.24859999999962845,0.2650999999996273,0.28169999999925466,0.2965999999996267,0.3155000000000001,0.3321999999992542,0.3490000000000002,0.3655000000000008,0.3820999999996282,0.39879999999888227,0.4152999999988829,0.4324000000003725,0.44859999999962774,0.46619999999925454,0.4820999999996278,0.4984000000003732,0.5150999999996273,0.5319000000003733,0.5484000000003721,0.5655999999996268,0.5821999999992542,0.5985999999996281,0.6151999999992555,0.6316999999992543]",,12,0,12,0,1,,2022-09-22_21h53.41.858,GoFitts,2022.1.4,Win32,59.64451867,,,,
,,,,"[-158.94898511924342,-33.78564975788585]","[148.45113686692264,66.09470449981752]",60.5,325,0,"[-131.44439697265625,-132.33331298828125,-135.88885498046875,-136.77777099609375,-140.33319091796875,-143.88885498046875,-150.111083984375,-155.4444580078125,-159.88885498046875,-166.111083984375,-170.5555419921875,-170.5555419921875,-170.5555419921875,-170.5555419921875,-170.5555419921875,-169.66668701171875,-163.4444580078125,-141.22222900390625,-101.22222900390625,-41.66668701171875,33.888916015625,115.66668701171875,183.22222900390625,224.11114501953125,251.66668701171875,259.66668701171875,259.66668701171875,259.66668701171875,259.66668701171875,259.66668701171875,259.66668701171875,259.66668701171875,259.66668701171875,258.77777099609375,254.33331298828125,248.11114501953125,239.22222900390625,225.888916015625,209.888916015625,193.888916015625,172.5555419921875]","[-44.4444580078125,-44.4444580078125,-44.4444580078125,-44.4444580078125,-44.4444580078125,-45.333404541015625,-45.333404541015625,-46.22222900390625,-47.111114501953125,-48,-48,-48,-48,-48,-48,-48,-47.111114501953125,-41.77777099609375,-33.77777099609375,-24,-8,5.333343505859375,17.77777099609375,24.888885498046875,32,35.5555419921875,36.444427490234375,36.444427490234375,36.444427490234375,36.444427490234375,36.444427490234375,36.444427490234375,37.333343505859375,39.111083984375,41.77777099609375,43.555511474609375,46.22222900390625,48.888885498046875,51.5555419921875,52.444427490234375,55.111114501953125]","[0,0,0,0,0,0,0,0,0,0,0,0,0,0,0,0,0,0,0,0,0,0,0,0,0,0,0,0,0,0,0,0,0,0,0,0,0,0,0,0,0]","[0,0,0,0,0,0,0,0,0,0,0,0,0,0,0,0,0,0,0,0,0,0,0,0,0,0,0,0,0,0,0,0,0,0,0,0,0,0,0,0,0]","[0,0,0,0,0,0,0,0,0,0,0,0,0,0,0,0,0,0,0,0,0,0,0,0,0,0,0,0,0,0,0,0,0,0,0,0,0,0,0,0,0]","[0.0005000000000006111,0.016699999999255866,0.033599999999628594,0.050699999999254786,0.0662999999988827,0.08290000000037345,0.09950000000000081,0.1161999999992549,0.13279999999888226,0.14949999999999974,0.16600000000000037,0.18219999999925562,0.19709999999962768,0.2151999999992551,0.23040000000037253,0.24940000000037266,0.2664000000003721,0.28259999999962737,0.29929999999888324,0.31609999999962746,0.3324999999999996,0.34919999999925544,0.3659000000003729,0.38279999999888226,0.399400000000373,0.415699999999255,0.4324000000003725,0.448799999998883,0.46509999999962837,0.48140000000037375,0.4981999999992546,0.5150999999996273,0.5320999999996285,0.5491999999992547,0.5657999999988821,0.582199999999256,0.5991999999992554,0.6155999999996276,0.6321999999992549,0.6489000000003724,0.6654999999999998]",,13,0,13,0,1,,2022-09-22_21h53.41.858,GoFitts,2022.1.4,Win32,59.64451867,,,,
,,,,"[148.45113686692264,66.09470449981752]","[-131.46526158592897,-95.51510349752687]",60.5,325,0,"[172.5555419921875,154.77777099609375,147.66668701171875,145.888916015625,145.888916015625,145.888916015625,145.888916015625,145.888916015625,145.888916015625,145.888916015625,145.888916015625,145.888916015625,145.888916015625,145.888916015625,145.888916015625,145.888916015625,145.888916015625,145.888916015625,145.888916015625,142.33331298828125,127.22222900390625,104.11114501953125,79.22222900390625,58.77777099609375,36.5555419921875,16.11114501953125,1,-6.99993896484375,-11.44439697265625,-16.77777099609375,-26.5555419921875,-40.77777099609375,-64.7777099609375,-85.22222900390625,-106.5555419921875]","[55.111114501953125,57.77777099609375,59.5555419921875,59.5555419921875,59.5555419921875,59.5555419921875,59.5555419921875,59.5555419921875,59.5555419921875,59.5555419921875,59.5555419921875,59.5555419921875,59.5555419921875,59.5555419921875,59.5555419921875,59.5555419921875,59.5555419921875,59.5555419921875,59.5555419921875,57.77777099609375,43.555511474609375,24.888885498046875,7.111114501953125,-6.22222900390625,-16.888885498046875,-25.77777099609375,-32.000030517578125,-36.444488525390625,-40,-41.77777099609375,-48,-54.222259521484375,-70.22222900390625,-81.77777099609375,-95.11111450195312]","[0,0,0,0,0,0,0,0,0,0,0,0,0,0,0,0,0,0,0,0,0,0,0,0,0,0,0,0,0,0,0,0,0,0,0]","[0,0,0,0,0,0,0,0,0,0,0,0,0,0,0,0,0,0,0,0,0,0,0,0,0,0,0,0,0,0,0,0,0,0,0]","[0,0,0,0,0,0,0,0,0,0,0,0,0,0,0,0,0,0,0,0,0,0,0,0,0,0,0,0,0,0,0,0,0,0,0]","[0.0004000000003721027,0.016100000001490145,0.03320000000111634,0.04940000000037159,0.06570000000111698,0.08190000000037223,0.09710000000148966,0.11380000000074375,0.1321000000014898,0.14899999999999913,0.1656000000014899,0.18220000000111725,0.19899999999999984,0.2154999999999987,0.23170000000111735,0.2469999999999999,0.2643000000007447,0.2827000000011175,0.29880000000074425,0.3162000000011176,0.33320000000111705,0.3494000000003723,0.3661000000014898,0.38270000000111715,0.3993000000007445,0.4156000000014899,0.43260000000148935,0.4504000000003714,0.46570000000111733,0.4827000000011168,0.4992000000011174,0.516,0.532600000001489,0.5493000000007449,0.5659000000003722]",,14,0,14,0,1,,2022-09-22_21h53.41.858,GoFitts,2022.1.4,Win32,59.64451867,,,,
,,,,,,,,0,,,,,,,,,,,,,,2022-09-22_21h53.41.858,GoFitts,2022.1.4,Win32,59.64451867,0,0,0,1
,,return,1.0425,"[4.5555419921875,80.88888549804688]","[-195.62952014676114,41.58233816355186]",48,400,1,"[4.5555419921875,4.5555419921875,4.5555419921875,4.5555419921875,4.5555419921875,4.5555419921875,4.5555419921875,4.5555419921875,4.5555419921875,4.5555419921875,4.5555419921875,4.5555419921875,4.5555419921875,4.5555419921875,4.5555419921875,4.5555419921875,4.5555419921875,4.5555419921875,4.5555419921875,4.5555419921875,4.5555419921875,4.5555419921875,4.5555419921875,4.5555419921875,4.5555419921875,4.5555419921875,4.5555419921875,4.5555419921875,4.5555419921875,4.5555419921875,4.5555419921875,4.5555419921875,-0.77777099609375,-24.7777099609375,-48.77777099609375,-65.66668701171875,-76.33331298828125,-87.88885498046875,-103.88885498046875,-119.88885498046875,-132.33331298828125,-139.4444580078125,-146.5555419921875,-159.88885498046875,-171.4444580078125,-183.88885498046875,-187.4444580078125]","[80.88888549804688,80.88888549804688,80.88888549804688,80.88888549804688,80.88888549804688,80.88888549804688,80.88888549804688,80.88888549804688,80.88888549804688,80.88888549804688,80.88888549804688,80.88888549804688,80.88888549804688,80.88888549804688,80.88888549804688,80.88888549804688,80.88888549804688,80.88888549804688,80.88888549804688,80.88888549804688,80.88888549804688,80.88888549804688,80.88888549804688,80.88888549804688,80.88888549804688,80.88888549804688,80.88888549804688,80.88888549804688,80.88888549804688,80.88888549804688,80.88888549804688,80.88888549804688,77.33334350585938,64,51.5555419921875,44.444427490234375,40,36.444427490234375,32,27.5555419921875,26.666656494140625,24.888885498046875,24.888885498046875,23.111114501953125,22.22222900390625,20.444427490234375,19.5555419921875]","[0,0,0,0,0,0,0,0,0,0,0,0,0,0,0,0,0,0,0,0,0,0,0,0,0,0,0,0,0,0,0,0,0,0,0,0,0,0,0,0,0,0,0,0,0,0,0]","[0,0,0,0,0,0,0,0,0,0,0,0,0,0,0,0,0,0,0,0,0,0,0,0,0,0,0,0,0,0,0,0,0,0,0,0,0,0,0,0,0,0,0,0,0,0,0]","[0,0,0,0,0,0,0,0,0,0,0,0,0,0,0,0,0,0,0,0,0,0,0,0,0,0,0,0,0,0,0,0,0,0,0,0,0,0,0,0,0,0,0,0,0,0,0]","[0.0015999999996267888,0.014900000000373836,0.030599999999626704,0.046699999999255226,0.06359999999962795,0.08029999999888204,0.09690000000037458,0.1116999999992565,0.12840000000037222,0.14690000000037173,0.16340000000037236,0.18019999999925673,0.1964000000003736,0.21290000000037423,0.228199999999255,0.24659999999962778,0.2630000000000017,0.2801999999992546,0.2966999999992552,0.31319999999925585,0.3280999999996297,0.3465999999996292,0.36140000000037276,0.38000000000000256,0.39490000000037284,0.4126999999992549,0.42969999999925435,0.44669999999925736,0.4630999999996277,0.47940000000037486,0.4962999999988824,0.5131999999992551,0.5304000000003732,0.5466999999992552,0.5634000000003745,0.5801999999992553,0.5966999999992559,0.6132999999988833,0.6304000000003747,0.6467999999988834,0.663299999998884,0.6806999999992556,0.6970000000000027,0.7140000000000022,0.7310999999996284,0.7467999999988848,0.7634000000003738]",,0,0,0,0,1,,2022-09-22_21h53.41.858,GoFitts,2022.1.4,Win32,59.64451867,,,,
,,,,"[-195.62952014676114,41.58233816355186]","[200,0]",48,400,1,"[-187.4444580078125,-189.22222900390625,-190.111083984375,-192.77777099609375,-194.5555419921875,-196.33331298828125,-198.111083984375,-199.88888549804688,-201.66665649414062,-202.5555419921875,-203.44442749023438,-203.44442749023438,-203.44442749023438,-203.44442749023438,-203.44442749023438,-203.44442749023438,-202.5555419921875,-183,-150.111083984375,-99.4444580078125,-30.111083984375,38.33331298828125,105,145,171.66668701171875,189.4444580078125,191.22222900390625,193.00006103515625,193.888916015625,194.77777099609375,194.77777099609375,195.66668701171875,195.66668701171875,195.66668701171875,195.66668701171875,197.44451904296875,198.33331298828125,201,205.4444580078125]","[19.5555419921875,19.5555419921875,19.5555419921875,19.5555419921875,19.5555419921875,19.5555419921875,19.5555419921875,21.33331298828125,23.111114501953125,25.777740478515625,27.5555419921875,28.444427490234375,28.444427490234375,28.444427490234375,28.444427490234375,28.444427490234375,28.444427490234375,28.444427490234375,24.888885498046875,9.77777099609375,-8,-24.888885498046875,-35.555572509765625,-38.22222900390625,-40,-40,-40,-40,-40,-40,-39.111114501953125,-39.111114501953125,-38.22222900390625,-38.22222900390625,-38.22222900390625,-37.333343505859375,-35.555572509765625,-29.333343505859375,-21.333343505859375]","[0,0,0,0,0,0,0,0,0,0,0,0,0,0,0,0,0,0,0,0,0,0,0,0,0,0,0,0,0,0,0,0,0,0,0,0,0,0,0]","[0,0,0,0,0,0,0,0,0,0,0,0,0,0,0,0,0,0,0,0,0,0,0,0,0,0,0,0,0,0,0,0,0,0,0,0,0,0,0]","[0,0,0,0,0,0,0,0,0,0,0,0,0,0,0,0,0,0,0,0,0,0,0,0,0,0,0,0,0,0,0,0,0,0,0,0,0,0,0]","[0.0006000000014907414,0.016100000001490145,0.03260000000149077,0.04910000000148784,0.06599999999999895,0.08240000000037284,0.09920000000111528,0.1164999999999985,0.1329000000003724,0.14949999999999974,0.16600000000000037,0.18220000000111725,0.1986000000014876,0.21360000000148816,0.22990000000037014,0.24849999999999994,0.26440000000037145,0.28260000000149077,0.2989999999999995,0.3159000000003722,0.33230000000074256,0.3489000000003699,0.36580000000074264,0.38230000000074327,0.3993000000007427,0.4161000000014887,0.43260000000148935,0.44899999999999807,0.4656000000014906,0.4823000000007447,0.49870000000111503,0.5156000000014878,0.5319000000003733,0.5482000000011169,0.5643000000007454,0.5805000000000007,0.5986000000014897,0.6155000000000008,0.6319000000003712]",,1,0,1,0,1,,2022-09-22_21h53.41.858,GoFitts,2022.1.4,Win32,59.64451867,,,,
,,,,"[200,0]","[-195.62952014676114,-41.58233816355181]",48,400,1,"[205.4444580078125,209,211.66668701171875,212.5555419921875,213.4444580078125,213.4444580078125,213.4444580078125,213.4444580078125,213.4444580078125,213.4444580078125,213.4444580078125,213.4444580078125,213.4444580078125,213.4444580078125,213.4444580078125,213.4444580078125,213.4444580078125,213.4444580078125,213.4444580078125,213.4444580078125,199.22222900390625,176.11114501953125,153.00006103515625,122.77777099609375,77.44451904296875,27.66668701171875,-13.22222900390625,-45.22222900390625,-71.88885498046875,-98.5555419921875,-123.4444580078125,-146.5555419921875,-167.88885498046875,-183,-197.22222900390625,-209.66665649414062,-210.5555419921875,-211.44442749023438,-211.44442749023438,-211.44442749023438,-211.44442749023438,-211.44442749023438,-211.44442749023438,-211.44442749023438,-211.44442749023438]","[-21.333343505859375,-10.666656494140625,-4.4444580078125,0,1.77777099609375,2.666656494140625,2.666656494140625,2.666656494140625,2.666656494140625,2.666656494140625,2.666656494140625,2.666656494140625,2.666656494140625,2.666656494140625,2.666656494140625,2.666656494140625,2.666656494140625,2.666656494140625,2.666656494140625,2.666656494140625,3.555511474609375,6.22222900390625,9.77777099609375,8.888885498046875,5.333343505859375,0,-6.22222900390625,-9.777801513671875,-10.666656494140625,-10.666656494140625,-10.666656494140625,-12.4444580078125,-12.4444580078125,-13.333343505859375,-16,-17.77777099609375,-17.77777099609375,-18.66668701171875,-18.66668701171875,-18.66668701171875,-18.66668701171875,-18.66668701171875,-19.555572509765625,-21.333343505859375,-24]","[0,0,0,0,0,0,0,0,0,0,0,0,0,0,0,0,0,0,0,0,0,0,0,0,0,0,0,0,0,0,0,0,0,0,0,0,0,0,0,0,0,0,0,0,0]","[0,0,0,0,0,0,0,0,0,0,0,0,0,0,0,0,0,0,0,0,0,0,0,0,0,0,0,0,0,0,0,0,0,0,0,0,0,0,0,0,0,0,0,0,0]","[0,0,0,0,0,0,0,0,0,0,0,0,0,0,0,0,0,0,0,0,0,0,0,0,0,0,0,0,0,0,0,0,0,0,0,0,0,0,0,0,0,0,0,0,0]","[0.00029999999888374873,0.016199999999255255,0.03259999999962915,0.049199999999256505,0.06609999999962923,0.08229999999888449,0.09850000000000136,0.11459999999962989,0.12979999999888392,0.14809999999962997,0.1650000000000027,0.1816999999992568,0.1984000000003725,0.21499999999999986,0.23109999999962838,0.24640000000037432,0.26319999999925514,0.27969999999925577,0.2981999999992553,0.3132999999988826,0.3317999999988821,0.3495999999996293,0.3652999999988822,0.38200000000000145,0.3985000000000021,0.41550000000000153,0.43200000000000216,0.448799999998883,0.4651999999992569,0.48179999999888423,0.49849999999999994,0.5152999999988843,0.5322999999988838,0.5486999999992577,0.5651999999992547,0.5820000000000007,0.5985000000000014,0.6149000000003753,0.6310999999996305,0.6459000000003741,0.6640999999996282,0.681199999999258,0.6982999999988841,0.7149000000003731,0.7315000000000005]",,2,0,2,0,1,,2022-09-22_21h53.41.858,GoFitts,2022.1.4,Win32,59.64451867,,,,
,,,,"[-195.62952014676114,-41.58233816355181]","[182.70909152852016,81.34732861516002]",48,400,1,"[-211.44442749023438,-210.5555419921875,-210.5555419921875,-210.5555419921875,-210.5555419921875,-210.5555419921875,-208.77777099609375,-208.77777099609375,-208.77777099609375,-208.77777099609375,-208.77777099609375,-208.77777099609375,-208.77777099609375,-208.77777099609375,-208.77777099609375,-208.77777099609375,-204.33334350585938,-186.5555419921875,-156.33331298828125,-96.77777099609375,-22.111083984375,121,200.11114501953125,254.33331298828125,281.888916015625,298.77777099609375,300.5555419921875,300.5555419921875,300.5555419921875,301.4444580078125,301.4444580078125,302.33331298828125,302.33331298828125,303.22222900390625,303.22222900390625,302.33331298828125,297,292.5555419921875,282.77777099609375,266.77777099609375,246.33331298828125,221.4444580078125,196.5555419921875]","[-24,-26.666656494140625,-28.4444580078125,-29.333343505859375,-30.22222900390625,-30.22222900390625,-30.22222900390625,-30.22222900390625,-30.22222900390625,-30.22222900390625,-30.22222900390625,-30.22222900390625,-30.22222900390625,-30.22222900390625,-30.22222900390625,-30.22222900390625,-29.333343505859375,-26.666656494140625,-20.4444580078125,-10.666656494140625,2.666656494140625,29.333343505859375,45.333343505859375,60.444427490234375,71.11111450195312,80.88888549804688,81.77777099609375,82.66665649414062,82.66665649414062,83.55551147460938,83.55551147460938,86.22222900390625,87.11111450195312,87.99996948242188,89.77777099609375,91.5555419921875,93.33334350585938,93.33334350585938,93.33334350585938,93.33334350585938,93.33334350585938,91.5555419921875,90.66665649414062]","[0,0,0,0,0,0,0,0,0,0,0,0,0,0,0,0,0,0,0,0,0,0,0,0,0,0,0,0,0,0,0,0,0,0,0,0,0,0,0,0,0,0,0]","[0,0,0,0,0,0,0,0,0,0,0,0,0,0,0,0,0,0,0,0,0,0,0,0,0,0,0,0,0,0,0,0,0,0,0,0,0,0,0,0,0,0,0]","[0,0,0,0,0,0,0,0,0,0,0,0,0,0,0,0,0,0,0,0,0,0,0,0,0,0,0,0,0,0,0,0,0,0,0,0,0,0,0,0,0,0,0]","[0.0005999999996255667,0.01609999999962497,0.032900000000370966,0.04969999999925179,0.06599999999999895,0.08229999999888093,0.09890000000036991,0.11569999999925429,0.13179999999887926,0.1470999999996252,0.16549999999999798,0.18179999999887997,0.19879999999887943,0.2134999999999998,0.23190000000037259,0.2482999999988813,0.26429999999887954,0.28249999999999886,0.2990999999996262,0.3160999999996257,0.3324999999999996,0.34919999999925366,0.3656999999992543,0.382599999999627,0.39909999999962764,0.41629999999888057,0.43269999999925446,0.4486999999992527,0.46499999999999986,0.4819999999999993,0.4982999999988813,0.514999999999997,0.5319000000003697,0.5487999999988808,0.5654000000003698,0.5829999999999984,0.5994000000003723,0.6156999999992543,0.63240000000037,0.6485999999996253,0.6652999999988793,0.6819000000003719,0.6984000000003725]",,3,0,3,0,1,,2022-09-22_21h53.41.858,GoFitts,2022.1.4,Win32,59.64451867,,,,
,,,,"[182.70909152852016,81.34732861516002]","[-161.80339887498948,-117.5570504584946]",48,400,1,"[196.5555419921875,177,169,169,169,169,169,169,169,169,169,169,169,169,169,170.77783203125,170.77783203125,171.66668701171875,171.66668701171875,171.66668701171875,163.66668701171875,140.5555419921875,110.33331298828125,57.888916015625,17.888916015625,-12.33331298828125,-37.22222900390625,-47.88885498046875,-57.66668701171875,-68.33331298828125,-80.77777099609375,-98.5555419921875,-118.11102294921875,-138.5555419921875,-158.111083984375,-175.88885498046875,-183.88885498046875,-184.77777099609375,-184.77777099609375,-184.77777099609375,-184.77777099609375,-184.77777099609375,-184.77777099609375,-184.77777099609375,-184.77777099609375,-184.77777099609375,-184.77777099609375,-184.77777099609375,-184.77777099609375,-184.77777099609375,-184.77777099609375,-184.77777099609375,-183,-182.111083984375,-176.77777099609375,-173.22222900390625,-167]","[90.66665649414062,88.88888549804688,87.11111450195312,87.11111450195312,87.11111450195312,87.11111450195312,87.11111450195312,87.11111450195312,87.11111450195312,87.11111450195312,87.11111450195312,87.11111450195312,87.11111450195312,87.11111450195312,87.11111450195312,87.11111450195312,87.11111450195312,87.11111450195312,87.11111450195312,86.22222900390625,77.33334350585938,57.77777099609375,30.222198486328125,-8.888885498046875,-38.22222900390625,-54.222259521484375,-66.66665649414062,-72,-75.55557250976562,-79.11111450195312,-82.66665649414062,-82.66665649414062,-85.33334350585938,-85.33334350585938,-88,-90.66665649414062,-91.55557250976562,-92.4444580078125,-92.4444580078125,-92.4444580078125,-92.4444580078125,-92.4444580078125,-92.4444580078125,-92.4444580078125,-93.33334350585938,-93.33334350585938,-93.33334350585938,-95.11111450195312,-95.11111450195312,-95.11111450195312,-95.11111450195312,-95.11111450195312,-95.11111450195312,-95.11111450195312,-95.11111450195312,-94.22222900390625,-94.22222900390625]","[0,0,0,0,0,0,0,0,0,0,0,0,0,0,0,0,0,0,0,0,0,0,0,0,0,0,0,0,0,0,0,0,0,0,0,0,0,0,0,0,0,0,0,0,0,0,0,0,0,0,0,0,0,0,0,0,0]","[0,0,0,0,0,0,0,0,0,0,0,0,0,0,0,0,0,0,0,0,0,0,0,0,0,0,0,0,0,0,0,0,0,0,0,0,0,0,0,0,0,0,0,0,0,0,0,0,0,0,0,0,0,0,0,0,0]","[0,0,0,0,0,0,0,0,0,0,0,0,0,0,0,0,0,0,0,0,0,0,0,0,0,0,0,0,0,0,0,0,0,0,0,0,0,0,0,0,0,0,0,0,0,0,0,0,0,0,0,0,0,0,0,0,0]","[0.0006000000014907414,0.01630000000074716,0.03290000000037452,0.04920000000111813,0.06530000000074665,0.08250000000000313,0.09740000000037341,0.1138000000007473,0.1322000000011201,0.1490000000000009,0.16530000000074807,0.18200000000000216,0.1989000000003749,0.21370000000111844,0.23210000000149122,0.24940000000037443,0.26550000000000296,0.28210000000149194,0.298800000000746,0.31450000000000244,0.3327000000011182,0.3494000000003723,0.36570000000111946,0.3829000000003724,0.3997000000011184,0.41600000000000037,0.43299999999999983,0.44920000000112026,0.46590000000037435,0.4825000000000017,0.49900000000000233,0.5156000000014913,0.5324000000003757,0.5489000000003728,0.565600000001492,0.5824000000003728,0.5989000000003735,0.6156000000014927,0.631800000000748,0.6484000000003753,0.6652000000011178,0.6820000000000022,0.6983000000007458,0.7149000000003731,0.7318000000007459,0.7483000000007465,0.7648000000007471,0.7814000000003745,0.7982000000011205,0.8148000000007478,0.8314000000003752,0.8478000000007455,0.8656000000014927,0.8827000000011189,0.9015000000000022,0.9158000000007469,0.9327000000011196]",,4,0,4,0,1,,2022-09-22_21h53.41.858,GoFitts,2022.1.4,Win32,59.64451867,,,,
,,,,"[-161.80339887498948,-117.5570504584946]","[133.82612127177165,148.62896509547886]",48,400,1,"[-167,-163.4444580078125,-162.5555419921875,-161.66668701171875,-161.66668701171875,-160.77777099609375,-159.88885498046875,-159.88885498046875,-159.88885498046875,-159.88885498046875,-159.88885498046875,-159.88885498046875,-159.88885498046875,-159.88885498046875,-159.88885498046875,-158.111083984375,-138.5555419921875,-113.6666259765625,-66.5555419921875,-11.44439697265625,31.22222900390625,54.33331298828125,65.888916015625,70.33331298828125,72.11114501953125,73.00006103515625,76.5555419921875,77.44451904296875,79.22222900390625,81,82.77777099609375,88.11114501953125,97.888916015625,101.4444580078125,102.33331298828125,102.33331298828125,102.33331298828125,102.33331298828125,102.33331298828125,102.33331298828125,104.11114501953125,104.11114501953125,105,106.77777099609375,107.66668701171875,110.33331298828125]","[-94.22222900390625,-94.22222900390625,-94.22222900390625,-94.22222900390625,-94.22222900390625,-96,-96.88888549804688,-97.77777099609375,-101.33334350585938,-104,-104.88888549804688,-105.77777099609375,-105.77777099609375,-105.77777099609375,-105.77777099609375,-104.88888549804688,-80,-49.777801513671875,-3.555572509765625,47.111114501953125,85.33334350585938,105.77774047851562,116.44442749023438,119.11111450195312,121.77777099609375,123.5555419921875,126.22222900390625,128,129.77777099609375,130.66665649414062,131.5555419921875,136,144,146.6666717529297,147.55555725097656,147.55555725097656,147.55555725097656,147.55555725097656,147.55555725097656,147.55555725097656,147.55555725097656,147.55555725097656,147.55555725097656,147.55555725097656,148.44444274902344,148.44444274902344]","[0,0,0,0,0,0,0,0,0,0,0,0,0,0,0,0,0,0,0,0,0,0,0,0,0,0,0,0,0,0,0,0,0,0,0,0,0,0,0,0,0,0,0,0,0,0]","[0,0,0,0,0,0,0,0,0,0,0,0,0,0,0,0,0,0,0,0,0,0,0,0,0,0,0,0,0,0,0,0,0,0,0,0,0,0,0,0,0,0,0,0,0,0]","[0,0,0,0,0,0,0,0,0,0,0,0,0,0,0,0,0,0,0,0,0,0,0,0,0,0,0,0,0,0,0,0,0,0,0,0,0,0,0,0,0,0,0,0,0,0]","[0.0004999999999988347,0.015200000001115654,0.03149999999999764,0.048200000001116905,0.06440000000037216,0.08090000000037278,0.09820000000111762,0.11480000000074497,0.1317000000011177,0.14820000000111477,0.16490000000037242,0.18149999999999977,0.19759999999962474,0.2137000000011149,0.22949999999999804,0.24659999999962423,0.2649000000003703,0.2815999999996244,0.29830000000074364,0.31480000000074426,0.3313000000007449,0.34780000000074196,0.3644000000003693,0.38149999999999906,0.3979000000003694,0.41449999999999676,0.43130000000074276,0.44770000000111665,0.464300000000744,0.48149999999999693,0.4980999999996243,0.5147000000011168,0.5313000000007442,0.5477000000011145,0.5643000000007419,0.5804999999999971,0.5967000000011176,0.6118000000007449,0.629999999999999,0.6465999999996264,0.6627000000011165,0.6803000000007451,0.6972000000011178,0.7139999999999986,0.7309000000003714,0.7478000000007441]",,5,0,5,0,1,,2022-09-22_21h53.41.858,GoFitts,2022.1.4,Win32,59.64451867,,,,
,,,,"[133.82612127177165,148.62896509547886]","[-100.00000000000009,-173.2050807568877]",48,400,1,"[110.33331298828125,112.11114501953125,113.888916015625,113.888916015625,113.888916015625,113.888916015625,113.888916015625,113.888916015625,113.888916015625,113.888916015625,115.66668701171875,117.44451904296875,119.22222900390625,122.77777099609375,122.77777099609375,122.77777099609375,122.77777099609375,118.33331298828125,99.66680908203125,78.33331298828125,49.888916015625,18.77777099609375,-9.66668701171875,-30.111083984375,-42.55548095703125,-54.111083984375,-58.5555419921875,-62.111083984375,-63,-64.7777099609375,-64.7777099609375,-66.5555419921875,-67.4444580078125,-68.33331298828125,-71.88885498046875,-74.5555419921875,-78.11102294921875,-79.88885498046875,-80.77777099609375,-81.66668701171875,-81.66668701171875,-82.55548095703125,-83.4444580078125,-83.4444580078125,-83.4444580078125,-83.4444580078125,-85.22222900390625,-85.22222900390625,-85.22222900390625]","[148.44444274902344,149.3333282470703,149.3333282470703,149.3333282470703,149.3333282470703,149.3333282470703,149.3333282470703,149.3333282470703,149.3333282470703,149.3333282470703,150.2222137451172,150.2222137451172,151.11111450195312,151.11111450195312,151.11111450195312,151.11111450195312,151.11111450195312,144,116.44442749023438,87.99996948242188,47.999969482421875,1.77777099609375,-44.4444580078125,-76.4444580078125,-96.88888549804688,-113.77777099609375,-127.11114501953125,-133.33331298828125,-136.888916015625,-141.33331298828125,-144.888916015625,-147.5555419921875,-151.11114501953125,-156.4444580078125,-162.66668701171875,-173.33331298828125,-184.00006103515625,-189.33331298828125,-191.11114501953125,-191.11114501953125,-191.11114501953125,-192.88897705078125,-192.88897705078125,-192.88897705078125,-192.88897705078125,-192.88897705078125,-192.88897705078125,-192.88897705078125,-191.11114501953125]","[0,0,0,0,0,0,0,0,0,0,0,0,0,0,0,0,0,0,0,0,0,0,0,0,0,0,0,0,0,0,0,0,0,0,0,0,0,0,0,0,0,0,0,0,0,0,0,0,0]","[0,0,0,0,0,0,0,0,0,0,0,0,0,0,0,0,0,0,0,0,0,0,0,0,0,0,0,0,0,0,0,0,0,0,0,0,0,0,0,0,0,0,0,0,0,0,0,0,0]","[0,0,0,0,0,0,0,0,0,0,0,0,0,0,0,0,0,0,0,0,0,0,0,0,0,0,0,0,0,0,0,0,0,0,0,0,0,0,0,0,0,0,0,0,0,0,0,0,0]","[0.0005000000000023874,0.015799999998883152,0.03459999999962804,0.0555000000000021,0.06529999999888147,0.08190000000037401,0.09850000000000136,0.11529999999888219,0.13229999999888165,0.1485999999996288,0.16550000000000153,0.18240000000037426,0.2005999999996284,0.2224000000003734,0.23219999999925633,0.2480000000000011,0.26359999999962724,0.28219999999925705,0.29890000000037276,0.3154000000003734,0.331900000000374,0.3485999999996281,0.3654000000003741,0.3816999999992561,0.3985000000000021,0.41519999999925616,0.43200000000000216,0.4484000000003725,0.4652999999988836,0.4819999999999993,0.4985999999996267,0.5150999999996273,0.5317999999988814,0.5485999999996274,0.565099999999628,0.5815000000000019,0.5982999999988827,0.615000000000002,0.6315999999996293,0.6480999999996264,0.6644000000003736,0.6801999999992567,0.6980000000000004,0.7142999999988824,0.7289999999999992,0.7475000000000023,0.7641999999992564,0.7807999999988837,0.7969000000003739]",,6,0,6,0,1,,2022-09-22_21h53.41.858,GoFitts,2022.1.4,Win32,59.64451867,,,,
,,,,"[-100.00000000000009,-173.2050807568877]","[61.80339887498949,190.2113032590307]",48,400,1,"[-85.22222900390625,-82.55548095703125,-76.33331298828125,-66.5555419921875,-58.5555419921875,-49.66668701171875,-44.33331298828125,-40.77777099609375,-34.5555419921875,-30.111083984375,-23,-15.88885498046875,-9.66668701171875,5.4444580078125,13.4444580078125,21.4444580078125,25.888916015625,30.33331298828125,32.11114501953125,33.888916015625,34.77777099609375,34.77777099609375,36.5555419921875,37.44451904296875,38.33331298828125]","[-191.11114501953125,-163.5555419921875,-131.5555419921875,-89.77777099609375,-54.222259521484375,-24.888885498046875,-9.777801513671875,4.444427490234375,23.111114501953125,42.666656494140625,62.22222900390625,80.88888549804688,97.77777099609375,129.77777099609375,146.6666717529297,160,168,173.3333282470703,177.77777099609375,179.5555419921875,181.3333282470703,181.3333282470703,183.99998474121094,186.6666717529297,188.44442749023438]","[0,0,0,0,0,0,0,0,0,0,0,0,0,0,0,0,0,0,0,0,0,0,0,0,0]","[0,0,0,0,0,0,0,0,0,0,0,0,0,0,0,0,0,0,0,0,0,0,0,0,0]","[0,0,0,0,0,0,0,0,0,0,0,0,0,0,0,0,0,0,0,0,0,0,0,0,0]","[0.00039999999851048074,0.017199999999256477,0.0336999999992571,0.05059999999962628,0.06719999999925363,0.08379999999888454,0.10029999999888162,0.11700000000000088,0.13369999999925497,0.15039999999850906,0.1670000000000016,0.18409999999962778,0.20039999999850977,0.21759999999962787,0.2343999999985087,0.25029999999888375,0.2668999999985111,0.28339999999851173,0.30009999999962744,0.31679999999888153,0.3335000000000008,0.34949999999999903,0.3652999999988822,0.38359999999962824,0.40079999999888116]",,7,0,7,0,1,,2022-09-22_21h53.41.858,GoFitts,2022.1.4,Win32,59.64451867,,,,
,,,,"[61.80339887498949,190.2113032590307]","[-20.905692653530846,-198.90437907365467]",48,400,1,"[38.33331298828125,41,41.88897705078125,43.66668701171875,44.5555419921875,46.3333740234375,48.11114501953125,48.11114501953125,49,49,49,49,49,49,49,48.11114501953125,44.5555419921875,41.88897705078125,37.44451904296875,32.11114501953125,24.11114501953125,19.66680908203125,15.2222900390625,12.5555419921875,9.888916015625,7.22222900390625,5.4444580078125,5.4444580078125,4.5555419921875,3.66668701171875,2.77777099609375,2.77777099609375,1.88897705078125,0.11114501953125,-0.77777099609375,-1.66668701171875]","[188.44442749023438,191.11111450195312,194.6666717529297,196.44444274902344,199.11111450195312,202.6666717529297,203.55555725097656,203.55555725097656,205.3333282470703,205.3333282470703,205.3333282470703,205.3333282470703,205.3333282470703,201.7777557373047,192.8888702392578,177.77777099609375,154.6666717529297,127.11111450195312,90.66665649414062,54.22222900390625,4.444427490234375,-24,-45.333404541015625,-64.88888549804688,-84.4444580078125,-100.4444580078125,-121.77777099609375,-136.888916015625,-147.5555419921875,-156.4444580078125,-163.5555419921875,-170.66680908203125,-176.888916015625,-182.22222900390625,-184.888916015625,-189.33331298828125]","[0,0,0,0,0,0,0,0,0,0,0,0,0,0,0,0,0,0,0,0,0,0,0,0,0,0,0,0,0,0,0,0,0,0,0,0]","[0,0,0,0,0,0,0,0,0,0,0,0,0,0,0,0,0,0,0,0,0,0,0,0,0,0,0,0,0,0,0,0,0,0,0,0]","[0,0,0,0,0,0,0,0,0,0,0,0,0,0,0,0,0,0,0,0,0,0,0,0,0,0,0,0,0,0,0,0,0,0,0,0]","[0.0006999999992522987,0.01609999999962497,0.03249999999999886,0.048599999999627386,0.06489999999850937,0.08189999999850883,0.09839999999850946,0.1144999999999996,0.1302999999988792,0.1479999999999997,0.16449999999999676,0.17959999999962406,0.19769999999925147,0.21429999999888238,0.23179999999888068,0.2480999999996243,0.264999999999997,0.2818999999985081,0.298299999998882,0.3148999999985094,0.3317999999988821,0.3484999999999978,0.36489999999850653,0.38179999999887926,0.3979999999999997,0.41459999999962704,0.4314999999999998,0.44799999999999685,0.4643999999985091,0.48119999999925156,0.4978999999985092,0.5144999999999982,0.5311999999992523,0.5478999999985099,0.5647999999988791,0.581199999999253]",,8,0,8,0,1,,2022-09-22_21h53.41.858,GoFitts,2022.1.4,Win32,59.64451867,,,,
,,,,"[-20.905692653530846,-198.90437907365467]","[-20.905692653530668,198.90437907365467]",48,400,1,"[-1.66668701171875,-3.4444580078125,-6.111083984375,-7.88885498046875,-9.66668701171875,-9.66668701171875,-10.5555419921875,-10.5555419921875,-11.44439697265625,-12.33331298828125,-13.22222900390625,-14.111083984375,-17.66668701171875,-21.22222900390625,-25.66668701171875,-31,-33.6666259765625,-37.22222900390625,-40.77777099609375,-44.33331298828125,-46.99993896484375,-46.99993896484375,-46.99993896484375,-45.22222900390625,-44.33331298828125,-41.66668701171875,-39,-35.4444580078125,-35.4444580078125,-33.6666259765625,-33.6666259765625,-32.77777099609375,-30.111083984375,-29.22216796875,-28.33331298828125,-27.4444580078125,-26.5555419921875,-24.7777099609375]","[-189.33331298828125,-200,-208.888916015625,-215.11114501953125,-220.4444580078125,-221.33331298828125,-222.22222900390625,-222.22222900390625,-224.00006103515625,-224.00006103515625,-224.888916015625,-224.888916015625,-224.888916015625,-224.888916015625,-221.33331298828125,-200,-164.4444580078125,-126.22222900390625,-44.4444580078125,-0.888916015625,27.5555419921875,47.111114501953125,62.22222900390625,74.66659545898438,88.88888549804688,103.11111450195312,114.66659545898438,133.33334350585938,137.77777099609375,141.33334350585938,144.88888549804688,147.55555725097656,154.6666717529297,160.88888549804688,164.44444274902344,168,170.6666717529297,176]","[0,0,0,0,0,0,0,0,0,0,0,0,0,0,0,0,0,0,0,0,0,0,0,0,0,0,0,0,0,0,0,0,0,0,0,0,0,0]","[0,0,0,0,0,0,0,0,0,0,0,0,0,0,0,0,0,0,0,0,0,0,0,0,0,0,0,0,0,0,0,0,0,0,0,0,0,0]","[0,0,0,0,0,0,0,0,0,0,0,0,0,0,0,0,0,0,0,0,0,0,0,0,0,0,0,0,0,0,0,0,0,0,0,0,0,0]","[0.0005000000000023874,0.016400000000373893,0.03290000000037452,0.049500000000001876,0.06609999999962923,0.08259999999962986,0.0994000000003723,0.11530000000074736,0.13140000000037233,0.14919999999925793,0.1658000000007469,0.18240000000037426,0.19900000000000162,0.2156999999992557,0.23309999999962727,0.2500999999996303,0.2660999999996285,0.2825000000000024,0.2990999999996298,0.3155999999996304,0.3323000000007461,0.34880000000074673,0.3654000000003741,0.3821999999992549,0.3989000000003742,0.41530000000074807,0.4321999999992556,0.45000000000000284,0.46590000000037435,0.48219999999925633,0.49869999999925696,0.5155999999996297,0.532199999999257,0.548800000000746,0.5654000000003734,0.5820999999996275,0.5984000000003746,0.6150999999996287]",,9,0,9,0,1,,2022-09-22_21h53.41.858,GoFitts,2022.1.4,Win32,59.64451867,,,,
,,,,"[-20.905692653530668,198.90437907365467]","[61.80339887498945,-190.21130325903073]",48,400,1,"[-24.7777099609375,-22.111083984375,-20.33319091796875,-19.4444580078125,-17.66668701171875,-17.66668701171875,-17.66668701171875,-17.66668701171875,-17.66668701171875,-17.66668701171875,-17.66668701171875,-17.66668701171875,-16.77777099609375,-12.33331298828125,-4.33331298828125,3.66668701171875,11.66668701171875,21.4444580078125,30.33331298828125,40.11114501953125,48.11114501953125,54.33331298828125,57,57,58.77777099609375,59.66680908203125,60.5555419921875,62.33331298828125,62.33331298828125]","[176,182.2222137451172,188.44442749023438,193.77777099609375,197.3332977294922,200,200.88888549804688,200.88888549804688,200.88888549804688,200.88888549804688,200.88888549804688,200.88888549804688,197.3332977294922,175.11109924316406,142.22222900390625,104,63.111114501953125,24.888885498046875,-13.333343505859375,-52.4444580078125,-81.77777099609375,-105.77777099609375,-118.22222900390625,-129.77777099609375,-140.4444580078125,-148.4444580078125,-156.4444580078125,-162.66668701171875,-170.66680908203125]","[0,0,0,0,0,0,0,0,0,0,0,0,0,0,0,0,0,0,0,0,0,0,0,0,0,0,0,0,0]","[0,0,0,0,0,0,0,0,0,0,0,0,0,0,0,0,0,0,0,0,0,0,0,0,0,0,0,0,0]","[0,0,0,0,0,0,0,0,0,0,0,0,0,0,0,0,0,0,0,0,0,0,0,0,0,0,0,0,0]","[0.0004999999999988347,0.016400000000373893,0.03300000000000125,0.04959999999962861,0.0664000000003746,0.08290000000037168,0.09949999999999903,0.1158000000007462,0.13109999999962696,0.14700000000000202,0.16530000000074452,0.18200000000000216,0.199300000000747,0.2160999999996278,0.23280000000074708,0.2491999999992558,0.2660000000000018,0.28259999999962915,0.29930000000074486,0.3158000000007455,0.3326999999992566,0.34949999999999903,0.36599999999999966,0.38280000000074565,0.3995999999996265,0.41600000000000037,0.43280000000074637,0.44909999999962835,0.4656999999992557]",,10,0,10,0,1,,2022-09-22_21h53.41.858,GoFitts,2022.1.4,Win32,59.64451867,,,,
,,,,"[61.80339887498945,-190.21130325903073]","[-99.99999999999996,173.20508075688775]",48,400,1,"[62.33331298828125,62.33331298828125,62.33331298828125,62.33331298828125,62.33331298828125,63.22222900390625,63.22222900390625,63.22222900390625,63.22222900390625,63.22222900390625,63.22222900390625,63.22222900390625,63.22222900390625,63.22222900390625,63.22222900390625,61.4444580078125,51.66668701171875,36.5555419921875,12.5555419921875,-14.111083984375,-45.22222900390625,-64.7777099609375,-82.55548095703125,-94.111083984375]","[-170.66680908203125,-180.4444580078125,-187.5555419921875,-191.11114501953125,-193.77777099609375,-196.4444580078125,-198.22222900390625,-199.11114501953125,-202.66668701171875,-205.33331298828125,-206.2222900390625,-206.2222900390625,-206.2222900390625,-206.2222900390625,-206.2222900390625,-190.22222900390625,-160.888916015625,-107.55557250976562,-36.444488525390625,31.111114501953125,87.11111450195312,122.66665649414062,148.44444274902344,168]","[0,0,0,0,0,0,0,0,0,0,0,0,0,0,0,0,0,0,0,0,0,0,0,0]","[0,0,0,0,0,0,0,0,0,0,0,0,0,0,0,0,0,0,0,0,0,0,0,0]","[0,0,0,0,0,0,0,0,0,0,0,0,0,0,0,0,0,0,0,0,0,0,0,0]","[0.0006000000014907414,0.016100000001490145,0.0327000000011175,0.049400000000375144,0.06590000000037222,0.08270000000111821,0.09950000000000259,0.11590000000037293,0.13310000000149103,0.14960000000149165,0.16590000000037364,0.18220000000111725,0.19860000000149114,0.21490000000037313,0.23010000000149233,0.2493000000007477,0.26590000000037506,0.28240000000037213,0.2991000000014914,0.3159000000003722,0.3323000000007461,0.3494000000003723,0.3666000000014904,0.38280000000074565]",,11,0,11,0,1,,2022-09-22_21h53.41.858,GoFitts,2022.1.4,Win32,59.64451867,,,,
,,,,"[-99.99999999999996,173.20508075688775]","[133.82612127177168,-148.6289650954788]",48,400,1,"[-94.111083984375,-98.5555419921875,-102.111083984375,-103.88885498046875,-104.7777099609375,-105.66668701171875,-105.66668701171875,-106.5555419921875,-106.5555419921875,-106.5555419921875,-106.5555419921875,-106.5555419921875,-106.5555419921875,-106.5555419921875,-106.5555419921875,-106.5555419921875,-106.5555419921875,-106.5555419921875,-103,-98.5555419921875,-90.5555419921875,-75.4444580078125,-54.111083984375,-25.66668701171875,4.5555419921875,36.5555419921875,56.11114501953125,71.22222900390625,81,87.22222900390625,91.66668701171875,97.888916015625,101.4444580078125,105,110.33331298828125,113.888916015625,115.66668701171875]","[168,178.6666717529297,184.88888549804688,188.44442749023438,189.3333282470703,190.2222137451172,190.2222137451172,192,192,192,192,192,192,192,192,192,192,192,191.11111450195312,184.88888549804688,168,143.11111450195312,109.33334350585938,69.33334350585938,26.666656494140625,-8.888885498046875,-33.77777099609375,-56,-71.11111450195312,-80.88888549804688,-91.55557250976562,-101.33334350585938,-109.33334350585938,-114.66668701171875,-125.33331298828125,-130.66668701171875,-133.33331298828125]","[0,0,0,0,0,0,0,0,0,0,0,0,0,0,0,0,0,0,0,0,0,0,0,0,0,0,0,0,0,0,0,0,0,0,0,0,0]","[0,0,0,0,0,0,0,0,0,0,0,0,0,0,0,0,0,0,0,0,0,0,0,0,0,0,0,0,0,0,0,0,0,0,0,0,0]","[0,0,0,0,0,0,0,0,0,0,0,0,0,0,0,0,0,0,0,0,0,0,0,0,0,0,0,0,0,0,0,0,0,0,0,0,0]","[0.0005999999996255667,0.01640000000037034,0.03240000000037213,0.04899999999999949,0.0653000000007431,0.08220000000111582,0.09830000000074435,0.11420000000111585,0.1317000000011177,0.14770000000111594,0.16300000000000026,0.1814000000003695,0.19770000000111665,0.21520000000111494,0.2314000000003702,0.24830000000074293,0.2647000000011168,0.28080000000074534,0.29870000000111574,0.31520000000111636,0.33190000000037045,0.3484999999999978,0.3652000000011171,0.3815999999996258,0.39830000000074506,0.4150999999996259,0.43170000000111486,0.4484000000003725,0.4650999999996266,0.4815000000000005,0.4982000000011162,0.5150999999996273,0.5319000000003697,0.5482000000011169,0.5652000000011164,0.581700000001117,0.5980999999996257]",,12,0,12,0,1,,2022-09-22_21h53.41.858,GoFitts,2022.1.4,Win32,59.64451867,,,,
,,,,"[133.82612127177168,-148.6289650954788]","[-161.80339887498945,117.55705045849464]",48,400,1,"[115.66668701171875,115.66668701171875,116.5555419921875,117.44451904296875,119.22222900390625,120.11114501953125,120.11114501953125,120.11114501953125,120.11114501953125,120.11114501953125,120.11114501953125,120.11114501953125,121.88897705078125,122.77777099609375,123.66668701171875,123.66668701171875,122.77777099609375,117.44451904296875,106.77777099609375,88.11114501953125,61.4444580078125,21.4444580078125,-24.7777099609375,-65.66668701171875,-102.111083984375,-126.99993896484375,-142.111083984375,-151.88885498046875,-155.4444580078125,-160.77777099609375,-161.66668701171875,-163.4444580078125,-165.22222900390625,-166.111083984375,-168.77777099609375,-172.33331298828125,-174.111083984375,-175,-175.88885498046875]","[-133.33331298828125,-133.33331298828125,-135.11114501953125,-136.888916015625,-139.5555419921875,-141.33331298828125,-142.22222900390625,-142.22222900390625,-142.22222900390625,-142.22222900390625,-142.22222900390625,-142.22222900390625,-142.22222900390625,-142.22222900390625,-142.22222900390625,-141.33331298828125,-136.888916015625,-123.5555419921875,-112,-96.88888549804688,-81.77777099609375,-56.888885498046875,-28.4444580078125,-5.333404541015625,16.88885498046875,32,44.444427490234375,51.5555419921875,56.88885498046875,64,65.77774047851562,68.44442749023438,71.11111450195312,73.77777099609375,79.111083984375,87.99996948242188,93.33334350585938,96.88885498046875,100.44442749023438]","[0,0,0,0,0,0,0,0,0,0,0,0,0,0,0,0,0,0,0,0,0,0,0,0,0,0,0,0,0,0,0,0,0,0,0,0,0,0,0]","[0,0,0,0,0,0,0,0,0,0,0,0,0,0,0,0,0,0,0,0,0,0,0,0,0,0,0,0,0,0,0,0,0,0,0,0,0,0,0]","[0,0,0,0,0,0,0,0,0,0,0,0,0,0,0,0,0,0,0,0,0,0,0,0,0,0,0,0,0,0,0,0,0,0,0,0,0,0,0]","[0.0006000000014907414,0.017300000000748383,0.0327000000011175,0.049500000000001876,0.06630000000074787,0.08270000000111821,0.0990000000000002,0.11540000000037409,0.1317000000011177,0.14880000000074745,0.1658000000007469,0.18210000000149051,0.1989000000003749,0.21570000000112088,0.23230000000074824,0.24910000000149068,0.2658000000007483,0.2824000000003757,0.29890000000037276,0.3160000000000025,0.33240000000037284,0.34930000000074557,0.3666000000014904,0.38240000000037355,0.3985000000000021,0.41530000000074807,0.43200000000000216,0.4491000000014935,0.4658000000007476,0.4825000000000017,0.4988000000007453,0.5159000000003751,0.5321000000014919,0.548800000000746,0.5657000000011188,0.5821000000014926,0.5988000000007467,0.6153000000007474,0.631800000000748]",,13,0,13,0,1,,2022-09-22_21h53.41.858,GoFitts,2022.1.4,Win32,59.64451867,,,,
,,,,"[-161.80339887498945,117.55705045849464]","[182.7090915285202,-81.34732861516002]",48,400,1,"[-175.88885498046875,-177.66668701171875,-178.5555419921875,-179.4444580078125,-179.4444580078125,-179.4444580078125,-179.4444580078125,-179.4444580078125,-179.4444580078125,-179.4444580078125,-179.4444580078125,-179.4444580078125,-179.4444580078125,-179.4444580078125,-179.4444580078125,-179.4444580078125,-179.4444580078125,-179.4444580078125,-179.4444580078125,-179.4444580078125,-172.33331298828125,-135.88885498046875,-109.22216796875,-81.66668701171875,-53.22222900390625,-23,5.4444580078125,20.5555419921875,33.00006103515625,46.3333740234375,62.33331298828125,71.22222900390625,79.22222900390625,84.5555419921875,100.5555419921875,105.888916015625,116.5555419921875,121.88897705078125,122.77777099609375,122.77777099609375,123.66668701171875,126.3333740234375,131.66668701171875,140.5555419921875,151.22222900390625,161.88897705078125,177]","[100.44442749023438,107.5555419921875,119.11111450195312,138.66665649414062,147.55555725097656,149.3333282470703,149.3333282470703,149.3333282470703,149.3333282470703,149.3333282470703,149.3333282470703,149.3333282470703,149.3333282470703,149.3333282470703,149.3333282470703,149.3333282470703,149.3333282470703,149.3333282470703,149.3333282470703,149.3333282470703,149.3333282470703,153.77777099609375,154.6666717529297,144,124.44442749023438,102.22222900390625,81.77777099609375,69.33334350585938,60.444427490234375,46.22222900390625,30.222198486328125,22.22222900390625,13.333343505859375,5.333343505859375,-17.77777099609375,-26.666656494140625,-40,-44.4444580078125,-45.333404541015625,-45.333404541015625,-45.333404541015625,-45.333404541015625,-46.22222900390625,-49.777801513671875,-53.333343505859375,-56.888885498046875,-64]","[0,0,0,0,0,0,0,0,0,0,0,0,0,0,0,0,0,0,0,0,0,0,0,0,0,0,0,0,0,0,0,0,0,0,0,0,0,0,0,0,0,0,0,0,0,0,0]","[0,0,0,0,0,0,0,0,0,0,0,0,0,0,0,0,0,0,0,0,0,0,0,0,0,0,0,0,0,0,0,0,0,0,0,0,0,0,0,0,0,0,0,0,0,0,0]","[0,0,0,0,0,0,0,0,0,0,0,0,0,0,0,0,0,0,0,0,0,0,0,0,0,0,0,0,0,0,0,0,0,0,0,0,0,0,0,0,0,0,0,0,0,0,0]","[0.0005999999996291194,0.016400000000373893,0.032900000000370966,0.04949999999999832,0.06650000000000134,0.08280000000074494,0.09919999999925366,0.11519999999925545,0.1304000000003711,0.14690000000037173,0.16580000000074335,0.18190000000037188,0.1970999999996259,0.2150999999996266,0.23159999999962722,0.24690000000037315,0.26490000000037384,0.2801999999992546,0.2985999999996274,0.3136999999992547,0.3331999999992554,0.34949999999999903,0.36599999999999966,0.38280000000074565,0.3991999999992544,0.41580000000074335,0.4321999999992556,0.44890000000037134,0.46580000000074406,0.4823000000007447,0.49890000000037205,0.5158000000007448,0.5333000000007466,0.5496999999992553,0.5658000000007455,0.5825999999996263,0.5993000000007456,0.6158000000007462,0.6321999999992549,0.6483000000007451,0.6655000000000015,0.6820999999996289,0.6984999999999992,0.7153000000007452,0.7321999999992563,0.7495000000000012,0.7669999999999995]",,14,0,14,0,1,,2022-09-22_21h53.41.858,GoFitts,2022.1.4,Win32,59.64451867,,,,
,,,,,,,,1,,,,,,,,,,,,,,2022-09-22_21h53.41.858,GoFitts,2022.1.4,Win32,59.64451867,1,0,0,1
,,return,0.8847,"[-215.88888549804688,84.44442749023438]","[-8.88491937775061,-84.53436110630322]",77.8,170,2,"[-215.88888549804688,-215.88888549804688,-215.88888549804688,-215.88888549804688,-215.88888549804688,-215.88888549804688,-215.88888549804688,-215.88888549804688,-215.88888549804688,-215.88888549804688,-215.88888549804688,-215.88888549804688,-215.88888549804688,-215.88888549804688,-215.88888549804688,-215.88888549804688,-215.88888549804688,-215.88888549804688,-215.88888549804688,-215.88888549804688,-215.88888549804688,-215.88888549804688,-215.88888549804688,-215.88888549804688,-215.88888549804688,-215.88888549804688,-215.88888549804688,-215.88888549804688,-215.88888549804688,-215.88888549804688,-203.44442749023438,-188.33331298828125,-168.77777099609375,-146.5555419921875,-123.4444580078125,-100.33319091796875,-83.4444580078125,-77.22222900390625,-74.5555419921875,-71.88885498046875,-70.111083984375,-68.33331298828125,-67.4444580078125,-66.5555419921875,-65.66668701171875,-57.66668701171875,-39]","[84.44442749023438,84.44442749023438,84.44442749023438,84.44442749023438,84.44442749023438,84.44442749023438,84.44442749023438,84.44442749023438,84.44442749023438,84.44442749023438,84.44442749023438,84.44442749023438,84.44442749023438,84.44442749023438,84.44442749023438,84.44442749023438,84.44442749023438,84.44442749023438,84.44442749023438,84.44442749023438,84.44442749023438,84.44442749023438,84.44442749023438,84.44442749023438,84.44442749023438,84.44442749023438,84.44442749023438,84.44442749023438,84.44442749023438,84.44442749023438,60.444427490234375,31.111114501953125,2.666656494140625,-26.666656494140625,-49.777801513671875,-68.4444580078125,-80,-82.66665649414062,-85.33334350585938,-87.11111450195312,-88.88888549804688,-89.77777099609375,-89.77777099609375,-89.77777099609375,-90.66665649414062,-92.4444580078125,-101.33334350585938]","[0,0,0,0,0,0,0,0,0,0,0,0,0,0,0,0,0,0,0,0,0,0,0,0,0,0,0,0,0,0,0,0,0,0,0,0,0,0,0,0,0,0,0,0,0,0,0]","[0,0,0,0,0,0,0,0,0,0,0,0,0,0,0,0,0,0,0,0,0,0,0,0,0,0,0,0,0,0,0,0,0,0,0,0,0,0,0,0,0,0,0,0,0,0,0]","[0,0,0,0,0,0,0,0,0,0,0,0,0,0,0,0,0,0,0,0,0,0,0,0,0,0,0,0,0,0,0,0,0,0,0,0,0,0,0,0,0,0,0,0,0,0,0]","[0.0014000000003697721,0.014900000000370284,0.03149999999999764,0.048099999999625,0.06459999999962562,0.08129999999887971,0.09790000000037224,0.11459999999962633,0.1311999999992537,0.14790000000037296,0.1645000000000003,0.1811999999992544,0.1979000000003701,0.21449999999999747,0.23109999999962483,0.24769999999925219,0.26440000000037145,0.2809999999999988,0.29759999999962616,0.31440000000037216,0.3309999999999995,0.34750000000000014,0.36419999999925423,0.3810000000000002,0.3974999999999973,0.41419999999925494,0.43090000000037065,0.447499999999998,0.4641999999992521,0.4809999999999981,0.4979000000003708,0.5144999999999982,0.5311999999992523,0.5479000000003715,0.5644999999999989,0.5810999999996262,0.597999999999999,0.614299999998881,0.6310000000000002,0.6476999999992543,0.6642999999988817,0.6809999999999974,0.6977999999988818,0.7147999999988812,0.7309999999999981,0.7474999999999987,0.7642999999988795]",,0,0,0,0,1,,2022-09-22_21h53.41.858,GoFitts,2022.1.4,Win32,59.64451867,,,,
,,,,"[-8.88491937775061,-84.53436110630322]","[-8.884919377750533,84.53436110630324]",77.8,170,2,"[-39,-22.111083984375,-13.22222900390625,-8.77777099609375,-3.4444580078125,1.88897705078125,5.4444580078125,7.22222900390625,7.22222900390625,7.22222900390625,7.22222900390625,7.22222900390625,7.22222900390625,7.22222900390625,6.3333740234375,4.5555419921875,1,-3.4444580078125,-6.99993896484375,-9.66668701171875,-9.66668701171875,-9.66668701171875,-7.88885498046875,-4.33331298828125,-1.66668701171875,1.88897705078125,3.66668701171875,5.4444580078125]","[-101.33334350585938,-107.55557250976562,-108.4444580078125,-110.22222900390625,-111.11111450195312,-113.77777099609375,-115.5555419921875,-116.4444580078125,-116.4444580078125,-116.4444580078125,-116.4444580078125,-116.4444580078125,-116.4444580078125,-116.4444580078125,-116.4444580078125,-112,-104,-95.11111450195312,-82.66665649414062,-73.77777099609375,-59.555572509765625,-35.555572509765625,-12.4444580078125,11.5555419921875,24.888885498046875,36.444427490234375,45.333343505859375,51.5555419921875]","[0,0,0,0,0,0,0,0,0,0,0,0,0,0,0,0,0,0,0,0,0,0,0,0,0,0,0,0]","[0,0,0,0,0,0,0,0,0,0,0,0,0,0,0,0,0,0,0,0,0,0,0,0,0,0,0,0]","[0,0,0,0,0,0,0,0,0,0,0,0,0,0,0,0,0,0,0,0,0,0,0,0,0,0,0,0]","[0.0013000000007430401,0.015999999999998238,0.03309999999962798,0.04919999999925295,0.06630000000074432,0.0825999999996263,0.09890000000036991,0.11559999999962756,0.13180000000074443,0.1484000000003718,0.16509999999962588,0.18169999999925324,0.19830000000074577,0.21499999999999986,0.23209999999962605,0.24890000000037205,0.2654999999999994,0.2829999999999977,0.3009999999999984,0.31730000000074554,0.33209999999962747,0.3484999999999978,0.36519999999925545,0.38180000000074443,0.39859999999962525,0.4151999999992526,0.4319999999999986,0.44859999999962596]",,1,0,1,0,1,,2022-09-22_21h53.41.858,GoFitts,2022.1.4,Win32,59.64451867,,,,
,,,,"[-8.884919377750533,84.53436110630324]","[26.266444521870515,-80.83980388508806]",77.8,170,2,"[5.4444580078125,8.11114501953125,9.888916015625,10.77783203125,11.66668701171875,12.5555419921875,13.4444580078125,14.33331298828125,14.33331298828125,14.33331298828125,14.33331298828125,14.33331298828125,14.33331298828125,14.33331298828125,14.33331298828125,14.33331298828125,14.33331298828125,16.11114501953125,16.11114501953125,17.888916015625,23.22222900390625,30.33331298828125]","[51.5555419921875,56,60.444427490234375,64,67.5555419921875,73.77777099609375,80.88888549804688,83.55551147460938,83.55551147460938,83.55551147460938,83.55551147460938,83.55551147460938,83.55551147460938,83.55551147460938,83.55551147460938,83.55551147460938,71.11111450195312,44.444427490234375,12.444427490234375,-10.666656494140625,-33.77777099609375,-52.4444580078125]","[0,0,0,0,0,0,0,0,0,0,0,0,0,0,0,0,0,0,0,0,0,0]","[0,0,0,0,0,0,0,0,0,0,0,0,0,0,0,0,0,0,0,0,0,0]","[0,0,0,0,0,0,0,0,0,0,0,0,0,0,0,0,0,0,0,0,0,0]","[0.000199999999253464,0.015399999998507496,0.03200000000000003,0.04809999999962855,0.06469999999925591,0.08159999999962508,0.09799999999999898,0.11469999999925307,0.13089999999850832,0.14750000000000085,0.16419999999925494,0.1807999999988823,0.19739999999850966,0.21419999999925565,0.23069999999925273,0.24739999999851037,0.2644999999999982,0.28109999999962554,0.2978999999985099,0.31439999999851054,0.3343999999985101,0.3476999999992536]",,2,0,2,0,1,,2022-09-22_21h53.41.858,GoFitts,2022.1.4,Win32,59.64451867,,,,
,,,,"[26.266444521870515,-80.83980388508806]","[-42.49999999999998,73.6121593216773]",77.8,170,2,"[30.33331298828125,33.888916015625,37.44451904296875,38.33331298828125,41.88897705078125,41.88897705078125,42.77777099609375,43.66668701171875,44.5555419921875,46.3333740234375,46.3333740234375,46.3333740234375,46.3333740234375,46.3333740234375,46.3333740234375,46.3333740234375,46.3333740234375,45.4444580078125,42.77777099609375,38.33331298828125,27.66668701171875,17,9.888916015625,5.4444580078125,2.77777099609375,1.88897705078125,-0.77777099609375,-1.66668701171875,-5.22222900390625]","[-52.4444580078125,-63.111114501953125,-69.33334350585938,-75.55557250976562,-85.33334350585938,-92.4444580078125,-96,-102.22222900390625,-110.22222900390625,-117.33331298828125,-120,-120,-120,-120,-120,-119.11114501953125,-105.77777099609375,-77.33334350585938,-54.222259521484375,-31.111114501953125,-3.555572509765625,16.88885498046875,33.77777099609375,44.444427490234375,49.77777099609375,56.88885498046875,64,66.66665649414062,72.88888549804688]","[0,0,0,0,0,0,0,0,0,0,0,0,0,0,0,0,0,0,0,0,0,0,0,0,0,0,0,0,0]","[0,0,0,0,0,0,0,0,0,0,0,0,0,0,0,0,0,0,0,0,0,0,0,0,0,0,0,0,0]","[0,0,0,0,0,0,0,0,0,0,0,0,0,0,0,0,0,0,0,0,0,0,0,0,0,0,0,0,0]","[0.0012999999988849709,0.01629999999888554,0.03300000000000125,0.04909999999962977,0.06569999999925713,0.08250000000000313,0.0990000000000002,0.11559999999962756,0.13239999999851193,0.14909999999962764,0.165699999999255,0.1816999999992568,0.19839999999851088,0.21499999999999986,0.23159999999963077,0.2487999999988837,0.26550000000000296,0.28219999999925705,0.2987999999988844,0.315299999998885,0.33209999999962747,0.34869999999925483,0.36539999999851247,0.38239999999851193,0.3990000000000009,0.4157999999988853,0.43599999999999994,0.4488999999985097,0.4652999999988836]",,3,0,3,0,1,,2022-09-22_21h53.41.858,GoFitts,2022.1.4,Win32,59.64451867,,,,
,,,,"[-42.49999999999998,73.6121593216773]","[56.87610154050297,-63.16731016557849]",77.8,170,2,"[-5.22222900390625,-6.99993896484375,-8.77777099609375,-10.5555419921875,-13.22222900390625,-14.111083984375,-14.111083984375,-14.111083984375,-15,-15.88885498046875,-16.77777099609375,-18.5555419921875,-21.22222900390625,-24.7777099609375,-25.66668701171875,-24.7777099609375,-14.111083984375,-3.4444580078125,12.5555419921875,27.66668701171875,43.66668701171875,57.888916015625,70.33331298828125]","[72.88888549804688,78.22222900390625,80.88888549804688,83.55551147460938,86.22222900390625,86.22222900390625,86.22222900390625,86.22222900390625,86.22222900390625,86.22222900390625,85.33334350585938,84.44442749023438,82.66665649414062,79.111083984375,75.5555419921875,69.33334350585938,52.444427490234375,40.888885498046875,27.5555419921875,13.333343505859375,-0.888916015625,-16,-30.22222900390625]","[0,0,0,0,0,0,0,0,0,0,0,0,0,0,0,0,0,0,0,0,0,0,0]","[0,0,0,0,0,0,0,0,0,0,0,0,0,0,0,0,0,0,0,0,0,0,0]","[0,0,0,0,0,0,0,0,0,0,0,0,0,0,0,0,0,0,0,0,0,0,0]","[0.001100000001489576,0.01530000000074594,0.031900000000373296,0.04970000000111696,0.06590000000037222,0.08180000000074372,0.09810000000149088,0.11480000000074497,0.13180000000074443,0.14849999999999852,0.16540000000037125,0.1824000000003707,0.19860000000149114,0.2152000000011185,0.2323000000007447,0.24870000000111858,0.2651000000014889,0.28180000000074656,0.29830000000074364,0.31510000000148963,0.33160000000149026,0.3484000000003711,0.36499999999999844]",,4,0,4,0,1,,2022-09-22_21h53.41.858,GoFitts,2022.1.4,Win32,59.64451867,,,,
,,,,"[56.87610154050297,-63.16731016557849]","[-68.76644452187053,49.961746444860225]",77.8,170,2,"[70.33331298828125,77.44451904296875,81,83.66668701171875,87.22222900390625,89.888916015625,90.77783203125,91.66668701171875,91.66668701171875,91.66668701171875,91.66668701171875,91.66668701171875,91.66668701171875,91.66668701171875,84.5555419921875,63.22222900390625,41.88897705078125,22.33331298828125,2.77777099609375,-16.77777099609375,-38.11102294921875]","[-30.22222900390625,-40,-46.22222900390625,-54.222259521484375,-63.111114501953125,-69.33334350585938,-72.88888549804688,-73.77777099609375,-73.77777099609375,-73.77777099609375,-73.77777099609375,-73.77777099609375,-73.77777099609375,-73.77777099609375,-65.77777099609375,-34.666656494140625,-9.777801513671875,7.999969482421875,29.333343505859375,48.888885498046875,65.77774047851562]","[0,0,0,0,0,0,0,0,0,0,0,0,0,0,0,0,0,0,0,0,0]","[0,0,0,0,0,0,0,0,0,0,0,0,0,0,0,0,0,0,0,0,0]","[0,0,0,0,0,0,0,0,0,0,0,0,0,0,0,0,0,0,0,0,0]","[0.0015000000000000568,0.01630000000074716,0.03290000000037452,0.04969999999925534,0.0664000000003746,0.08319999999925543,0.09980000000074796,0.11619999999925668,0.13240000000037355,0.1490000000000009,0.165699999999255,0.18219999999925562,0.1989000000003749,0.21559999999962898,0.23259999999962844,0.24940000000037443,0.2660000000000018,0.2826999999992559,0.29930000000074486,0.3160000000000025,0.33300000000000196]",,5,0,5,0,1,,2022-09-22_21h53.41.858,GoFitts,2022.1.4,Win32,59.64451867,,,,
,,,,"[-68.76644452187053,49.961746444860225]","[77.65136389962109,-34.57261466144301]",77.8,170,2,"[-38.11102294921875,-53.22222900390625,-62.111083984375,-67.4444580078125,-69.22216796875,-71.88885498046875,-76.33331298828125,-77.22222900390625,-78.11102294921875,-78.11102294921875,-78.11102294921875,-78.11102294921875,-78.11102294921875,-78.11102294921875,-77.22222900390625,-68.33331298828125,-49.66668701171875,-27.4444580078125,17.888916015625,32.11114501953125,56.11114501953125,87.22222900390625]","[65.77774047851562,73.77777099609375,77.33334350585938,78.22222900390625,78.22222900390625,78.22222900390625,78.22222900390625,78.22222900390625,78.22222900390625,77.33334350585938,77.33334350585938,77.33334350585938,77.33334350585938,77.33334350585938,76.44442749023438,72,62.22222900390625,49.77777099609375,29.333343505859375,24.888885498046875,13.333343505859375,-4.4444580078125]","[0,0,0,0,0,0,0,0,0,0,0,0,0,0,0,0,0,0,0,0,0,0]","[0,0,0,0,0,0,0,0,0,0,0,0,0,0,0,0,0,0,0,0,0,0]","[0,0,0,0,0,0,0,0,0,0,0,0,0,0,0,0,0,0,0,0,0,0]","[0.0006999999992558514,0.015400000000372671,0.03179999999888494,0.048599999999627386,0.06540000000037338,0.0817999999988821,0.0985999999996281,0.11500000000000199,0.13169999999925608,0.14850000000000207,0.16459999999962704,0.1811999999992544,0.19790000000037367,0.21459999999962776,0.23150000000000048,0.2487999999988837,0.26540000000037267,0.2815999999996279,0.29850000000000065,0.3166999999992548,0.33159999999962864,0.3482999999988827]",,6,0,6,0,1,,2022-09-22_21h53.41.858,GoFitts,2022.1.4,Win32,59.64451867,,,,
,,,,"[77.65136389962109,-34.57261466144301]","[-83.14254606237348,17.672493719509543]",77.8,170,2,"[87.22222900390625,98.77777099609375,105,110.33331298828125,111.22222900390625,111.22222900390625,111.22222900390625,112.11114501953125,112.11114501953125,112.11114501953125,112.11114501953125,112.11114501953125,112.11114501953125,112.11114501953125,112.11114501953125,112.11114501953125,112.11114501953125,112.11114501953125,105.888916015625,87.22222900390625,63.22222900390625,27.66668701171875,-5.22222900390625,-31,-48.77777099609375,-57.66668701171875]","[-4.4444580078125,-12.4444580078125,-17.77777099609375,-21.333343505859375,-22.22222900390625,-22.22222900390625,-22.22222900390625,-24,-24,-24,-24,-24,-24,-24,-24,-24,-24,-24,-24,-16.888885498046875,-3.555572509765625,9.77777099609375,22.22222900390625,31.111114501953125,36.444427490234375,36.444427490234375]","[0,0,0,0,0,0,0,0,0,0,0,0,0,0,0,0,0,0,0,0,0,0,0,0,0,0]","[0,0,0,0,0,0,0,0,0,0,0,0,0,0,0,0,0,0,0,0,0,0,0,0,0,0]","[0,0,0,0,0,0,0,0,0,0,0,0,0,0,0,0,0,0,0,0,0,0,0,0,0,0]","[0.0011999999992546861,0.016099999999628523,0.032900000000370966,0.04969999999925534,0.06630000000074432,0.08240000000037284,0.09890000000037347,0.11590000000037293,0.13230000000074682,0.14890000000037418,0.16559999999962827,0.18219999999925562,0.19890000000037134,0.2154999999999987,0.23209999999962605,0.2486999999992534,0.2654999999999994,0.28209999999962676,0.2991999999992565,0.3159000000003722,0.33240000000037284,0.34919999999925366,0.3658000000007462,0.38240000000037355,0.3991999999992544,0.4160999999996271]",,7,0,7,0,1,,2022-09-22_21h53.41.858,GoFitts,2022.1.4,Win32,59.64451867,,,,
,,,,"[-83.14254606237348,17.672493719509543]","[85,0]",77.8,170,2,"[-57.66668701171875,-63.88885498046875,-67.4444580078125,-72.77777099609375,-74.5555419921875,-77.22222900390625,-79,-79,-79,-80.77777099609375,-80.77777099609375,-81.66668701171875,-82.55548095703125,-82.55548095703125,-82.55548095703125,-81.66668701171875,-79,-73.6666259765625,-62.111083984375,-35.4444580078125,-12.33331298828125,9,25.888916015625,33.888916015625,38.33331298828125,41.88897705078125,44.5555419921875,48.11114501953125,50.77783203125,52.5555419921875,55.2222900390625,60.5555419921875]","[36.444427490234375,36.444427490234375,36.444427490234375,36.444427490234375,36.444427490234375,36.444427490234375,36.444427490234375,36.444427490234375,36.444427490234375,36.444427490234375,36.444427490234375,36.444427490234375,36.444427490234375,36.444427490234375,36.444427490234375,34.666595458984375,32.888885498046875,32.888885498046875,32.888885498046875,32.888885498046875,31.111114501953125,30.222198486328125,30.222198486328125,30.222198486328125,30.222198486328125,28.444427490234375,28.444427490234375,27.5555419921875,27.5555419921875,26.666656494140625,25.777740478515625,24.888885498046875]","[0,0,0,0,0,0,0,0,0,0,0,0,0,0,0,0,0,0,0,0,0,0,0,0,0,0,0,0,0,0,0,0]","[0,0,0,0,0,0,0,0,0,0,0,0,0,0,0,0,0,0,0,0,0,0,0,0,0,0,0,0,0,0,0,0]","[0,0,0,0,0,0,0,0,0,0,0,0,0,0,0,0,0,0,0,0,0,0,0,0,0,0,0,0,0,0,0,0]","[0.0007000000011174734,0.015599999999626135,0.03209999999962676,0.048500000000000654,0.064900000000371,0.08180000000074372,0.09840000000037108,0.11459999999962633,0.1312000000011153,0.14830000000074506,0.16459999999962704,0.18149999999999977,0.19830000000074577,0.21450000000000102,0.23109999999962838,0.2482000000011162,0.26540000000037267,0.281800000000743,0.29799999999999827,0.31480000000074426,0.3318000000007437,0.3480999999996257,0.364800000000745,0.3813000000007456,0.3982000000011183,0.41459999999962704,0.43130000000074276,0.4480000000000004,0.46459999999962776,0.48130000000074347,0.4979000000003708,0.5148000000007436]",,8,0,8,0,1,,2022-09-22_21h53.41.858,GoFitts,2022.1.4,Win32,59.64451867,,,,
,,,,"[85,0]","[-83.14254606237348,-17.67249371950952]",77.8,170,2,"[60.5555419921875,65,71.22222900390625,74.77777099609375,75.66668701171875,75.66668701171875,75.66668701171875,75.66668701171875,75.66668701171875,75.66668701171875,74.77777099609375,72.11114501953125,65.888916015625,56.11114501953125,38.33331298828125,17.888916015625,-1.66668701171875,-19.4444580078125,-31.88885498046875,-39.88885498046875,-44.33331298828125,-48.77777099609375]","[24.888885498046875,24,23.111114501953125,22.22222900390625,22.22222900390625,22.22222900390625,22.22222900390625,22.22222900390625,22.22222900390625,22.22222900390625,22.22222900390625,22.22222900390625,21.33331298828125,18.666656494140625,16,11.5555419921875,7.999969482421875,6.22222900390625,3.555511474609375,1.77777099609375,-0.888916015625,-2.666656494140625]","[0,0,0,0,0,0,0,0,0,0,0,0,0,0,0,0,0,0,0,0,0,0]","[0,0,0,0,0,0,0,0,0,0,0,0,0,0,0,0,0,0,0,0,0,0]","[0,0,0,0,0,0,0,0,0,0,0,0,0,0,0,0,0,0,0,0,0,0]","[0.0009000000003744901,0.01600000000000179,0.03280000000074779,0.04840000000037392,0.06509999999962801,0.08130000000074489,0.09790000000037224,0.1144999999999996,0.13120000000111887,0.14780000000074622,0.16480000000074568,0.18149999999999977,0.19820000000111904,0.21490000000037313,0.23159999999962722,0.24830000000074648,0.26540000000037267,0.28180000000074656,0.29799999999999827,0.31490000000037455,0.33130000000074844,0.34800000000000253]",,9,0,9,0,1,,2022-09-22_21h53.41.858,GoFitts,2022.1.4,Win32,59.64451867,,,,
,,,,"[-83.14254606237348,-17.67249371950952]","[77.65136389962107,34.57261466144301]",77.8,170,2,"[-48.77777099609375,-51.44439697265625,-55,-59.4444580078125,-63.88885498046875,-69.22216796875,-74.5555419921875,-77.22222900390625,-79.88885498046875,-82.55548095703125,-84.33331298828125,-85.22222900390625,-85.22222900390625,-85.22222900390625,-85.22222900390625,-85.22222900390625,-85.22222900390625,-84.33331298828125,-75.4444580078125,-55,-26.5555419921875,11.66668701171875,48.11114501953125]","[-2.666656494140625,-5.333404541015625,-8.888885498046875,-14.222259521484375,-19.555572509765625,-25.77777099609375,-33.77777099609375,-36.444488525390625,-40,-42.666656494140625,-44.4444580078125,-44.4444580078125,-44.4444580078125,-44.4444580078125,-44.4444580078125,-44.4444580078125,-44.4444580078125,-44.4444580078125,-38.22222900390625,-21.333343505859375,0,24.888885498046875,43.555511474609375]","[0,0,0,0,0,0,0,0,0,0,0,0,0,0,0,0,0,0,0,0,0,0,0]","[0,0,0,0,0,0,0,0,0,0,0,0,0,0,0,0,0,0,0,0,0,0,0]","[0,0,0,0,0,0,0,0,0,0,0,0,0,0,0,0,0,0,0,0,0,0,0]","[0.0013000000007465928,0.01630000000074716,0.03300000000000125,0.04959999999962861,0.06630000000074432,0.08290000000037168,0.09949999999999903,0.11619999999926023,0.13259999999962702,0.14940000000037656,0.1661999999992574,0.18280000000074637,0.19890000000037844,0.21559999999963253,0.2321999999992599,0.24880000000074887,0.26550000000000296,0.28250000000000597,0.29919999999926006,0.31590000000037577,0.33259999999962986,0.3491999999992572,0.3658000000007462]",,10,0,10,0,1,,2022-09-22_21h53.41.858,GoFitts,2022.1.4,Win32,59.64451867,,,,
,,,,"[77.65136389962107,34.57261466144301]","[-68.76644452187054,-49.96174644486021]",77.8,170,2,"[48.11114501953125,70.33331298828125,77.44451904296875,78.33331298828125,78.33331298828125,78.33331298828125,79.22222900390625,79.22222900390625,79.22222900390625,79.22222900390625,79.22222900390625,79.22222900390625,79.22222900390625,79.22222900390625,79.22222900390625,79.22222900390625,79.22222900390625,77.44451904296875,65.888916015625,52.5555419921875,35.66668701171875,17.888916015625,-5.22222900390625,-23.88885498046875,-29.22216796875,-33.6666259765625,-38.11102294921875]","[43.555511474609375,52.444427490234375,56,56.88885498046875,56.88885498046875,56.88885498046875,56.88885498046875,56.88885498046875,56.88885498046875,56.88885498046875,56.88885498046875,56.88885498046875,56.88885498046875,56.88885498046875,56.88885498046875,56.88885498046875,56.88885498046875,52.444427490234375,32.888885498046875,12.444427490234375,-8.888885498046875,-26.666656494140625,-46.22222900390625,-62.22222900390625,-67.55557250976562,-71.11111450195312,-72.88888549804688]","[0,0,0,0,0,0,0,0,0,0,0,0,0,0,0,0,0,0,0,0,0,0,0,0,0,0,0]","[0,0,0,0,0,0,0,0,0,0,0,0,0,0,0,0,0,0,0,0,0,0,0,0,0,0,0]","[0,0,0,0,0,0,0,0,0,0,0,0,0,0,0,0,0,0,0,0,0,0,0,0,0,0,0]","[0.0005000000000023874,0.015000000000000568,0.031599999999627926,0.04809999999962855,0.06450000000000244,0.08119999999925653,0.09809999999963281,0.11440000000037287,0.1309000000003735,0.14769999999925432,0.1643000000007504,0.18080000000075103,0.19759999999963185,0.21409999999963247,0.23090000000037492,0.24750000000000227,0.26419999999925636,0.2811999999992594,0.30049999999999955,0.3146999999992559,0.3316999999992589,0.3478000000007455,0.36430000000074614,0.38130000000074915,0.3976999999992543,0.41440000000037713,0.43119999999925795]",,11,0,11,0,1,,2022-09-22_21h53.41.858,GoFitts,2022.1.4,Win32,59.64451867,,,,
,,,,"[-68.76644452187054,-49.96174644486021]","[56.87610154050295,63.16731016557851]",77.8,170,2,"[-38.11102294921875,-39.88885498046875,-40.77777099609375,-41.66668701171875,-41.66668701171875,-42.55548095703125,-42.55548095703125,-43.4444580078125,-45.22222900390625,-46.99993896484375,-46.99993896484375,-46.99993896484375,-47.88885498046875,-47.88885498046875,-44.33331298828125,-36.33331298828125,-20.33319091796875,1,32.11114501953125,55.2222900390625]","[-72.88888549804688,-74.66665649414062,-74.66665649414062,-75.55557250976562,-75.55557250976562,-75.55557250976562,-75.55557250976562,-76.4444580078125,-77.33334350585938,-78.22222900390625,-78.22222900390625,-78.22222900390625,-77.33334350585938,-73.77777099609375,-66.66665649414062,-55.111114501953125,-39.111114501953125,-16,18.666656494140625,42.666656494140625]","[0,0,0,0,0,0,0,0,0,0,0,0,0,0,0,0,0,0,0,0]","[0,0,0,0,0,0,0,0,0,0,0,0,0,0,0,0,0,0,0,0]","[0,0,0,0,0,0,0,0,0,0,0,0,0,0,0,0,0,0,0,0]","[0.0013000000007394874,0.015900000000371506,0.03249999999999886,0.049300000000741306,0.06540000000037338,0.08249999999999602,0.09880000000074318,0.11610000000148801,0.13250000000000028,0.1494999999999962,0.1654000000003677,0.18199999999999505,0.19910000000148642,0.21570000000111378,0.23240000000036787,0.24899999999999523,0.2656000000014842,0.2823000000007454,0.2992000000011146,0.3155000000000001]",,12,0,12,0,1,,2022-09-22_21h53.41.858,GoFitts,2022.1.4,Win32,59.64451867,,,,
,,,,"[56.87610154050295,63.16731016557851]","[-42.500000000000036,-73.61215932167727]",77.8,170,2,"[55.2222900390625,69.4444580078125,74.77777099609375,76.5555419921875,76.5555419921875,76.5555419921875,76.5555419921875,76.5555419921875,76.5555419921875,76.5555419921875,76.5555419921875,76.5555419921875,76.5555419921875,76.5555419921875,76.5555419921875,76.5555419921875,70.33331298828125,57,38.33331298828125,19.66680908203125,1,-15.88885498046875]","[42.666656494140625,55.111114501953125,60.444427490234375,63.111114501953125,63.111114501953125,63.111114501953125,63.111114501953125,63.111114501953125,63.111114501953125,63.111114501953125,63.111114501953125,63.111114501953125,63.111114501953125,63.111114501953125,63.111114501953125,62.22222900390625,51.5555419921875,29.333343505859375,4.444427490234375,-16.888885498046875,-36.444488525390625,-56]","[0,0,0,0,0,0,0,0,0,0,0,0,0,0,0,0,0,0,0,0,0,0]","[0,0,0,0,0,0,0,0,0,0,0,0,0,0,0,0,0,0,0,0,0,0]","[0,0,0,0,0,0,0,0,0,0,0,0,0,0,0,0,0,0,0,0,0,0]","[0.0016000000014955162,0.01620000000112043,0.03350000000000364,0.049400000000375144,0.0657000000011223,0.08250000000000313,0.09900000000000375,0.11560000000149273,0.13230000000074682,0.14880000000074745,0.16550000000000153,0.18230000000074398,0.1988000000007446,0.21540000000037196,0.2322000000011215,0.24920000000111742,0.2659000000003715,0.28270000000112105,0.2998000000007437,0.31580000000074904,0.3329000000003717,0.35030000000075034]",,13,0,13,0,1,,2022-09-22_21h53.41.858,GoFitts,2022.1.4,Win32,59.64451867,,,,
,,,,"[-42.500000000000036,-73.61215932167727]","[26.266444521870532,80.83980388508805]",77.8,170,2,"[-15.88885498046875,-30.111083984375,-35.4444580078125,-40.77777099609375,-43.4444580078125,-45.22222900390625,-46.99993896484375,-46.99993896484375,-46.99993896484375,-46.99993896484375,-46.99993896484375,-46.99993896484375,-46.99993896484375,-46.99993896484375,-46.99993896484375,-40.77777099609375,-26.5555419921875,-18.5555419921875,9,24.11114501953125]","[-56,-71.11111450195312,-78.22222900390625,-86.22222900390625,-91.55557250976562,-94.22222900390625,-96,-96.88888549804688,-96.88888549804688,-96.88888549804688,-96.88888549804688,-96.88888549804688,-96.88888549804688,-96.88888549804688,-96,-68.4444580078125,-35.555572509765625,-17.77777099609375,34.666595458984375,56.88885498046875]","[0,0,0,0,0,0,0,0,0,0,0,0,0,0,0,0,0,0,0,0]","[0,0,0,0,0,0,0,0,0,0,0,0,0,0,0,0,0,0,0,0]","[0,0,0,0,0,0,0,0,0,0,0,0,0,0,0,0,0,0,0,0]","[0.0005000000000023874,0.014500000000005286,0.030999999999998806,0.04749999999999943,0.06409999999962679,0.08079999999888798,0.09739999999851534,0.11400000000000432,0.1300999999996293,0.1468999999985101,0.16359999999963293,0.18019999999926029,0.1966999999992538,0.21389999999851028,0.23049999999999926,0.24709999999962662,0.263699999999254,0.280699999999257,0.29700000000000415,0.31369999999925824]",,14,0,14,0,1,,2022-09-22_21h53.41.858,GoFitts,2022.1.4,Win32,59.64451867,,,,
,,,,,,,,2,,,,,,,,,,,,,,2022-09-22_21h53.41.858,GoFitts,2022.1.4,Win32,59.64451867,2,0,0,1
