key_resp_4.keys,key_resp_4.rt,身分證字號,date,expName,psychopyVersion,OS,frameRate,mouse_2.x,mouse_2.y,mouse_2.leftButton,mouse_2.midButton,mouse_2.rightButton,mouse_2.time,cont.keys,cont.rt,retry_testing.thisRepN,retry_testing.thisTrialN,retry_testing.thisN,retry_testing.thisIndex,retry_testing.ran,key_resp.keys,key_resp.rt,key_resp_3.keys,key_resp_3.rt,from,to,w,a,sequence_loop.thisN,mouse.x,mouse.y,mouse.leftButton,mouse.midButton,mouse.rightButton,mouse.time,key_resp_2.keys,trial_loop.thisRepN,trial_loop.thisTrialN,trial_loop.thisN,trial_loop.thisIndex,trial_loop.ran,sequence_loop.thisRepN,sequence_loop.thisTrialN,sequence_loop.thisIndex,sequence_loop.ran
return,4.3165,A000000000,2022-11-28_10h44.44.473,GoFitts,2022.2.4,Win32,59.97361161,,,,,,,,,,,,,,,,,,,,,,,,,,,,,,,,,,,,,,
,,A000000000,2022-11-28_10h44.44.473,GoFitts,2022.2.4,Win32,59.97361161,"[288,288,288,288,288,288,288,288,288,288,288,288,288,287.2000732421875,285.5999755859375,281.5999755859375,278.4000244140625,273.5999755859375,266.4000244140625,248.79998779296875,230.4000244140625,207.20001220703125,172.79998779296875,149.60003662109375,136,130.4000244140625,125.60003662109375,120.79998779296875,116,109.60003662109375,103.20001220703125,96,92,89.60003662109375,88.79998779296875,87.20001220703125,84.79998779296875,84,84,84,84.79998779296875,88,92.79998779296875,99.20001220703125,104.79998779296875,112.79998779296875,128,140.79998779296875,157.60003662109375,170.4000244140625,185.60003662109375,200,207.20001220703125,215.20001220703125,226.4000244140625,244,268,286.4000244140625,302.4000244140625,311.2000732421875,316,318.4000244140625,318.4000244140625,318.4000244140625,318.4000244140625,318.4000244140625,318.4000244140625,318.4000244140625,318.4000244140625,319.2000732421875,320,325.5999755859375,331.2000732421875,336.800048828125,343.2000732421875,348,350.4000244140625,350.4000244140625,350.4000244140625,350.4000244140625,350.4000244140625,350.4000244140625,349.5999755859375,349.5999755859375,349.5999755859375,349.5999755859375,349.5999755859375,349.5999755859375,349.5999755859375,349.5999755859375,349.5999755859375,348,339.2000732421875,316.800048828125,282.4000244140625,237.60003662109375,198.4000244140625,160,129.60003662109375,104.79998779296875,81.60003662109375,72,68.79998779296875,67.20001220703125,66.4000244140625,66.4000244140625,66.4000244140625,66.4000244140625,64.79998779296875,64,63.20001220703125,61.60003662109375,59.20001220703125,56.79998779296875,52,44,34.4000244140625,20.79998779296875,6.4000244140625,-0.79998779296875,-1.5999755859375,-1.5999755859375,-1.5999755859375,-1.5999755859375,-1.5999755859375,-1.5999755859375,-3.20001220703125,-4.79998779296875,-7.20001220703125,-7.20001220703125,-7.20001220703125,-7.20001220703125,-7.20001220703125,-7.20001220703125,-7.20001220703125,-7.20001220703125,-7.20001220703125,-7.20001220703125,-7.20001220703125,-7.20001220703125,-16,-27.20001220703125,-38.39996337890625,-54.39996337890625,-68.79998779296875,-83.20001220703125,-98.39996337890625,-111.20001220703125,-128,-142.39996337890625,-156,-168.79998779296875,-185.5999755859375,-198.39996337890625,-212.79998779296875,-231.20001220703125,-249.5999755859375,-257.6000061035156,-277.6000061035156,-287.1999816894531,-294.3999938964844,-302.3999938964844,-312.79998779296875,-325.6000061035156,-335.1999816894531,-344.79998779296875,-348,-348.79998779296875,-348.79998779296875,-348,-347.1999816894531,-347.1999816894531,-347.1999816894531,-347.1999816894531,-350.3999938964844,-351.1999816894531,-354.3999938964844,-356.79998779296875,-357.6000061035156,-357.6000061035156,-357.6000061035156,-357.6000061035156,-358.3999938964844,-359.1999816894531,-359.1999816894531,-359.1999816894531,-359.1999816894531,-359.1999816894531,-359.1999816894531,-359.1999816894531,-359.1999816894531,-358.3999938964844,-356,-348.79998779296875,-328.79998779296875,-296.79998779296875,-256.79998779296875,-206.39996337890625,-168,-141.5999755859375,-124.79998779296875,-116,-113.5999755859375,-110.39996337890625,-110.39996337890625,-110.39996337890625,-110.39996337890625,-111.20001220703125,-111.20001220703125,-108.79998779296875,-104,-98.39996337890625,-91.20001220703125,-78.39996337890625,-61.5999755859375,-44,-20.79998779296875,-4.79998779296875,4.79998779296875,9.60003662109375,10.4000244140625,10.4000244140625,10.4000244140625,10.4000244140625,10.4000244140625,8.79998779296875,8.79998779296875,8.79998779296875]","[-28.800018310546875,-28.800018310546875,-28.800018310546875,-28.800018310546875,-28.800018310546875,-28.800018310546875,-28.800018310546875,-28.800018310546875,-28.800018310546875,-28.800018310546875,-28.800018310546875,-28.800018310546875,-28.800018310546875,-27.20001220703125,-27.20001220703125,-25.600006103515625,-24.800018310546875,-24,-21.600006103515625,-16.800018310546875,-9.600006103515625,-0.800018310546875,14.399993896484375,23.199981689453125,26.399993896484375,28.79998779296875,31.199981689453125,32,35.199981689453125,39.199981689453125,42.399993896484375,48,51.199981689453125,53.600006103515625,55.199981689453125,56.79998779296875,58.399993896484375,59.199981689453125,59.199981689453125,59.199981689453125,58.399993896484375,48,31.199981689453125,19.199981689453125,16,14.399993896484375,14.399993896484375,14.399993896484375,14.399993896484375,12.79998779296875,9.600006103515625,5.600006103515625,1.600006103515625,-2.399993896484375,-6.399993896484375,-10.399993896484375,-16.800018310546875,-20.800018310546875,-22.399993896484375,-22.399993896484375,-22.399993896484375,-22.399993896484375,-21.600006103515625,-21.600006103515625,-20.800018310546875,-19.20001220703125,-19.20001220703125,-19.20001220703125,-19.20001220703125,-18.399993896484375,-16.800018310546875,-15.20001220703125,-12.800018310546875,-9.600006103515625,-6.399993896484375,-2.399993896484375,-0.800018310546875,-0.800018310546875,-0.800018310546875,-0.800018310546875,-0.800018310546875,-0.800018310546875,-0.800018310546875,-0.800018310546875,-0.800018310546875,-0.800018310546875,-0.800018310546875,-0.800018310546875,-0.800018310546875,-0.800018310546875,-0.800018310546875,-0.800018310546875,8.79998779296875,31.199981689453125,64,109.60000610351562,141.60000610351562,167.19998168945312,184.8000030517578,200,213.59999084472656,220.8000030517578,223.1999969482422,227.1999969482422,232.8000030517578,242.39999389648438,254.39999389648438,264.8000030517578,268,272.8000030517578,274.3999938964844,276.8000030517578,279.1999969482422,280.8000030517578,284.8000030517578,289.59999084472656,296,305.5999984741211,314.4000015258789,320.7999954223633,323.1999969482422,325.5999984741211,327.1999969482422,330.4000015258789,340.7999954223633,345.5999984741211,349.5999984741211,354.4000015258789,356.7999954223633,357.5999984741211,358.4000015258789,358.4000015258789,358.4000015258789,358.4000015258789,358.4000015258789,358.4000015258789,358.4000015258789,358.4000015258789,358.4000015258789,358.4000015258789,344.7999954223633,317.5999984741211,284.8000030517578,240.8000030517578,207.1999969482422,179.1999969482422,155.19998168945312,137.60000610351562,124,116.79998779296875,112,110.39999389648438,110.39999389648438,109.60000610351562,104.79998779296875,90.39999389648438,76,69.60000610351562,60,60,60,54.399993896484375,37.600006103515625,5.600006103515625,-28.800018310546875,-65.60000610351562,-77.60000610351562,-78.39999389648438,-68,-51.20001220703125,-34.399993896484375,-21.600006103515625,-12.800018310546875,-8.800018310546875,-5.600006103515625,-1.600006103515625,4,7.199981689453125,9.600006103515625,9.600006103515625,9.600006103515625,9.600006103515625,4,-1.600006103515625,-8,-8,-8,-8,-8,-10.399993896484375,-10.399993896484375,-11.20001220703125,-13.600006103515625,-21.600006103515625,-40.800018310546875,-70.39999389648438,-101.60003662109375,-136.79998779296875,-161.60003662109375,-181.60003662109375,-195.20001220703125,-209.60003662109375,-218.4000244140625,-231.20001220703125,-241.60003662109375,-246.4000244140625,-249.60003662109375,-253.60003662109375,-258.4000244140625,-270.4000244140625,-280,-289.60003662109375,-294.4000244140625,-298.4000244140625,-303.20001220703125,-307.20001220703125,-313.60003662109375,-316.79998779296875,-320,-323.20001220703125,-324,-324,-325.60003662109375,-327.20001220703125,-328,-328.79998779296875,-330.4000244140625,-333.60003662109375]","[0,0,0,0,0,0,0,0,0,0,0,0,0,0,0,0,0,0,0,0,0,0,0,0,0,0,0,0,0,0,0,0,0,0,0,0,0,0,0,0,0,0,0,0,0,0,0,0,0,0,0,0,0,0,0,0,0,0,0,0,0,0,0,0,0,0,0,0,0,0,0,0,0,0,0,0,0,0,0,0,0,0,0,0,0,0,0,0,0,0,0,0,0,0,0,0,0,0,0,0,0,0,0,0,0,0,0,0,0,0,0,0,0,0,0,0,0,0,0,0,0,0,0,0,0,0,0,0,0,0,0,0,0,0,0,0,0,0,0,0,0,0,0,0,0,0,0,0,0,0,0,0,0,0,0,0,0,0,0,0,0,0,0,0,0,0,0,0,0,0,0,0,0,0,0,0,0,0,0,0,0,0,0,0,0,0,0,0,0,0,0,0,0,0,0,0,0,0,0,0,0,0,0,0,0,0,0,0,0,0,0,0,0,0,0,0,0,0,0,0,0,0,0,0,0,0,0,0]","[0,0,0,0,0,0,0,0,0,0,0,0,0,0,0,0,0,0,0,0,0,0,0,0,0,0,0,0,0,0,0,0,0,0,0,0,0,0,0,0,0,0,0,0,0,0,0,0,0,0,0,0,0,0,0,0,0,0,0,0,0,0,0,0,0,0,0,0,0,0,0,0,0,0,0,0,0,0,0,0,0,0,0,0,0,0,0,0,0,0,0,0,0,0,0,0,0,0,0,0,0,0,0,0,0,0,0,0,0,0,0,0,0,0,0,0,0,0,0,0,0,0,0,0,0,0,0,0,0,0,0,0,0,0,0,0,0,0,0,0,0,0,0,0,0,0,0,0,0,0,0,0,0,0,0,0,0,0,0,0,0,0,0,0,0,0,0,0,0,0,0,0,0,0,0,0,0,0,0,0,0,0,0,0,0,0,0,0,0,0,0,0,0,0,0,0,0,0,0,0,0,0,0,0,0,0,0,0,0,0,0,0,0,0,0,0,0,0,0,0,0,0,0,0,0,0,0,0]","[0,0,0,0,0,0,0,0,0,0,0,0,0,0,0,0,0,0,0,0,0,0,0,0,0,0,0,0,0,0,0,0,0,0,0,0,0,0,0,0,0,0,0,0,0,0,0,0,0,0,0,0,0,0,0,0,0,0,0,0,0,0,0,0,0,0,0,0,0,0,0,0,0,0,0,0,0,0,0,0,0,0,0,0,0,0,0,0,0,0,0,0,0,0,0,0,0,0,0,0,0,0,0,0,0,0,0,0,0,0,0,0,0,0,0,0,0,0,0,0,0,0,0,0,0,0,0,0,0,0,0,0,0,0,0,0,0,0,0,0,0,0,0,0,0,0,0,0,0,0,0,0,0,0,0,0,0,0,0,0,0,0,0,0,0,0,0,0,0,0,0,0,0,0,0,0,0,0,0,0,0,0,0,0,0,0,0,0,0,0,0,0,0,0,0,0,0,0,0,0,0,0,0,0,0,0,0,0,0,0,0,0,0,0,0,0,0,0,0,0,0,0,0,0,0,0,0,0]","[0.0020000000000024443,0.014699999999955082,0.028900000000142256,0.045800000000046026,0.061900000000139954,0.07919999999995397,0.09630000000004912,0.11200000000000188,0.12819999999995346,0.14480000000004623,0.16169999999995355,0.17810000000009296,0.19530000000004932,0.21250000000000213,0.2286000000000925,0.2443000000000488,0.26069999999995375,0.2776999999999532,0.29390000000013927,0.31060000000009325,0.3276999999999539,0.34380000000004785,0.36069999999995517,0.37730000000004793,0.39380000000004856,0.41090000000014015,0.42769999999995534,0.44419999999995596,0.4601999999999542,0.4775000000000027,0.49440000000014095,0.5109000000001416,0.5276000000000955,0.5441000000000926,0.5620000000000012,0.5775000000000006,0.59390000000014,0.6105000000000018,0.6274000000001401,0.6445000000000007,0.6615000000000002,0.6766999999999541,0.6949000000001391,0.7104999999999997,0.7274000000001415,0.7434000000001397,0.7611000000000949,0.7769000000001398,0.7938000000000471,0.8101999999999556,0.8271000000000939,0.8436999999999557,0.8603000000000485,0.8771999999999558,0.8938000000000486,0.9111000000000935,0.927500000000002,0.9436000000000924,0.9604999999999997,0.9781000000000937,0.9936000000000931,1.0104000000001392,1.0274000000001422,1.0440000000000005,1.0611999999999533,1.0774000000001394,1.0938000000000478,1.1106999999999552,1.1218000000000465,1.1436999999999529,1.1600000000000001,1.1776000000000941,1.1935000000000002,1.2101999999999542,1.2276000000000948,1.2434000000001397,1.260300000000047,1.2771000000000932,1.2939000000001393,1.3106000000000932,1.3218000000000458,1.3440000000000012,1.3609000000001394,1.3771999999999558,1.394100000000094,1.4109000000001402,1.4276999999999553,1.444199999999956,1.460699999999953,1.47190000000014,1.4938000000000464,1.5109999999999992,1.5268000000000477,1.5435000000000016,1.5600000000000023,1.5770000000000017,1.593300000000049,1.6106999999999552,1.6266000000000957,1.6434999999999995,1.6598000000000468,1.6763000000000474,1.687800000000049,1.710400000000142,1.727699999999956,1.7433000000000476,1.7605000000000004,1.7766999999999555,1.7926999999999538,1.8100000000000023,1.8276000000000927,1.84390000000014,1.8604000000001406,1.8765,1.8933000000000462,1.9100000000000001,1.9265000000000008,1.942800000000048,1.9601999999999542,1.9765000000000015,1.993000000000002,2.0109999999999992,2.0266000000000943,2.0435000000000016,2.0606000000000932,2.077100000000094,2.093400000000141,2.1104000000001406,2.1263000000000467,2.1434999999999995,2.1601999999999535,2.1768000000000463,2.1936000000000924,2.210199999999954,2.2270000000000003,2.2438000000000464,2.260400000000139,2.277000000000001,2.293699999999955,2.310500000000001,2.3266999999999527,2.343,2.3599999999999994,2.3764000000001424,2.3928000000000473,2.4096999999999547,2.4261999999999553,2.44290000000014,2.4599000000001396,2.4765000000000015,2.4928000000000488,2.5099000000001404,2.527000000000001,2.5426999999999538,2.5596000000000956,2.576600000000095,2.5926000000000933,2.6040000000000028,2.6276999999999546,2.6428000000000473,2.6596000000000934,2.676,2.692300000000051,2.7096000000000924,2.72630000000005,2.742699999999955,2.759500000000001,2.776300000000047,2.7929000000001434,2.809499999999998,2.8259999999999987,2.842600000000095,2.859800000000048,2.876800000000051,2.892800000000049,2.909800000000045,2.9263000000000456,2.942900000000142,2.956300000000047,2.9764999999999997,2.9875000000000025,3.004000000000003,3.0261999999999514,3.0376000000000953,3.0591000000000914,3.0761999999999556,3.0929000000001405,3.1041999999999543,3.1209000000001392,3.1380000000000035,3.1599000000001407,3.176999999999998,3.1939000000001396,3.209199999999951,3.226100000000093,3.242300000000048,3.2591999999999555,3.275499999999999,3.292400000000141,3.309699999999955,3.3269000000001423,3.342600000000095,3.3561999999999568,3.376000000000003,3.3924000000001424,3.4094999999999995,3.4256000000000935,3.442500000000001,3.459100000000097,3.4756000000000906,3.492499999999998,3.509300000000044,3.525699999999956,3.542600000000091,3.5593000000000483,3.5756999999999532,3.592600000000095,3.60880000000005,3.6255000000000006,3.6425000000000036,3.659199999999954,3.675900000000139,3.693000000000003,3.7098000000000493,3.726100000000093,3.742699999999955,3.7591000000000943,3.7760000000000016]",return,3.9471,0,0,0,0,1,,,,,,,,,,,,,,,,,,,,,,,,,
,,A000000000,2022-11-28_10h44.44.473,GoFitts,2022.2.4,Win32,59.97361161,,,,,,,,,,,,,,return,2.436,,,,,,,,,,,,,,,,,,,,,,,
,,A000000000,2022-11-28_10h44.44.473,GoFitts,2022.2.4,Win32,59.97361161,,,,,,,,,,,,,,,,return,0.781,"[-4.79998779296875,0]","[-42.500000000000036,-73.61215932167727]",77.8,170,0,"[-4.79998779296875,-4.79998779296875,-4.79998779296875,-4.79998779296875,-4.79998779296875,-4.79998779296875,-4.79998779296875,-4.79998779296875,-4.79998779296875,-4.79998779296875,-4.79998779296875,-4.79998779296875,-4.79998779296875,-4.79998779296875,-4.79998779296875,-4.79998779296875,-4.79998779296875,-4.79998779296875,-4.79998779296875,-4.79998779296875,-4.79998779296875,-7.20001220703125,-7.20001220703125,-8.79998779296875,-10.39996337890625,-12.79998779296875,-16,-18.39996337890625,-21.5999755859375,-24,-24,-24.79998779296875,-27.20001220703125]","[0,0,0,0,0,0,0,0,0,0,0,0,0,0,0,0,0,0,0,0,0.79998779296875,3.199981689453125,3.199981689453125,3.199981689453125,3.199981689453125,0,-9.600006103515625,-18.399993896484375,-24.800018310546875,-28,-29.600006103515625,-32,-39.20001220703125]","[0,0,0,0,0,0,0,0,0,0,0,0,0,0,0,0,0,0,0,0,0,0,0,0,0,0,0,0,0,0,0,0,0]","[0,0,0,0,0,0,0,0,0,0,0,0,0,0,0,0,0,0,0,0,0,0,0,0,0,0,0,0,0,0,0,0,0]","[0,0,0,0,0,0,0,0,0,0,0,0,0,0,0,0,0,0,0,0,0,0,0,0,0,0,0,0,0,0,0,0,0]","[0.0024999999999977263,0.016300000000043724,0.03249999999999886,0.04910000000009518,0.06569999999995702,0.08269999999995292,0.0934999999999988,0.11599999999999966,0.13269999999995008,0.148800000000044,0.16569999999995133,0.18230000000004765,0.19869999999995258,0.21580000000004418,0.2324000000001405,0.24919999999995213,0.265900000000137,0.28269999999995576,0.29969999999995167,0.3154000000001389,0.32730000000004367,0.34880000000004685,0.3653000000000475,0.37710000000009103,0.3993000000000464,0.415800000000047,0.43200000000000216,0.4486999999999526,0.4653000000000489,0.4821999999999562,0.49849999999999994,0.515500000000003,0.5320000000000036]",,0,0,0,0,1,,,,
,,A000000000,2022-11-28_10h44.44.473,GoFitts,2022.2.4,Win32,59.97361161,,,,,,,,,,,,,,,,,,"[-42.500000000000036,-73.61215932167727]","[26.266444521870532,80.83980388508805]",77.8,170,0,"[-27.20001220703125,-28.79998779296875,-31.20001220703125,-35.20001220703125,-37.5999755859375,-39.20001220703125,-39.20001220703125,-39.20001220703125,-39.20001220703125,-39.20001220703125,-39.20001220703125,-39.20001220703125,-39.20001220703125,-39.20001220703125,-39.20001220703125,-39.20001220703125,-31.20001220703125,-16,-2.39996337890625,9.60003662109375,20,30.4000244140625]","[-39.20001220703125,-45.600006103515625,-52,-57.600006103515625,-60.800018310546875,-62.399993896484375,-62.399993896484375,-62.399993896484375,-62.399993896484375,-62.399993896484375,-62.399993896484375,-62.399993896484375,-62.399993896484375,-62.399993896484375,-62.399993896484375,-59.20001220703125,-48,-24.800018310546875,-5.600006103515625,12,28.79998779296875,46.399993896484375]","[0,0,0,0,0,0,0,0,0,0,0,0,0,0,0,0,0,0,0,0,0,0]","[0,0,0,0,0,0,0,0,0,0,0,0,0,0,0,0,0,0,0,0,0,0]","[0,0,0,0,0,0,0,0,0,0,0,0,0,0,0,0,0,0,0,0,0,0]","[0.0003000000000454861,0.016500000000000625,0.03260000000008745,0.04949999999999477,0.06610000000009109,0.08280000000004151,0.09920000000018092,0.11620000000018393,0.13299999999999557,0.14999999999999858,0.16690000000014038,0.1836000000000908,0.19999999999999574,0.21720000000018302,0.23330000000004247,0.2502000000001843,0.26580000000004134,0.28280000000004435,0.2988000000000426,0.3156000000000887,0.3331000000000941,0.3496000000000876]",,1,0,1,0,1,,,,
,,A000000000,2022-11-28_10h44.44.473,GoFitts,2022.2.4,Win32,59.97361161,,,,,,,,,,,,,,,,,,"[26.266444521870532,80.83980388508805]","[-8.88491937775061,-84.53436110630322]",77.8,170,0,"[30.4000244140625,36,36,36,35.20001220703125,35.20001220703125,35.20001220703125,35.20001220703125,35.20001220703125,35.20001220703125,34.4000244140625,33.60003662109375,31.20001220703125,25.60003662109375,18.4000244140625,13.60003662109375,10.4000244140625,9.60003662109375,9.60003662109375,8.79998779296875,8.79998779296875,8,6.4000244140625]","[46.399993896484375,60.79998779296875,71.19998168945312,76.79998779296875,77.60000610351562,77.60000610351562,77.60000610351562,77.60000610351562,77.60000610351562,77.60000610351562,76,71.19998168945312,62.399993896484375,39.199981689453125,16,-3.20001220703125,-14.399993896484375,-17.600006103515625,-17.600006103515625,-20,-28,-44.800018310546875,-55.20001220703125]","[0,0,0,0,0,0,0,0,0,0,0,0,0,0,0,0,0,0,0,0,0,0,0]","[0,0,0,0,0,0,0,0,0,0,0,0,0,0,0,0,0,0,0,0,0,0,0]","[0,0,0,0,0,0,0,0,0,0,0,0,0,0,0,0,0,0,0,0,0,0,0]","[0.00020000000019138042,0.015600000000098646,0.032800000000051455,0.04920000000019087,0.06590000000014129,0.0827000000001874,0.09950000000000614,0.11680000000004753,0.13340000000014385,0.1491000000000966,0.16080000000005157,0.18280000000005003,0.19900000000000517,0.21600000000000108,0.2322000000001907,0.2492000000001866,0.26580000000004844,0.28260000000009455,0.2989000000001454,0.31060000000009325,0.3269000000001441,0.3507000000001881,0.3655000000000044]",,2,0,2,0,1,,,,
,,A000000000,2022-11-28_10h44.44.473,GoFitts,2022.2.4,Win32,59.97361161,,,,,,,,,,,,,,,,,,"[-8.88491937775061,-84.53436110630322]","[-8.884919377750533,84.53436110630324]",77.8,170,0,"[6.4000244140625,5.60003662109375,5.60003662109375,5.60003662109375,5.60003662109375,5.60003662109375,5.60003662109375,5.60003662109375,5.60003662109375,6.4000244140625,6.4000244140625,6.4000244140625,4.79998779296875,2.4000244140625,1.60003662109375,0.79998779296875,-1.5999755859375,-6.39996337890625,-15.20001220703125,-20.79998779296875,-25.5999755859375]","[-55.20001220703125,-58.399993896484375,-58.399993896484375,-54.399993896484375,-46.399993896484375,-34.399993896484375,-24.800018310546875,-23.20001220703125,-23.20001220703125,-24,-28,-36.800018310546875,-41.600006103515625,-44,-46.399993896484375,-45.600006103515625,-36,-12,21.600006103515625,43.199981689453125,55.199981689453125]","[0,0,0,0,0,0,0,0,0,0,0,0,0,0,0,0,0,0,0,0,0]","[0,0,0,0,0,0,0,0,0,0,0,0,0,0,0,0,0,0,0,0,0]","[0,0,0,0,0,0,0,0,0,0,0,0,0,0,0,0,0,0,0,0,0]","[0.0003000000000454861,0.016899999999907322,0.03289999999990556,0.04969999999995167,0.066599999999859,0.08299999999999841,0.10019999999995122,0.11639999999990636,0.13280000000004577,0.1498999999999029,0.1669999999999945,0.18259999999985865,0.19969999999995025,0.21609999999985519,0.23409999999985587,0.2524999999999977,0.2666999999999504,0.28319999999995105,0.29949999999999477,0.3164999999999978,0.3329999999999984]",,3,0,3,0,1,,,,
,,A000000000,2022-11-28_10h44.44.473,GoFitts,2022.2.4,Win32,59.97361161,,,,,,,,,,,,,,,,,,"[-8.884919377750533,84.53436110630324]","[26.266444521870515,-80.83980388508806]",77.8,170,0,"[-25.5999755859375,-28,-28.79998779296875,-30.39996337890625,-30.39996337890625,-30.39996337890625,-28.79998779296875,-28,-27.20001220703125,-27.20001220703125,-27.20001220703125,-27.20001220703125,-26.39996337890625,-23.20001220703125,-20.79998779296875,-18.39996337890625,-12.79998779296875,-5.5999755859375,3.20001220703125,15.20001220703125]","[55.199981689453125,61.600006103515625,65.60000610351562,68,71.19998168945312,72.79998779296875,76.79998779296875,79.19998168945312,82.39999389648438,83.19998168945312,83.19998168945312,83.19998168945312,78.39999389648438,68.79998779296875,60,53.600006103515625,40.79998779296875,21.600006103515625,-11.20001220703125,-55.20001220703125]","[0,0,0,0,0,0,0,0,0,0,0,0,0,0,0,0,0,0,0,0]","[0,0,0,0,0,0,0,0,0,0,0,0,0,0,0,0,0,0,0,0]","[0,0,0,0,0,0,0,0,0,0,0,0,0,0,0,0,0,0,0,0]","[0.0003000000000454861,0.01669999999995042,0.03340000000014243,0.049400000000140665,0.06630000000004799,0.0831000000000941,0.09919999999995355,0.11610000000009535,0.13269999999995008,0.1494999999999962,0.16619999999995372,0.17780000000004748,0.19960000000008904,0.21560000000009438,0.2326000000000903,0.24910000000009092,0.26610000000009393,0.28290000000014004,0.29960000000009046,0.3161000000000911]",,4,0,4,0,1,,,,
,,A000000000,2022-11-28_10h44.44.473,GoFitts,2022.2.4,Win32,59.97361161,,,,,,,,,,,,,,,,,,"[26.266444521870515,-80.83980388508806]","[-42.49999999999998,73.6121593216773]",77.8,170,0,"[15.20001220703125,22.4000244140625,25.60003662109375,25.60003662109375,26.4000244140625,28,31.20001220703125,34.4000244140625,36,36,33.60003662109375,29.60003662109375,22.4000244140625,9.60003662109375,-6.39996337890625,-22.39996337890625,-40.79998779296875,-56.79998779296875]","[-55.20001220703125,-82.4000244140625,-91.20001220703125,-92,-92.79998779296875,-88.79998779296875,-73.60000610351562,-63.20001220703125,-56.800018310546875,-51.20001220703125,-44,-39.20001220703125,-32,-23.20001220703125,-11.20001220703125,3.199981689453125,23.199981689453125,43.199981689453125]","[0,0,0,0,0,0,0,0,0,0,0,0,0,0,0,0,0,0]","[0,0,0,0,0,0,0,0,0,0,0,0,0,0,0,0,0,0]","[0,0,0,0,0,0,0,0,0,0,0,0,0,0,0,0,0,0]","[0.0001999999999497959,0.016500000000000625,0.033100000000089835,0.049399999999906186,0.06610000000009109,0.07769999999995036,0.09969999999994883,0.11610000000008824,0.13310000000009126,0.1493999999999076,0.1666000000000878,0.18289999999990414,0.19989999999990715,0.21680000000004185,0.2326999999999515,0.24919999999995213,0.26610000000009393,0.28300000000000125]",,5,0,5,0,1,,,,
,,A000000000,2022-11-28_10h44.44.473,GoFitts,2022.2.4,Win32,59.97361161,,,,,,,,,,,,,,,,,,"[-42.49999999999998,73.6121593216773]","[56.87610154050297,-63.16731016557849]",77.8,170,0,"[-56.79998779296875,-62.39996337890625,-63.20001220703125,-64.79998779296875,-65.5999755859375,-65.5999755859375,-66.39996337890625,-66.39996337890625,-66.39996337890625,-66.39996337890625,-66.39996337890625,-65.5999755859375,-64,-63.20001220703125,-60.79998779296875,-52.79998779296875,-32.79998779296875,7.20001220703125,45.60003662109375]","[43.199981689453125,53.600006103515625,57.600006103515625,59.199981689453125,61.600006103515625,63.199981689453125,63.199981689453125,64.79998779296875,65.60000610351562,65.60000610351562,65.60000610351562,64.79998779296875,60.79998779296875,56.79998779296875,51.199981689453125,38.399993896484375,12,-27.20001220703125,-50.399993896484375]","[0,0,0,0,0,0,0,0,0,0,0,0,0,0,0,0,0,0,0]","[0,0,0,0,0,0,0,0,0,0,0,0,0,0,0,0,0,0,0]","[0,0,0,0,0,0,0,0,0,0,0,0,0,0,0,0,0,0,0]","[0.0001999999999497959,0.01680000000004611,0.033199999999951046,0.04969999999995167,0.06669999999995468,0.0831999999999482,0.0940999999998553,0.11389999999990152,0.13330000000004105,0.1498999999999029,0.1668999999999059,0.1838999999999018,0.19999999999999574,0.21639999999990778,0.23239999999990602,0.24899999999999523,0.2665000000000006,0.28289999999990556,0.299599999999856]",,6,0,6,0,1,,,,
,,A000000000,2022-11-28_10h44.44.473,GoFitts,2022.2.4,Win32,59.97361161,,,,,,,,,,,,,,,,,,"[56.87610154050297,-63.16731016557849]","[-68.76644452187053,49.961746444860225]",77.8,170,0,"[45.60003662109375,77.60003662109375,99.20001220703125,100.79998779296875,100.79998779296875,101.60003662109375,100.79998779296875,97.60003662109375,95.20001220703125,91.20001220703125,84,73.60003662109375,51.20001220703125,31.20001220703125,6.4000244140625,-10.39996337890625,-24.79998779296875,-28,-32.79998779296875,-35.20001220703125,-39.20001220703125]","[-50.399993896484375,-65.60000610351562,-71.20001220703125,-71.20001220703125,-71.20001220703125,-71.20001220703125,-71.20001220703125,-71.20001220703125,-70.39999389648438,-68.80001831054688,-64.80001831054688,-60,-51.20001220703125,-40.800018310546875,-23.20001220703125,-7.20001220703125,9.600006103515625,15.199981689453125,20.79998779296875,25.600006103515625,28.79998779296875]","[0,0,0,0,0,0,0,0,0,0,0,0,0,0,0,0,0,0,0,0,0]","[0,0,0,0,0,0,0,0,0,0,0,0,0,0,0,0,0,0,0,0,0]","[0,0,0,0,0,0,0,0,0,0,0,0,0,0,0,0,0,0,0,0,0]","[0.0004000000001411763,0.016000000000005343,0.03300000000000125,0.05069999999995645,0.06710000000009586,0.08410000000009887,0.1006999999999536,0.11740000000014561,0.13400000000000034,0.1493000000000464,0.1664000000001451,0.18369999999995912,0.19910000000009376,0.21630000000004657,0.2326000000000974,0.2496000000000933,0.26610000000009393,0.2773000000000465,0.2993000000000521,0.3165000000000049,0.3328000000000486]",,7,0,7,0,1,,,,
,,A000000000,2022-11-28_10h44.44.473,GoFitts,2022.2.4,Win32,59.97361161,,,,,,,,,,,,,,,,,,"[-68.76644452187053,49.961746444860225]","[77.65136389962109,-34.57261466144301]",77.8,170,0,"[-39.20001220703125,-42.39996337890625,-47.20001220703125,-52.79998779296875,-56.79998779296875,-60,-62.39996337890625,-63.20001220703125,-65.5999755859375,-66.39996337890625,-68,-68,-68,-68,-60.79998779296875,-46.39996337890625,-28.79998779296875,-7.20001220703125,20.79998779296875,41.60003662109375,69.60003662109375]","[28.79998779296875,29.600006103515625,30.399993896484375,30.399993896484375,31.199981689453125,32.79998779296875,34.399993896484375,36.79998779296875,40,42.399993896484375,43.199981689453125,43.199981689453125,43.199981689453125,43.199981689453125,33.600006103515625,20,9.600006103515625,1.600006103515625,-6.399993896484375,-9.600006103515625,-16]","[0,0,0,0,0,0,0,0,0,0,0,0,0,0,0,0,0,0,0,0,0]","[0,0,0,0,0,0,0,0,0,0,0,0,0,0,0,0,0,0,0,0,0]","[0,0,0,0,0,0,0,0,0,0,0,0,0,0,0,0,0,0,0,0,0]","[0.0003999999999066972,0.016500000000000625,0.033100000000089835,0.04960000000009046,0.06700000000000017,0.08289999999990272,0.09969999999994883,0.11069999999995161,0.13299999999999557,0.1496999999999531,0.16599999999999682,0.18280000000004293,0.1943000000000481,0.21060000000009182,0.2326000000000903,0.24939999999990903,0.26619999999995514,0.28269999999995576,0.2988999999999109,0.3130000000000024,0.33239999999990744]",,8,0,8,0,1,,,,
,,A000000000,2022-11-28_10h44.44.473,GoFitts,2022.2.4,Win32,59.97361161,,,,,,,,,,,,,,,,,,"[77.65136389962109,-34.57261466144301]","[-83.14254606237348,17.672493719509543]",77.8,170,0,"[69.60003662109375,77.60003662109375,81.60003662109375,81.60003662109375,81.60003662109375,81.60003662109375,81.60003662109375,81.60003662109375,81.60003662109375,81.60003662109375,81.60003662109375,79.20001220703125,76.79998779296875,72,68,60.79998779296875,48,27.20001220703125,4.79998779296875,-18.39996337890625,-45.5999755859375,-64.79998779296875]","[-16,-20.800018310546875,-24.800018310546875,-26.399993896484375,-27.20001220703125,-28,-28,-28,-28,-28,-30.399993896484375,-33.600006103515625,-33.600006103515625,-32.800018310546875,-31.20001220703125,-28,-23.20001220703125,-16.800018310546875,-12.800018310546875,-12.800018310546875,-12.800018310546875,-12.800018310546875]","[0,0,0,0,0,0,0,0,0,0,0,0,0,0,0,0,0,0,0,0,0,0]","[0,0,0,0,0,0,0,0,0,0,0,0,0,0,0,0,0,0,0,0,0,0]","[0,0,0,0,0,0,0,0,0,0,0,0,0,0,0,0,0,0,0,0,0,0]","[0.00029999999981811243,0.017099999999864224,0.03289999999990556,0.050099999999865474,0.06709999999986138,0.08100000000000307,0.10009999999986263,0.11689999999990874,0.12819999999995702,0.14459999999986195,0.16169999999995355,0.18329999999981794,0.19939999999991187,0.21679999999981447,0.2327999999998127,0.24959999999985882,0.2665000000000006,0.28309999999986246,0.2996999999999588,0.3132999999998134,0.3331999999999553,0.34959999999986024]",,9,0,9,0,1,,,,
,,A000000000,2022-11-28_10h44.44.473,GoFitts,2022.2.4,Win32,59.97361161,,,,,,,,,,,,,,,,,,"[-83.14254606237348,17.672493719509543]","[85,0]",77.8,170,0,"[-64.79998779296875,-80.79998779296875,-91.20001220703125,-92.79998779296875,-92.79998779296875,-85.5999755859375,-74.39996337890625,-64.79998779296875,-60,-60,-60,-60,-60,-60,-56,-48.79998779296875,-33.5999755859375,-14.39996337890625,9.60003662109375,47.20001220703125]","[-12.800018310546875,-12.800018310546875,-12.800018310546875,-12.800018310546875,-12.800018310546875,-11.20001220703125,-8.800018310546875,-5.600006103515625,-3.20001220703125,-3.20001220703125,-3.20001220703125,-3.20001220703125,-3.20001220703125,-3.20001220703125,-0.800018310546875,2.399993896484375,5.600006103515625,6.399993896484375,8,8.79998779296875]","[0,0,0,0,0,0,0,0,0,0,0,0,0,0,0,0,0,0,0,0]","[0,0,0,0,0,0,0,0,0,0,0,0,0,0,0,0,0,0,0,0]","[0,0,0,0,0,0,0,0,0,0,0,0,0,0,0,0,0,0,0,0]","[0.0003000000000454861,0.01680000000004611,0.033100000000089835,0.04999999999999716,0.06680000000004327,0.0831000000000941,0.10000000000000142,0.11670000000018632,0.13340000000013674,0.15010000000009427,0.16149999999999665,0.17820000000018155,0.19500000000000028,0.2116000000000895,0.23390000000014055,0.2502000000001843,0.2664000000001394,0.28290000000014004,0.29990000000013595,0.31690000000013896]",,10,0,10,0,1,,,,
,,A000000000,2022-11-28_10h44.44.473,GoFitts,2022.2.4,Win32,59.97361161,,,,,,,,,,,,,,,,,,"[85,0]","[-83.14254606237348,-17.67249371950952]",77.8,170,0,"[47.20001220703125,71.20001220703125,81.60003662109375,87.20001220703125,87.20001220703125,87.20001220703125,87.20001220703125,85.60003662109375,84.79998779296875,84.79998779296875,82.4000244140625,81.60003662109375,80.79998779296875,74.4000244140625,66.4000244140625,52,25.60003662109375,-8.79998779296875,-32.79998779296875,-48.79998779296875,-62.39996337890625]","[8.79998779296875,10.399993896484375,10.399993896484375,10.399993896484375,8.79998779296875,6.399993896484375,4,0,0,0,-1.600006103515625,-1.600006103515625,-1.600006103515625,-1.600006103515625,0,3.199981689453125,6.399993896484375,6.399993896484375,5.600006103515625,0.79998779296875,-8.800018310546875]","[0,0,0,0,0,0,0,0,0,0,0,0,0,0,0,0,0,0,0,0,0]","[0,0,0,0,0,0,0,0,0,0,0,0,0,0,0,0,0,0,0,0,0]","[0,0,0,0,0,0,0,0,0,0,0,0,0,0,0,0,0,0,0,0,0]","[0.00030000000005259153,0.015699999999959857,0.029899999999912552,0.049500000000001876,0.0661999999999594,0.08280000000004861,0.09950000000000614,0.11599999999999966,0.12700000000000244,0.15060000000009666,0.1665000000000063,0.177500000000002,0.1943000000000481,0.2158999999999125,0.2326999999999586,0.24900000000000233,0.26580000000004844,0.2823999999999103,0.2991999999999564,0.315699999999957,0.33239999999990744]",,11,0,11,0,1,,,,
,,A000000000,2022-11-28_10h44.44.473,GoFitts,2022.2.4,Win32,59.97361161,,,,,,,,,,,,,,,,,,"[-83.14254606237348,-17.67249371950952]","[77.65136389962107,34.57261466144301]",77.8,170,0,"[-62.39996337890625,-74.39996337890625,-78.39996337890625,-79.20001220703125,-79.20001220703125,-79.20001220703125,-79.20001220703125,-79.20001220703125,-79.20001220703125,-79.20001220703125,-78.39996337890625,-69.5999755859375,-58.39996337890625,-40.79998779296875,-13.5999755859375,12.79998779296875,36.79998779296875,57.60003662109375]","[-8.800018310546875,-17.600006103515625,-23.20001220703125,-24.800018310546875,-24.800018310546875,-24.800018310546875,-24.800018310546875,-24.800018310546875,-24.800018310546875,-25.600006103515625,-25.600006103515625,-24,-21.600006103515625,-16.800018310546875,-10.399993896484375,-4.800018310546875,2.399993896484375,8]","[0,0,0,0,0,0,0,0,0,0,0,0,0,0,0,0,0,0]","[0,0,0,0,0,0,0,0,0,0,0,0,0,0,0,0,0,0]","[0,0,0,0,0,0,0,0,0,0,0,0,0,0,0,0,0,0]","[0.0003000000000454861,0.017100000000091597,0.033100000000089835,0.05090000000014072,0.06730000000004566,0.07790000000014174,0.09460000000009217,0.11110000000009279,0.12730000000004793,0.14420000000018973,0.16120000000018564,0.18310000000009552,0.20010000000009143,0.21620000000018536,0.2326000000000903,0.25,0.265900000000137,0.28260000000009455]",,12,0,12,0,1,,,,
,,A000000000,2022-11-28_10h44.44.473,GoFitts,2022.2.4,Win32,59.97361161,,,,,,,,,,,,,,,,,,"[77.65136389962107,34.57261466144301]","[-68.76644452187054,-49.96174644486021]",77.8,170,0,"[57.60003662109375,70.4000244140625,76.79998779296875,79.20001220703125,80,80.79998779296875,80.79998779296875,79.20001220703125,78.4000244140625,78.4000244140625,78.4000244140625,78.4000244140625,78.4000244140625,76,70.4000244140625,60,46.4000244140625,24.79998779296875,-1.5999755859375,-37.5999755859375]","[8,12.79998779296875,16.79998779296875,20,24.79998779296875,30.399993896484375,34.399993896484375,36.79998779296875,37.600006103515625,37.600006103515625,37.600006103515625,37.600006103515625,37.600006103515625,35.199981689453125,28,17.600006103515625,7.199981689453125,-8,-21.600006103515625,-32.800018310546875]","[0,0,0,0,0,0,0,0,0,0,0,0,0,0,0,0,0,0,0,0]","[0,0,0,0,0,0,0,0,0,0,0,0,0,0,0,0,0,0,0,0]","[0,0,0,0,0,0,0,0,0,0,0,0,0,0,0,0,0,0,0,0]","[0.0001999999999497959,0.016599999999861836,0.033599999999857744,0.04980000000004736,0.066599999999859,0.08299999999999841,0.1010999999998603,0.11669999999995184,0.13450000000000273,0.15059999999986218,0.16759999999985808,0.18389999999990891,0.20009999999985695,0.21099999999999852,0.23349999999999937,0.2498999999999043,0.26619999999995514,0.28300000000000125,0.2998999999999086,0.31700000000000017]",,13,0,13,0,1,,,,
,,A000000000,2022-11-28_10h44.44.473,GoFitts,2022.2.4,Win32,59.97361161,,,,,,,,,,,,,,,,,,"[-68.76644452187054,-49.96174644486021]","[56.87610154050295,63.16731016557851]",77.8,170,0,"[-37.5999755859375,-64.79998779296875,-79.20001220703125,-85.5999755859375,-87.20001220703125,-87.20001220703125,-87.20001220703125,-87.20001220703125,-87.20001220703125,-87.20001220703125,-87.20001220703125,-87.20001220703125,-85.5999755859375,-82.39996337890625,-74.39996337890625,-62.39996337890625,-39.20001220703125,-18.39996337890625,21.60003662109375,54.4000244140625]","[-32.800018310546875,-40,-46.399993896484375,-49.600006103515625,-52,-53.600006103515625,-53.600006103515625,-53.600006103515625,-53.600006103515625,-53.600006103515625,-53.600006103515625,-54.399993896484375,-52.800018310546875,-48,-43.20001220703125,-34.399993896484375,-18.399993896484375,-2.399993896484375,24,45.600006103515625]","[0,0,0,0,0,0,0,0,0,0,0,0,0,0,0,0,0,0,0,0]","[0,0,0,0,0,0,0,0,0,0,0,0,0,0,0,0,0,0,0,0]","[0,0,0,0,0,0,0,0,0,0,0,0,0,0,0,0,0,0,0,0]","[0.00019999999995690132,0.015599999999864167,0.03200000000000358,0.048699999999954,0.06609999999986371,0.08289999999990982,0.09979999999981715,0.11069999999995161,0.12739999999990914,0.14399999999999835,0.16069999999995588,0.1775999999998632,0.19989999999990715,0.2156999999999556,0.23209999999986053,0.24879999999981095,0.26599999999999824,0.27679999999981675,0.29359999999986286,0.3158999999999068]",,14,0,14,0,1,,,,
,,A000000000,2022-11-28_10h44.44.473,GoFitts,2022.2.4,Win32,59.97361161,,,,,,,,,,,,,,,,,,,,,,0,,,,,,,,,,,,,0,0,0,1
,,A000000000,2022-11-28_10h44.44.473,GoFitts,2022.2.4,Win32,59.97361161,,,,,,,,,,,,,,,,return,0.6842,"[-14.39996337890625,-22.399993896484375]","[-137.49999999999994,238.15698604072065]",32.3,550,1,"[-14.39996337890625,-14.39996337890625,-14.39996337890625,-14.39996337890625,-14.39996337890625,-14.39996337890625,-14.39996337890625,-16.79998779296875,-17.5999755859375,-17.5999755859375,-17.5999755859375,-17.5999755859375,-17.5999755859375,-17.5999755859375,-17.5999755859375,-17.5999755859375,-17.5999755859375,-17.5999755859375,-17.5999755859375,-17.5999755859375,-17.5999755859375,-17.5999755859375,-17.5999755859375,-16.79998779296875,-16,-16,-12.79998779296875,-9.5999755859375,-11.20001220703125,-14.39996337890625,-16.79998779296875,-18.39996337890625,-23.20001220703125,-25.5999755859375,-32,-40,-49.5999755859375,-66.39996337890625,-81.5999755859375,-92,-111.20001220703125,-118.39996337890625,-123.20001220703125,-126.39996337890625,-129.5999755859375]","[-22.399993896484375,-20.800018310546875,-19.20001220703125,-19.20001220703125,-19.20001220703125,-19.20001220703125,-19.20001220703125,-33.600006103515625,-40.800018310546875,-43.20001220703125,-43.20001220703125,-46.399993896484375,-46.399993896484375,-46.399993896484375,-46.399993896484375,-46.399993896484375,-46.399993896484375,-46.399993896484375,-46.399993896484375,-46.399993896484375,-46.399993896484375,-46.399993896484375,-46.399993896484375,-48,-50.399993896484375,-50.399993896484375,-43.20001220703125,-30.399993896484375,-23.20001220703125,-12,-4,5.600006103515625,28,38.399993896484375,54.399993896484375,73.60000610351562,98.39999389648438,132.79998779296875,157.60000610351562,176,205.59999084472656,216,221.59999084472656,224.8000030517578,226.39999389648438]","[0,0,0,0,0,0,0,0,0,0,0,0,0,0,0,0,0,0,0,0,0,0,0,0,0,0,0,0,0,0,0,0,0,0,0,0,0,0,0,0,0,0,0,0,0]","[0,0,0,0,0,0,0,0,0,0,0,0,0,0,0,0,0,0,0,0,0,0,0,0,0,0,0,0,0,0,0,0,0,0,0,0,0,0,0,0,0,0,0,0,0]","[0,0,0,0,0,0,0,0,0,0,0,0,0,0,0,0,0,0,0,0,0,0,0,0,0,0,0,0,0,0,0,0,0,0,0,0,0,0,0,0,0,0,0,0,0]","[0.002400000000136515,0.020800000000043894,0.037700000000185696,0.05430000000004753,0.07099999999999795,0.08180000000004384,0.09870000000018564,0.12120000000018649,0.13770000000018712,0.15380000000004657,0.16550000000000153,0.18230000000004765,0.2042000000001849,0.21570000000018297,0.23780000000004975,0.24890000000014112,0.26550000000000296,0.28230000000004907,0.2988000000000497,0.3156000000000958,0.33210000000009643,0.349200000000188,0.36549999999999727,0.3821000000000936,0.40430000000004895,0.42090000000013816,0.4378000000000455,0.4539000000001394,0.4707000000001855,0.48720000000018615,0.5035000000000025,0.5150000000000006,0.5371000000000947,0.5534000000001384,0.5709000000001367,0.5871000000000919,0.6044000000001404,0.6204999999999998,0.6371000000000961,0.6484000000001373,0.6708000000000496,0.6869000000001364,0.7033000000000484,0.7208000000000467,0.7372000000001862]",,0,0,0,0,1,,,,
,,A000000000,2022-11-28_10h44.44.473,GoFitts,2022.2.4,Win32,59.97361161,,,,,,,,,,,,,,,,,,"[-137.49999999999994,238.15698604072065]","[184.01091674868607,-204.36482700628335]",32.3,550,1,"[-129.5999755859375,-130.39996337890625,-130.39996337890625,-130.39996337890625,-130.39996337890625,-131.20001220703125,-132.79998779296875,-132.79998779296875,-132.79998779296875,-132.79998779296875,-132.79998779296875,-132.79998779296875,-132.79998779296875,-132.79998779296875,-132.79998779296875,-132.79998779296875,-132.79998779296875,-132.79998779296875,-132,-123.20001220703125,-110.39996337890625,-94.39996337890625,-67.20001220703125,-40,-9.5999755859375,32.79998779296875,64,92,112.79998779296875,127.20001220703125,136.79998779296875,139.20001220703125,140,140,140.79998779296875,140.79998779296875,143.20001220703125,145.60003662109375,151.20001220703125,155.20001220703125,159.20001220703125,160.79998779296875,162.4000244140625,165.60003662109375,170.4000244140625,180,187.20001220703125,191.20001220703125]","[226.39999389648438,226.39999389648438,226.39999389648438,226.39999389648438,227.1999969482422,227.1999969482422,227.1999969482422,227.1999969482422,227.1999969482422,227.1999969482422,227.1999969482422,227.1999969482422,227.1999969482422,227.1999969482422,227.1999969482422,227.1999969482422,227.1999969482422,227.1999969482422,224.8000030517578,212,189.59999084472656,158.39999389648438,111.19998168945312,70.39999389648438,30.399993896484375,-13.600006103515625,-40,-59.20001220703125,-70.39999389648438,-77.60000610351562,-83.20001220703125,-84.79998779296875,-86.4000244140625,-88,-92,-96,-102.4000244140625,-111.20001220703125,-130.4000244140625,-141.60003662109375,-147.20001220703125,-151.20001220703125,-153.60003662109375,-158.4000244140625,-166.4000244140625,-179.20001220703125,-186.4000244140625,-190.4000244140625]","[0,0,0,0,0,0,0,0,0,0,0,0,0,0,0,0,0,0,0,0,0,0,0,0,0,0,0,0,0,0,0,0,0,0,0,0,0,0,0,0,0,0,0,0,0,0,0,0]","[0,0,0,0,0,0,0,0,0,0,0,0,0,0,0,0,0,0,0,0,0,0,0,0,0,0,0,0,0,0,0,0,0,0,0,0,0,0,0,0,0,0,0,0,0,0,0,0]","[0,0,0,0,0,0,0,0,0,0,0,0,0,0,0,0,0,0,0,0,0,0,0,0,0,0,0,0,0,0,0,0,0,0,0,0,0,0,0,0,0,0,0,0,0,0,0,0]","[0.00030000000005259153,0.016000000000005343,0.03290000000014004,0.04980000000004736,0.06790000000014373,0.08360000000009649,0.10000000000000142,0.11620000000019104,0.13300000000000267,0.14440000000013953,0.16690000000014038,0.18090000000014328,0.19980000000004594,0.21690000000014464,0.22800000000000153,0.24420000000019115,0.26130000000004827,0.28360000000009933,0.30000000000000426,0.3159000000001413,0.3331000000000941,0.34890000000014254,0.36590000000014555,0.38300000000000267,0.40060000000009666,0.4157000000001858,0.43280000000005003,0.44940000000013924,0.46610000000009677,0.4826000000000974,0.4999000000001459,0.5161000000000939,0.5328000000000515,0.5496000000000976,0.5662000000001868,0.5829000000001443,0.5993000000000492,0.6104000000001406,0.6328000000000458,0.6493000000000464,0.6660000000000039,0.6825000000000045,0.6990000000000052,0.7158000000000513,0.7330000000000041,0.749100000000098,0.7658000000000484,0.7827000000001902]",,1,0,1,0,1,,,,
,,A000000000,2022-11-28_10h44.44.473,GoFitts,2022.2.4,Win32,59.97361161,,,,,,,,,,,,,,,,,,"[184.01091674868607,-204.36482700628335]","[-222.4796734531105,161.64094438043014]",32.3,550,1,"[191.20001220703125,191.20001220703125,191.20001220703125,191.20001220703125,191.20001220703125,191.20001220703125,192,192,192,192,192,192,192,192,192,191.20001220703125,188,181.60003662109375,163.20001220703125,132,85.60003662109375,45.60003662109375,7.20001220703125,-32,-56,-75.20001220703125,-83.20001220703125,-87.20001220703125,-88.79998779296875,-88.79998779296875,-88.79998779296875,-88.79998779296875,-88.79998779296875,-88.79998779296875,-90.39996337890625,-95.20001220703125,-99.20001220703125,-106.39996337890625,-119.20001220703125,-133.5999755859375,-154.39996337890625,-171.20001220703125,-175.20001220703125,-178.39996337890625,-180,-180.79998779296875,-180.79998779296875,-181.5999755859375,-184.79998779296875,-192,-198.39996337890625,-201.5999755859375,-204.79998779296875,-204.79998779296875,-204.79998779296875,-204.79998779296875,-204.79998779296875,-204.79998779296875,-204.79998779296875,-204.79998779296875,-204.79998779296875,-204.79998779296875,-204.79998779296875,-204.79998779296875,-204.79998779296875,-204.79998779296875,-207.20001220703125,-208.79998779296875,-210.39996337890625]","[-190.4000244140625,-190.4000244140625,-190.4000244140625,-190.4000244140625,-190.4000244140625,-190.4000244140625,-190.4000244140625,-190.4000244140625,-192,-192,-193.60003662109375,-194.4000244140625,-194.4000244140625,-194.4000244140625,-194.4000244140625,-189.60003662109375,-184.79998779296875,-179.20001220703125,-160.79998779296875,-130.4000244140625,-86.4000244140625,-57.600006103515625,-32,-5.600006103515625,11.199981689453125,30.399993896484375,40,45.600006103515625,50.399993896484375,51.199981689453125,52.79998779296875,55.199981689453125,55.199981689453125,59.199981689453125,61.600006103515625,66.39999389648438,70.39999389648438,75.19998168945312,81.60000610351562,88.79998779296875,101.60000610351562,112.79998779296875,116.79998779296875,122.39999389648438,126.39999389648438,128.79998779296875,132,135.19998168945312,139.19998168945312,144.79998779296875,147.19998168945312,148,149.60000610351562,149.60000610351562,149.60000610351562,149.60000610351562,149.60000610351562,149.60000610351562,149.60000610351562,149.60000610351562,149.60000610351562,149.60000610351562,149.60000610351562,149.60000610351562,149.60000610351562,149.60000610351562,151.19998168945312,152.79998779296875,154.39999389648438]","[0,0,0,0,0,0,0,0,0,0,0,0,0,0,0,0,0,0,0,0,0,0,0,0,0,0,0,0,0,0,0,0,0,0,0,0,0,0,0,0,0,0,0,0,0,0,0,0,0,0,0,0,0,0,0,0,0,0,0,0,0,0,0,0,0,0,0,0,0]","[0,0,0,0,0,0,0,0,0,0,0,0,0,0,0,0,0,0,0,0,0,0,0,0,0,0,0,0,0,0,0,0,0,0,0,0,0,0,0,0,0,0,0,0,0,0,0,0,0,0,0,0,0,0,0,0,0,0,0,0,0,0,0,0,0,0,0,0,0]","[0,0,0,0,0,0,0,0,0,0,0,0,0,0,0,0,0,0,0,0,0,0,0,0,0,0,0,0,0,0,0,0,0,0,0,0,0,0,0,0,0,0,0,0,0,0,0,0,0,0,0,0,0,0,0,0,0,0,0,0,0,0,0,0,0,0,0,0,0]","[0.0001999999999497959,0.01680000000004611,0.032699999999955764,0.04969999999995167,0.06649999999999778,0.0833000000000439,0.10010000000009,0.11650000000000205,0.13380000000004344,0.15019999999995548,0.16100000000000136,0.18350000000000222,0.20019999999995264,0.21630000000004657,0.23349999999999937,0.24930000000004782,0.26599999999999824,0.28289999999990556,0.2991000000000952,0.3156999999999499,0.3328000000000486,0.34899999999999665,0.3656999999999542,0.3826999999999501,0.3994999999999962,0.4161999999999537,0.43230000000004765,0.44950000000000045,0.4658000000000442,0.48400000000000176,0.4996999999999545,0.5158000000000484,0.5274999999999963,0.5438999999999083,0.5659999999999954,0.5828000000000486,0.5993999999999033,0.6159999999999997,0.6321000000000936,0.6491000000000895,0.6658999999999082,0.6820000000000022,0.6995000000000005,0.7154999999999987,0.7326000000000903,0.749399999999909,0.7666999999999504,0.7824999999999989,0.7965000000000018,0.8155000000000001,0.8323000000000462,0.8434999999999988,0.865899999999904,0.8826999999999501,0.8938000000000486,0.9101000000000923,0.9271999999999494,0.94369999999995,0.9601000000000894,0.982999999999997,0.9939999999999998,1.0103000000000435,1.0273999999999077,1.043999999999997,1.0603000000000478,1.0769999999999982,1.096300000000042,1.1154999999999973,1.1325000000000003]",,2,0,2,0,1,,,,
,,A000000000,2022-11-28_10h44.44.473,GoFitts,2022.2.4,Win32,59.97361161,,,,,,,,,,,,,,,,,,"[-222.4796734531105,161.64094438043014]","[251.22500085171527,-111.85257684584504]",32.3,550,1,"[-210.39996337890625,-212.79998779296875,-212.79998779296875,-213.5999755859375,-213.5999755859375,-213.5999755859375,-214.39996337890625,-215.20001220703125,-215.20001220703125,-215.20001220703125,-215.20001220703125,-215.20001220703125,-215.20001220703125,-215.20001220703125,-212,-200.79998779296875,-182.39996337890625,-154.39996337890625,-109.5999755859375,-72,-33.5999755859375,4,36.79998779296875,68,101.60003662109375,123.20001220703125,140.79998779296875,154.4000244140625,164.79998779296875,169.60003662109375,170.4000244140625,171.20001220703125,171.20001220703125,172.79998779296875,175.20001220703125,178.4000244140625,188,196,204.79998779296875,214.4000244140625,221.60003662109375,224.79998779296875,228.79998779296875,232.79998779296875,236,239.20001220703125]","[154.39999389648438,155.19998168945312,155.19998168945312,155.19998168945312,155.19998168945312,155.19998168945312,156.79998779296875,157.60000610351562,158.39999389648438,158.39999389648438,158.39999389648438,158.39999389648438,158.39999389648438,157.60000610351562,153.60000610351562,141.60000610351562,123.19998168945312,102.39999389648438,68,37.600006103515625,11.199981689453125,-15.20001220703125,-36.800018310546875,-52,-60.800018310546875,-65.60000610351562,-70.39999389648438,-74.39999389648438,-76.80001831054688,-78.39999389648438,-79.20001220703125,-79.20001220703125,-80,-83.20001220703125,-86.4000244140625,-92,-104.79998779296875,-112,-116,-116.79998779296875,-116.79998779296875,-116.79998779296875,-116.79998779296875,-118.4000244140625,-119.20001220703125,-119.20001220703125]","[0,0,0,0,0,0,0,0,0,0,0,0,0,0,0,0,0,0,0,0,0,0,0,0,0,0,0,0,0,0,0,0,0,0,0,0,0,0,0,0,0,0,0,0,0,0]","[0,0,0,0,0,0,0,0,0,0,0,0,0,0,0,0,0,0,0,0,0,0,0,0,0,0,0,0,0,0,0,0,0,0,0,0,0,0,0,0,0,0,0,0,0,0]","[0,0,0,0,0,0,0,0,0,0,0,0,0,0,0,0,0,0,0,0,0,0,0,0,0,0,0,0,0,0,0,0,0,0,0,0,0,0,0,0,0,0,0,0,0,0]","[0.00030000000005259153,0.015800000000048442,0.02739999999990772,0.044000000000004036,0.0660000000000025,0.08169999999995525,0.09960000000009472,0.11589999999991107,0.13250000000000028,0.14980000000004878,0.1665000000000063,0.1771999999999565,0.19980000000005305,0.21630000000004657,0.2326000000000974,0.24930000000004782,0.26600000000000534,0.28260000000009455,0.2991000000000952,0.3158999999999068,0.33269999999996,0.34889999999990806,0.3653999999999087,0.3823000000000505,0.3988000000000511,0.41550000000000153,0.4316999999999567,0.4490000000000052,0.46610000000009677,0.4823000000000519,0.4993000000000478,0.5158999999999097,0.5330000000000013,0.5488999999999109,0.5655000000000001,0.5766999999999598,0.5993000000000492,0.6153999999999087,0.6318000000000481,0.6486000000000942,0.665800000000047,0.6821999999999591,0.6993000000000507,0.7156999999999556,0.7318999999999107,0.7486000000000956]",,3,0,3,0,1,,,,
,,A000000000,2022-11-28_10h44.44.473,GoFitts,2022.2.4,Win32,59.97361161,,,,,,,,,,,,,,,,,,"[251.22500085171527,-111.85257684584504]","[-268.9905902017966,57.17571497488381]",32.3,550,1,"[239.20001220703125,240,240,240,240,240,240,241.60003662109375,241.60003662109375,241.60003662109375,241.60003662109375,241.60003662109375,241.60003662109375,241.60003662109375,241.60003662109375,241.60003662109375,238.4000244140625,225.60003662109375,176.79998779296875,105.60003662109375,16,-76.79998779296875,-136.79998779296875,-187.20001220703125,-208.79998779296875,-217.5999755859375,-220,-220,-220.79998779296875,-222.39996337890625,-224,-227.20001220703125,-228.79998779296875,-228.79998779296875,-228.79998779296875,-229.5999755859375,-232.79998779296875,-243.20001220703125,-254.39996337890625,-275.1999816894531]","[-119.20001220703125,-120,-120,-120,-120,-120,-120,-120,-120,-120,-120,-118.4000244140625,-116.79998779296875,-116.79998779296875,-114.4000244140625,-114.4000244140625,-112.79998779296875,-110.4000244140625,-96,-77.60000610351562,-52.800018310546875,-25.600006103515625,-10.399993896484375,4,10.399993896484375,16,18.399993896484375,19.199981689453125,22.399993896484375,25.600006103515625,28.79998779296875,31.199981689453125,31.199981689453125,31.199981689453125,31.199981689453125,31.199981689453125,33.600006103515625,36,39.199981689453125,46.399993896484375]","[0,0,0,0,0,0,0,0,0,0,0,0,0,0,0,0,0,0,0,0,0,0,0,0,0,0,0,0,0,0,0,0,0,0,0,0,0,0,0,0]","[0,0,0,0,0,0,0,0,0,0,0,0,0,0,0,0,0,0,0,0,0,0,0,0,0,0,0,0,0,0,0,0,0,0,0,0,0,0,0,0]","[0,0,0,0,0,0,0,0,0,0,0,0,0,0,0,0,0,0,0,0,0,0,0,0,0,0,0,0,0,0,0,0,0,0,0,0,0,0,0,0]","[0.0003000000000454861,0.01649999999999352,0.03330000000003963,0.05020000000018143,0.06749999999999545,0.08440000000013725,0.1006000000000924,0.1176000000000883,0.13430000000004583,0.1452000000001803,0.16170000000018092,0.1844999999999999,0.2009999999999934,0.21749999999999403,0.23460000000009273,0.25110000000008625,0.2669000000001347,0.277600000000092,0.30010000000009285,0.31640000000013657,0.333100000000087,0.34890000000013544,0.36649999999999494,0.38330000000004105,0.3996000000000919,0.4164999999999992,0.4327000000001817,0.44980000000004594,0.46640000000013515,0.4828000000000401,0.4998000000000431,0.5164000000001394,0.5333000000000396,0.550800000000045,0.5614999999999952,0.5784999999999982,0.5998000000000445,0.6161000000000882,0.6274999999999977,0.6497000000001805]",,4,0,4,0,1,,,,
,,A000000000,2022-11-28_10h44.44.473,GoFitts,2022.2.4,Win32,59.97361161,,,,,,,,,,,,,,,,,,"[-268.9905902017966,57.17571497488381]","[275,0]",32.3,550,1,"[-275.1999816894531,-283.1999816894531,-284.79998779296875,-285.6000061035156,-285.6000061035156,-284,-280.79998779296875,-280.79998779296875,-280.79998779296875,-280.79998779296875,-280.79998779296875,-280.79998779296875,-280.79998779296875,-280.79998779296875,-280.79998779296875,-280.79998779296875,-280,-269.6000061035156,-252,-224,-184.79998779296875,-136,-62.39996337890625,22.4000244140625,107.20001220703125,172,235.20001220703125,268.800048828125,291.2000732421875,296,297.5999755859375,297.5999755859375,297.5999755859375,297.5999755859375,297.5999755859375,296.800048828125,296.800048828125,296.800048828125,296.800048828125,296,292,282.4000244140625]","[46.399993896484375,51.199981689453125,52.79998779296875,53.600006103515625,55.199981689453125,55.199981689453125,57.600006103515625,57.600006103515625,57.600006103515625,57.600006103515625,57.600006103515625,57.600006103515625,57.600006103515625,57.600006103515625,57.600006103515625,57.600006103515625,57.600006103515625,57.600006103515625,52.79998779296875,44.79998779296875,35.199981689453125,21.600006103515625,1.600006103515625,-15.20001220703125,-28,-33.600006103515625,-33.600006103515625,-33.600006103515625,-33.600006103515625,-33.600006103515625,-33.600006103515625,-33.600006103515625,-33.600006103515625,-33.600006103515625,-33.600006103515625,-32.800018310546875,-29.600006103515625,-26.399993896484375,-23.20001220703125,-19.20001220703125,-14.399993896484375,-7.20001220703125]","[0,0,0,0,0,0,0,0,0,0,0,0,0,0,0,0,0,0,0,0,0,0,0,0,0,0,0,0,0,0,0,0,0,0,0,0,0,0,0,0,0,0]","[0,0,0,0,0,0,0,0,0,0,0,0,0,0,0,0,0,0,0,0,0,0,0,0,0,0,0,0,0,0,0,0,0,0,0,0,0,0,0,0,0,0]","[0,0,0,0,0,0,0,0,0,0,0,0,0,0,0,0,0,0,0,0,0,0,0,0,0,0,0,0,0,0,0,0,0,0,0,0,0,0,0,0,0,0]","[0.0003000000000454861,0.016300000000043724,0.02850000000000108,0.05109999999985604,0.06799999999999784,0.0835000000000008,0.10009999999986263,0.11130000000004259,0.13389999999990465,0.15059999999986218,0.1671999999999514,0.17809999999985848,0.20059999999985934,0.21639999999990778,0.22769999999994894,0.25,0.26659999999986184,0.28300000000000125,0.2995000000000019,0.316300000000048,0.3326999999999529,0.34989999999990573,0.36589999999990397,0.3825000000000003,0.3998000000000488,0.41589999999990823,0.43259999999985865,0.44959999999986167,0.4661999999999509,0.4825000000000017,0.4998999999999043,0.5163000000000437,0.5328000000000443,0.549599999999856,0.5608999999999043,0.5778999999999073,0.5998000000000445,0.6163999999999064,0.632899999999907,0.6493999999999076,0.666099999999858,0.6823999999999089]",,5,0,5,0,1,,,,
,,A000000000,2022-11-28_10h44.44.473,GoFitts,2022.2.4,Win32,59.97361161,,,,,,,,,,,,,,,,,,"[275,0]","[-268.9905902017966,-57.175714974883746]",32.3,550,1,"[282.4000244140625,268,256,242.4000244140625,236,235.20001220703125,235.20001220703125,235.20001220703125,235.20001220703125,236,236,236,236,236,236,236,234.4000244140625,229.60003662109375,216,196,173.60003662109375,117.60003662109375,75.20001220703125,33.60003662109375,-4,-30.39996337890625,-51.20001220703125,-70.39996337890625,-83.20001220703125,-100,-118.39996337890625,-136.79998779296875,-162.39996337890625,-175.20001220703125,-188.79998779296875,-196.79998779296875,-200.79998779296875,-204.79998779296875,-208.79998779296875,-212.79998779296875,-217.5999755859375,-220.79998779296875,-229.5999755859375,-237.5999755859375,-249.5999755859375,-264.79998779296875]","[-7.20001220703125,0.79998779296875,3.199981689453125,4,3.199981689453125,2.399993896484375,2.399993896484375,2.399993896484375,2.399993896484375,3.199981689453125,4.79998779296875,5.600006103515625,7.199981689453125,7.199981689453125,7.199981689453125,7.199981689453125,8,8,5.600006103515625,0.79998779296875,-2.399993896484375,-2.399993896484375,-2.399993896484375,-4,-14.399993896484375,-21.600006103515625,-28,-36.800018310546875,-45.600006103515625,-55.20001220703125,-61.600006103515625,-62.399993896484375,-62.399993896484375,-62.399993896484375,-62.399993896484375,-62.399993896484375,-62.399993896484375,-61.600006103515625,-60.800018310546875,-60,-58.399993896484375,-58.399993896484375,-58.399993896484375,-58.399993896484375,-58.399993896484375,-58.399993896484375]","[0,0,0,0,0,0,0,0,0,0,0,0,0,0,0,0,0,0,0,0,0,0,0,0,0,0,0,0,0,0,0,0,0,0,0,0,0,0,0,0,0,0,0,0,0,0]","[0,0,0,0,0,0,0,0,0,0,0,0,0,0,0,0,0,0,0,0,0,0,0,0,0,0,0,0,0,0,0,0,0,0,0,0,0,0,0,0,0,0,0,0,0,0]","[0,0,0,0,0,0,0,0,0,0,0,0,0,0,0,0,0,0,0,0,0,0,0,0,0,0,0,0,0,0,0,0,0,0,0,0,0,0,0,0,0,0,0,0,0,0]","[0.000200000000184275,0.0169000000001418,0.02790000000013748,0.05010000000009285,0.06740000000014135,0.07840000000013703,0.09460000000009217,0.11170000000018376,0.1283000000000456,0.1454999999999984,0.16750000000000398,0.1843000000000501,0.2007000000001895,0.21730000000004424,0.2284000000001427,0.24470000000018644,0.26170000000018945,0.2834000000001424,0.29980000000004736,0.316300000000048,0.32770000000018484,0.3498000000000445,0.36620000000018393,0.38290000000014146,0.3998000000000488,0.4167000000001835,0.4332000000001841,0.44960000000009614,0.4612000000001899,0.48360000000009506,0.5001000000000957,0.5164000000001394,0.5336000000000922,0.5496000000000905,0.5667000000001892,0.5834000000001396,0.5999000000001402,0.6167000000001863,0.633200000000187,0.6498000000000488,0.6668000000000447,0.6835000000000022,0.6997000000001847,0.716600000000092,0.732999999999997,0.7494999999999976]",,6,0,6,0,1,,,,
,,A000000000,2022-11-28_10h44.44.473,GoFitts,2022.2.4,Win32,59.97361161,,,,,,,,,,,,,,,,,,"[-268.9905902017966,-57.175714974883746]","[251.22500085171524,111.85257684584504]",32.3,550,1,"[-264.79998779296875,-280,-289.6000061035156,-293.6000061035156,-294.3999938964844,-295.1999816894531,-295.1999816894531,-295.1999816894531,-295.1999816894531,-295.1999816894531,-295.1999816894531,-295.1999816894531,-293.6000061035156,-284.79998779296875,-268,-242.39996337890625,-204.79998779296875,-161.5999755859375,-104.79998779296875,-60.79998779296875,-19.20001220703125,32,66.4000244140625,98.4000244140625,120,155.20001220703125,163.20001220703125,183.20001220703125,192,196,200,200,201.60003662109375,203.20001220703125,206.4000244140625,210.4000244140625,215.20001220703125,220.79998779296875,224,228,230.4000244140625,232,235.20001220703125,237.60003662109375]","[-58.399993896484375,-59.20001220703125,-60.800018310546875,-60.800018310546875,-60,-59.20001220703125,-59.20001220703125,-59.20001220703125,-59.20001220703125,-59.20001220703125,-59.20001220703125,-59.20001220703125,-57.600006103515625,-54.399993896484375,-49.600006103515625,-43.20001220703125,-33.600006103515625,-18.399993896484375,7.199981689453125,28.79998779296875,49.600006103515625,66.39999389648438,76,84,86.39999389648438,86.39999389648438,86.39999389648438,86.39999389648438,86.39999389648438,88,90.39999389648438,91.19998168945312,94.39999389648438,96,97.60000610351562,99.19998168945312,100,100.79998779296875,103.19998168945312,105.60000610351562,108.79998779296875,111.19998168945312,115.19998168945312,117.60000610351562]","[0,0,0,0,0,0,0,0,0,0,0,0,0,0,0,0,0,0,0,0,0,0,0,0,0,0,0,0,0,0,0,0,0,0,0,0,0,0,0,0,0,0,0,0]","[0,0,0,0,0,0,0,0,0,0,0,0,0,0,0,0,0,0,0,0,0,0,0,0,0,0,0,0,0,0,0,0,0,0,0,0,0,0,0,0,0,0,0,0]","[0,0,0,0,0,0,0,0,0,0,0,0,0,0,0,0,0,0,0,0,0,0,0,0,0,0,0,0,0,0,0,0,0,0,0,0,0,0,0,0,0,0,0,0]","[0.0003000000000454861,0.015999999999998238,0.03300000000000125,0.049300000000044975,0.06649999999999778,0.08340000000013958,0.09970000000018331,0.1109999999999971,0.12780000000005032,0.14450000000000074,0.1664999999999992,0.17790000000014317,0.20030000000004833,0.21670000000018774,0.232999999999997,0.2494000000001435,0.2663000000000437,0.28310000000009694,0.29960000000009046,0.3160000000000025,0.3331000000000941,0.3500000000000014,0.36610000000009535,0.38280000000004577,0.39399999999999835,0.4163000000000494,0.4274000000001408,0.44950000000000045,0.4660000000000011,0.4831000000000927,0.49900000000000233,0.5107000000001847,0.5330000000000013,0.5504000000001383,0.5661000000000911,0.5829999999999984,0.5994000000001378,0.6167000000001863,0.6325000000000003,0.6491000000000966,0.6672000000001859,0.6824000000001433,0.6997000000001847,0.7158000000000442]",,7,0,7,0,1,,,,
,,A000000000,2022-11-28_10h44.44.473,GoFitts,2022.2.4,Win32,59.97361161,,,,,,,,,,,,,,,,,,"[251.22500085171524,111.85257684584504]","[-222.47967345311054,-161.64094438043008]",32.3,550,1,"[237.60003662109375,240,242.4000244140625,243.20001220703125,243.20001220703125,243.20001220703125,243.20001220703125,243.20001220703125,243.20001220703125,243.20001220703125,243.20001220703125,243.20001220703125,243.20001220703125,243.20001220703125,243.20001220703125,243.20001220703125,234.4000244140625,218.4000244140625,198.4000244140625,168.79998779296875,143.20001220703125,114.4000244140625,80.79998779296875,44.79998779296875,1.60003662109375,-32,-50.39996337890625,-82.39996337890625,-96,-105.5999755859375,-118.39996337890625,-130.39996337890625,-143.20001220703125,-158.39996337890625,-169.5999755859375,-176,-183.20001220703125,-188.79998779296875,-196.79998779296875,-212]","[117.60000610351562,117.60000610351562,117.60000610351562,117.60000610351562,117.60000610351562,117.60000610351562,117.60000610351562,117.60000610351562,117.60000610351562,117.60000610351562,117.60000610351562,117.60000610351562,117.60000610351562,117.60000610351562,117.60000610351562,116.79998779296875,107.19998168945312,93.60000610351562,72.79998779296875,41.600006103515625,14.399993896484375,-15.20001220703125,-49.600006103515625,-79.20001220703125,-104.79998779296875,-115.20001220703125,-120,-125.60003662109375,-128.79998779296875,-132,-134.4000244140625,-135.20001220703125,-136,-138.4000244140625,-140,-141.60003662109375,-142.4000244140625,-142.4000244140625,-144.79998779296875,-153.60003662109375]","[0,0,0,0,0,0,0,0,0,0,0,0,0,0,0,0,0,0,0,0,0,0,0,0,0,0,0,0,0,0,0,0,0,0,0,0,0,0,0,0]","[0,0,0,0,0,0,0,0,0,0,0,0,0,0,0,0,0,0,0,0,0,0,0,0,0,0,0,0,0,0,0,0,0,0,0,0,0,0,0,0]","[0,0,0,0,0,0,0,0,0,0,0,0,0,0,0,0,0,0,0,0,0,0,0,0,0,0,0,0,0,0,0,0,0,0,0,0,0,0,0,0]","[0.0003000000000454861,0.016999999999995907,0.03340000000014243,0.050300000000042644,0.06700000000000017,0.07840000000013703,0.09490000000013765,0.11149999999999949,0.1282000000001844,0.14480000000004623,0.16149999999999665,0.17810000000009296,0.19470000000018217,0.2114000000001397,0.22810000000009012,0.24510000000009313,0.2668000000000461,0.28300000000000125,0.29699999999999704,0.3164999999999978,0.3327000000001874,0.3502000000001857,0.36699999999999733,0.38300000000000267,0.40020000000018285,0.416400000000138,0.4276000000000906,0.44980000000004594,0.46660000000009205,0.4825000000000017,0.499700000000189,0.5166000000000892,0.5277000000001877,0.5502000000001885,0.5664000000001366,0.5829000000001372,0.5997000000001833,0.6109000000001359,0.6278000000000432,0.6499999999999986]",,8,0,8,0,1,,,,
,,A000000000,2022-11-28_10h44.44.473,GoFitts,2022.2.4,Win32,59.97361161,,,,,,,,,,,,,,,,,,"[-222.47967345311054,-161.64094438043008]","[184.01091674868601,204.3648270062834]",32.3,550,1,"[-212,-219.20001220703125,-223.20001220703125,-226.39996337890625,-226.39996337890625,-226.39996337890625,-226.39996337890625,-226.39996337890625,-226.39996337890625,-226.39996337890625,-226.39996337890625,-226.39996337890625,-227.20001220703125,-228,-228.79998779296875,-228.79998779296875,-227.20001220703125,-217.5999755859375,-203.20001220703125,-182.39996337890625,-156,-114.39996337890625,-72.79998779296875,-17.5999755859375,22.4000244140625,61.60003662109375,98.4000244140625,108.79998779296875,112.79998779296875,115.20001220703125,115.20001220703125,116,116,116,117.60003662109375,119.20001220703125,120,123.20001220703125,127.20001220703125,133.60003662109375,144.79998779296875,160,173.60003662109375,196.79998779296875,201.60003662109375,203.20001220703125,203.20001220703125,203.20001220703125,203.20001220703125,200.79998779296875,197.60003662109375,196]","[-153.60003662109375,-165.60003662109375,-178.4000244140625,-187.20001220703125,-188,-188,-188,-188,-188,-189.60003662109375,-189.60003662109375,-188.79998779296875,-187.20001220703125,-184.79998779296875,-181.60003662109375,-176.79998779296875,-168.79998779296875,-154.4000244140625,-135.20001220703125,-112,-85.60003662109375,-42.399993896484375,-2.399993896484375,41.600006103515625,72.79998779296875,104.79998779296875,135.19998168945312,146.39999389648438,152,156,159.19998168945312,160.79998779296875,161.60000610351562,162.39999389648438,164.79998779296875,167.19998168945312,169.60000610351562,172.79998779296875,173.60000610351562,173.60000610351562,173.60000610351562,173.60000610351562,175.19998168945312,182.39999389648438,184,186.39999389648438,188.8000030517578,189.59999084472656,190.39999389648438,192,195.1999969482422,198.39999389648438]","[0,0,0,0,0,0,0,0,0,0,0,0,0,0,0,0,0,0,0,0,0,0,0,0,0,0,0,0,0,0,0,0,0,0,0,0,0,0,0,0,0,0,0,0,0,0,0,0,0,0,0,0]","[0,0,0,0,0,0,0,0,0,0,0,0,0,0,0,0,0,0,0,0,0,0,0,0,0,0,0,0,0,0,0,0,0,0,0,0,0,0,0,0,0,0,0,0,0,0,0,0,0,0,0,0]","[0,0,0,0,0,0,0,0,0,0,0,0,0,0,0,0,0,0,0,0,0,0,0,0,0,0,0,0,0,0,0,0,0,0,0,0,0,0,0,0,0,0,0,0,0,0,0,0,0,0,0,0]","[0.0004000000001411763,0.015900000000144132,0.03249999999999886,0.04919999999995639,0.0660000000000025,0.08280000000004861,0.09410000000009688,0.110900000000143,0.13340000000014385,0.14940000000014209,0.1663000000000494,0.1844999999999999,0.19969999999995736,0.21600000000000108,0.2326999999999586,0.2494000000001435,0.263199999999955,0.28260000000009455,0.2991000000000952,0.3160000000000025,0.3329999999999984,0.34969999999995593,0.3656999999999542,0.38280000000004577,0.39360000000009165,0.41160000000009234,0.43230000000004765,0.44930000000005066,0.46590000000013987,0.47730000000004935,0.4991999999999521,0.5161000000000939,0.5324000000001448,0.5494000000001407,0.5661999999999523,0.5820000000000007,0.5993000000000492,0.615600000000093,0.6321999999999548,0.6493000000000464,0.6656000000000972,0.6823000000000476,0.6936000000000959,0.7131999999999579,0.7270000000000039,0.749100000000098,0.7659000000001441,0.7830000000000013,0.7996000000000976,0.8161000000000982,0.8326999999999529,0.8516999999999584]",,9,0,9,0,1,,,,
,,A000000000,2022-11-28_10h44.44.473,GoFitts,2022.2.4,Win32,59.97361161,,,,,,,,,,,,,,,,,,"[184.01091674868601,204.3648270062834]","[-137.5000000000001,-238.1569860407206]",32.3,550,1,"[196,194.4000244140625,192.79998779296875,192,192,191.20001220703125,190.4000244140625,189.60003662109375,188.79998779296875,188.79998779296875,187.20001220703125,186.4000244140625,184.79998779296875,184.79998779296875,184,181.60003662109375,172,152.79998779296875,126.4000244140625,83.20001220703125,68,19.20001220703125,-3.20001220703125,-23.20001220703125,-41.5999755859375,-55.20001220703125,-64,-72.79998779296875,-80,-84.79998779296875,-91.20001220703125,-98.39996337890625,-106.39996337890625,-115.20001220703125,-120,-121.5999755859375,-121.5999755859375,-121.5999755859375,-121.5999755859375,-121.5999755859375,-121.5999755859375,-122.39996337890625,-126.39996337890625,-132.79998779296875,-137.5999755859375,-142.39996337890625]","[198.39999389648438,201.59999084472656,203.1999969482422,204.8000030517578,204.8000030517578,206.39999389648438,206.39999389648438,206.39999389648438,206.39999389648438,206.39999389648438,206.39999389648438,206.39999389648438,205.59999084472656,202.39999389648438,196.8000030517578,190.39999389648438,168,135.19998168945312,94.39999389648438,36.79998779296875,16.79998779296875,-29.600006103515625,-48,-61.600006103515625,-74.39999389648438,-88.79998779296875,-101.60003662109375,-115.20001220703125,-128,-136.79998779296875,-144.79998779296875,-157.60003662109375,-169.60003662109375,-183.20001220703125,-196,-204.79998779296875,-211.20001220703125,-212,-212,-212,-212,-213.60003662109375,-216,-218.4000244140625,-221.60003662109375,-224]","[0,0,0,0,0,0,0,0,0,0,0,0,0,0,0,0,0,0,0,0,0,0,0,0,0,0,0,0,0,0,0,0,0,0,0,0,0,0,0,0,0,0,0,0,0,0]","[0,0,0,0,0,0,0,0,0,0,0,0,0,0,0,0,0,0,0,0,0,0,0,0,0,0,0,0,0,0,0,0,0,0,0,0,0,0,0,0,0,0,0,0,0,0]","[0,0,0,0,0,0,0,0,0,0,0,0,0,0,0,0,0,0,0,0,0,0,0,0,0,0,0,0,0,0,0,0,0,0,0,0,0,0,0,0,0,0,0,0,0,0]","[0.0015000000000000568,0.013500000000000512,0.03060000000009211,0.04840000000013589,0.06410000000009575,0.08880000000004884,0.09620000000018791,0.113900000000136,0.13100000000000023,0.14649999999999608,0.15749999999999886,0.17940000000013612,0.19610000000009364,0.21270000000018285,0.22920000000018348,0.24060000000009296,0.2634000000001393,0.27920000000018774,0.29590000000013816,0.3128000000000455,0.32399999999999807,0.3463000000000491,0.36249999999999716,0.3789999999999978,0.39620000000018507,0.4128000000000469,0.4294000000001361,0.44299999999999784,0.46290000000013976,0.4789999999999992,0.495900000000141,0.5127000000001871,0.5289000000001423,0.5457000000001884,0.5627000000001843,0.5796000000000916,0.5957000000001855,0.612400000000136,0.629400000000139,0.6404999999999959,0.6571000000000922,0.6741000000000952,0.6961000000000936,0.7128000000000441,0.7291000000000949,0.7460000000000022]",,10,0,10,0,1,,,,
,,A000000000,2022-11-28_10h44.44.473,GoFitts,2022.2.4,Win32,59.97361161,,,,,,,,,,,,,,,,,,"[-137.5000000000001,-238.1569860407206]","[84.97967345311055,261.5405419811672]",32.3,550,1,"[-142.39996337890625,-146.39996337890625,-147.20001220703125,-147.20001220703125,-147.20001220703125,-147.20001220703125,-147.20001220703125,-147.20001220703125,-147.20001220703125,-147.20001220703125,-147.20001220703125,-148,-148,-149.5999755859375,-151.20001220703125,-151.20001220703125,-148.79998779296875,-140.79998779296875,-129.5999755859375,-110.39996337890625,-75.20001220703125,-48.79998779296875,-28,-8,6.4000244140625,15.20001220703125,18.4000244140625,20,20.79998779296875,25.60003662109375,27.20001220703125,27.20001220703125,27.20001220703125,27.20001220703125,27.20001220703125,28,39.20001220703125,60.79998779296875,80,95.20001220703125]","[-224,-227.20001220703125,-227.20001220703125,-227.20001220703125,-227.20001220703125,-227.20001220703125,-227.20001220703125,-227.20001220703125,-227.20001220703125,-227.20001220703125,-228,-217.60003662109375,-204,-188,-180.79998779296875,-177.60003662109375,-166.4000244140625,-140,-102.4000244140625,-52.800018310546875,18.399993896484375,62.399993896484375,96.79998779296875,124.79998779296875,144,160,168.79998779296875,173.60000610351562,177.59999084472656,185.59999084472656,192,198.39999389648438,203.1999969482422,205.59999084472656,207.1999969482422,209.59999084472656,216,231.1999969482422,243.1999969482422,253.59999084472656]","[0,0,0,0,0,0,0,0,0,0,0,0,0,0,0,0,0,0,0,0,0,0,0,0,0,0,0,0,0,0,0,0,0,0,0,0,0,0,0,0]","[0,0,0,0,0,0,0,0,0,0,0,0,0,0,0,0,0,0,0,0,0,0,0,0,0,0,0,0,0,0,0,0,0,0,0,0,0,0,0,0]","[0,0,0,0,0,0,0,0,0,0,0,0,0,0,0,0,0,0,0,0,0,0,0,0,0,0,0,0,0,0,0,0,0,0,0,0,0,0,0,0]","[0.00030000000005259153,0.016000000000005343,0.03300000000000125,0.04430000000004952,0.0663999999999092,0.08339999999991221,0.0941999999999581,0.11639999999990636,0.1280000000000001,0.1500999999998598,0.1668000000000518,0.18250000000000455,0.19930000000005066,0.21719999999995565,0.2328000000000472,0.2438999999999112,0.26619999999995514,0.28300000000000125,0.2995000000000019,0.3158000000000527,0.3325000000000031,0.34959999999986024,0.36580000000004986,0.3823000000000505,0.39380000000004856,0.4161999999999537,0.43219999999995906,0.44919999999995497,0.46039999999990755,0.4830999999998653,0.4995000000000047,0.5158000000000484,0.532500000000006,0.5495999999998631,0.566300000000048,0.5770999999998665,0.5993000000000492,0.6158000000000499,0.6323999999999117,0.6488999999999123]",,11,0,11,0,1,,,,
,,A000000000,2022-11-28_10h44.44.473,GoFitts,2022.2.4,Win32,59.97361161,,,,,,,,,,,,,,,,,,"[84.97967345311055,261.5405419811672]","[-28.745327398604914,-273.49352122627516]",32.3,550,1,"[95.20001220703125,103.20001220703125,106.4000244140625,106.4000244140625,106.4000244140625,105.60003662109375,105.60003662109375,105.60003662109375,105.60003662109375,105.60003662109375,104.79998779296875,102.4000244140625,100.79998779296875,98.4000244140625,93.60003662109375,88.79998779296875,85.60003662109375,82.4000244140625,82.4000244140625,82.4000244140625,82.4000244140625,82.4000244140625,82.4000244140625,69.60003662109375,52.79998779296875,33.60003662109375,4.79998779296875,-12.79998779296875,-23.20001220703125,-28.79998779296875,-33.5999755859375,-34.39996337890625,-36,-36,-36,-36,-36,-36,-36,-37.5999755859375,-40,-41.5999755859375,-41.5999755859375,-41.5999755859375,-40.79998779296875,-38.39996337890625,-36,-36,-36,-36,-36]","[253.59999084472656,265.59999084472656,271.1999969482422,273.59999084472656,275.1999969482422,276.8000030517578,276.8000030517578,276.8000030517578,276.8000030517578,276.8000030517578,276.8000030517578,275.1999969482422,272.8000030517578,269.59999084472656,264,257.59999084472656,252,247.1999969482422,245.59999084472656,240.8000030517578,232.8000030517578,210.39999389648438,174.39999389648438,111.19998168945312,52,2.399993896484375,-40.800018310546875,-61.600006103515625,-74.39999389648438,-88.79998779296875,-110.4000244140625,-129.60003662109375,-144.79998779296875,-153.60003662109375,-164,-170.4000244140625,-174.4000244140625,-182.4000244140625,-198.4000244140625,-210.4000244140625,-220.79998779296875,-230.4000244140625,-236,-240.79998779296875,-243.20001220703125,-245.60003662109375,-248.79998779296875,-251.20001220703125,-253.60003662109375,-255.20001220703125,-259.20001220703125]","[0,0,0,0,0,0,0,0,0,0,0,0,0,0,0,0,0,0,0,0,0,0,0,0,0,0,0,0,0,0,0,0,0,0,0,0,0,0,0,0,0,0,0,0,0,0,0,0,0,0,0]","[0,0,0,0,0,0,0,0,0,0,0,0,0,0,0,0,0,0,0,0,0,0,0,0,0,0,0,0,0,0,0,0,0,0,0,0,0,0,0,0,0,0,0,0,0,0,0,0,0,0,0]","[0,0,0,0,0,0,0,0,0,0,0,0,0,0,0,0,0,0,0,0,0,0,0,0,0,0,0,0,0,0,0,0,0,0,0,0,0,0,0,0,0,0,0,0,0,0,0,0,0,0,0]","[0.0004000000001411763,0.016600000000096315,0.03310000000009694,0.05000000000000426,0.06400000000000006,0.07810000000009154,0.09450000000000358,0.1110000000000042,0.1281000000000958,0.14490000000014192,0.16150000000000375,0.18440000000013868,0.19930000000005066,0.21340000000014214,0.23340000000013816,0.25,0.26619999999995514,0.28290000000014004,0.30010000000009285,0.316300000000048,0.3329999999999984,0.34949999999999903,0.36669999999995184,0.3826999999999572,0.3995000000000033,0.4161999999999537,0.4341999999999544,0.450400000000144,0.46590000000013987,0.4826999999999586,0.4996999999999545,0.5158000000000484,0.5331999999999582,0.5443000000000495,0.5666000000000935,0.5826999999999529,0.599499999999999,0.6159999999999997,0.6329000000001415,0.6496999999999531,0.6659000000001427,0.6826999999999543,0.6996999999999574,0.7159000000001399,0.7331000000000927,0.7496000000000933,0.7663000000000508,0.7826999999999558,0.7996999999999588,0.8164000000001437,0.8331000000000941]",,12,0,12,0,1,,,,
,,A000000000,2022-11-28_10h44.44.473,GoFitts,2022.2.4,Win32,59.97361161,,,,,,,,,,,,,,,,,,"[-28.745327398604914,-273.49352122627516]","[-28.745327398604665,273.49352122627516]",32.3,550,1,"[-36,-36,-36,-36,-36,-36,-34.39996337890625,-34.39996337890625,-34.39996337890625,-34.39996337890625,-33.5999755859375,-33.5999755859375,-33.5999755859375,-32.79998779296875,-27.20001220703125,-24.79998779296875,-23.20001220703125,-23.20001220703125,-23.20001220703125,-27.20001220703125,-30.39996337890625,-30.39996337890625,-30.39996337890625,-30.39996337890625,-32,-40,-46.39996337890625,-51.20001220703125,-52,-53.5999755859375,-53.5999755859375,-52.79998779296875,-52,-48.79998779296875,-48,-45.5999755859375,-44,-40,-37.5999755859375,-35.20001220703125,-33.5999755859375,-32]","[-259.20001220703125,-261.60003662109375,-265.60003662109375,-268,-273.60003662109375,-276,-276.79998779296875,-276.79998779296875,-276.79998779296875,-276.79998779296875,-273.60003662109375,-269.60003662109375,-268.79998779296875,-265.60003662109375,-254.4000244140625,-244,-221.60003662109375,-199.20001220703125,-161.60003662109375,-124.79998779296875,-96,-43.20001220703125,19.199981689453125,68,106.39999389648438,148,174.39999389648438,191.1999969482422,197.59999084472656,201.59999084472656,204.8000030517578,207.1999969482422,209.59999084472656,212,212,215.1999969482422,220,228.8000030517578,237.59999084472656,246.39999389648438,252.8000030517578,258.3999938964844]","[0,0,0,0,0,0,0,0,0,0,0,0,0,0,0,0,0,0,0,0,0,0,0,0,0,0,0,0,0,0,0,0,0,0,0,0,0,0,0,0,0,0]","[0,0,0,0,0,0,0,0,0,0,0,0,0,0,0,0,0,0,0,0,0,0,0,0,0,0,0,0,0,0,0,0,0,0,0,0,0,0,0,0,0,0]","[0,0,0,0,0,0,0,0,0,0,0,0,0,0,0,0,0,0,0,0,0,0,0,0,0,0,0,0,0,0,0,0,0,0,0,0,0,0,0,0,0,0]","[0.00029999999981811243,0.016799999999818738,0.03239999999991028,0.04369999999995855,0.0663999999999092,0.07969999999995281,0.0938999999999055,0.11069999999995872,0.12750000000000483,0.14419999999995525,0.16100000000000136,0.1769999999999996,0.19369999999995713,0.21099999999999852,0.23259999999986292,0.2436999999999543,0.26600000000000534,0.2771999999999579,0.2991999999999564,0.31539999999991153,0.3270000000000053,0.34939999999991045,0.3657999999998154,0.3826999999999572,0.3993999999999076,0.41539999999990584,0.43239999999990886,0.4486999999999526,0.4656999999999556,0.4825999999998629,0.49900000000000233,0.5156999999999528,0.5324999999999989,0.5490999999998607,0.5605999999998659,0.5826999999999529,0.5988999999999081,0.6151999999999589,0.6325999999998615,0.6488999999999123,0.6656999999999584,0.6820000000000022]",,13,0,13,0,1,,,,
,,A000000000,2022-11-28_10h44.44.473,GoFitts,2022.2.4,Win32,59.97361161,,,,,,,,,,,,,,,,,,"[-28.745327398604665,273.49352122627516]","[84.9796734531105,-261.5405419811673]",32.3,550,1,"[-32,-31.20001220703125,-30.39996337890625,-30.39996337890625,-30.39996337890625,-31.20001220703125,-31.20001220703125,-31.20001220703125,-31.20001220703125,-31.20001220703125,-31.20001220703125,-31.20001220703125,-31.20001220703125,-31.20001220703125,-32,-32,-26.39996337890625,-21.5999755859375,-10.39996337890625,-0.79998779296875,11.20001220703125,26.4000244140625,42.4000244140625,55.20001220703125,64,76,81.60003662109375,84,84,84,84]","[258.3999938964844,262.3999938964844,266.3999938964844,269.59999084472656,271.1999969482422,272.8000030517578,273.59999084472656,273.59999084472656,273.59999084472656,273.59999084472656,273.59999084472656,273.59999084472656,273.59999084472656,273.59999084472656,265.59999084472656,252,230.39999389648438,211.1999969482422,168,134.39999389648438,97.60000610351562,42.399993896484375,-10.399993896484375,-61.600006103515625,-96,-138.4000244140625,-165.60003662109375,-184,-205.60003662109375,-235.20001220703125,-257.60003662109375]","[0,0,0,0,0,0,0,0,0,0,0,0,0,0,0,0,0,0,0,0,0,0,0,0,0,0,0,0,0,0,0]","[0,0,0,0,0,0,0,0,0,0,0,0,0,0,0,0,0,0,0,0,0,0,0,0,0,0,0,0,0,0,0]","[0,0,0,0,0,0,0,0,0,0,0,0,0,0,0,0,0,0,0,0,0,0,0,0,0,0,0,0,0,0,0]","[0.00039999999991380264,0.017099999999864224,0.03309999999986246,0.05000000000000426,0.061399999999913746,0.08389999999990749,0.10019999999995832,0.11700000000000443,0.13400000000000034,0.15100000000000335,0.1670999999998628,0.17850000000000676,0.19530000000005288,0.21769999999995804,0.23519999999995633,0.24969999999995451,0.2665000000000006,0.2783999999999125,0.30059999999986076,0.3163999999999092,0.3330999999998667,0.34959999999986735,0.36619999999995656,0.3831999999999596,0.39439999999991215,0.4165999999998604,0.43319999999995673,0.44989999999990715,0.46680000000004895,0.4833000000000496,0.5005000000000024]",,14,0,14,0,1,,,,
,,A000000000,2022-11-28_10h44.44.473,GoFitts,2022.2.4,Win32,59.97361161,,,,,,,,,,,,,,,,,,,,,,1,,,,,,,,,,,,,1,0,0,1
,,A000000000,2022-11-28_10h44.44.473,GoFitts,2022.2.4,Win32,59.97361161,,,,,,,,,,,,,,,,return,0.6882,"[-54.39996337890625,28.79998779296875]","[234.19571222560037,260.100688917088]",20,700,2,"[-54.39996337890625,-54.39996337890625,-54.39996337890625,-54.39996337890625,-54.39996337890625,-53.5999755859375,-52.79998779296875,-50.39996337890625,-48,-44,-38.39996337890625,-24,-15.20001220703125,-8,-1.5999755859375,-0.79998779296875,-0.79998779296875,-0.79998779296875,-0.79998779296875,-0.79998779296875,-0.79998779296875,-0.79998779296875,-0.79998779296875,-0.79998779296875,0.79998779296875,0.79998779296875,0.79998779296875,1.60003662109375,5.60003662109375,11.20001220703125,19.20001220703125,19.20001220703125,20.79998779296875,23.20001220703125,29.60003662109375,38.4000244140625,48,60,73.60003662109375,97.60003662109375,118.4000244140625,132.79998779296875,152,159.20001220703125,164.79998779296875,169.60003662109375,174.4000244140625,179.20001220703125,182.4000244140625,184.79998779296875,184.79998779296875,184.79998779296875,184.79998779296875,184.79998779296875,192,201.60003662109375,211.20001220703125,217.60003662109375,221.60003662109375,222.4000244140625,222.4000244140625,221.60003662109375,221.60003662109375,220.79998779296875,220.79998779296875,220.79998779296875,220.79998779296875,220,220,219.20001220703125,219.20001220703125,219.20001220703125,220,221.60003662109375,224,228]","[28.79998779296875,28.79998779296875,28.79998779296875,28.79998779296875,28.79998779296875,28.79998779296875,28.79998779296875,28.79998779296875,28,25.600006103515625,21.600006103515625,14.399993896484375,10.399993896484375,6.399993896484375,3.199981689453125,3.199981689453125,3.199981689453125,3.199981689453125,3.199981689453125,3.199981689453125,3.199981689453125,3.199981689453125,3.199981689453125,3.199981689453125,0,0,0,-0.800018310546875,1.600006103515625,8,22.399993896484375,32,40,46.399993896484375,56.79998779296875,73.60000610351562,89.60000610351562,108,128,147.19998168945312,160,168.79998779296875,182.39999389648438,188,195.1999969482422,200.8000030517578,204.8000030517578,208,212,215.1999969482422,217.59999084472656,221.59999084472656,221.59999084472656,221.59999084472656,224.8000030517578,228,232,235.1999969482422,238.39999389648438,240,243.1999969482422,244.8000030517578,245.59999084472656,247.1999969482422,247.1999969482422,247.1999969482422,249.59999084472656,253.59999084472656,255.1999969482422,258.3999938964844,259.1999969482422,260.8000030517578,261.59999084472656,262.3999938964844,262.3999938964844,263.1999969482422]","[0,0,0,0,0,0,0,0,0,0,0,0,0,0,0,0,0,0,0,0,0,0,0,0,0,0,0,0,0,0,0,0,0,0,0,0,0,0,0,0,0,0,0,0,0,0,0,0,0,0,0,0,0,0,0,0,0,0,0,0,0,0,0,0,0,0,0,0,0,0,0,0,0,0,0,0]","[0,0,0,0,0,0,0,0,0,0,0,0,0,0,0,0,0,0,0,0,0,0,0,0,0,0,0,0,0,0,0,0,0,0,0,0,0,0,0,0,0,0,0,0,0,0,0,0,0,0,0,0,0,0,0,0,0,0,0,0,0,0,0,0,0,0,0,0,0,0,0,0,0,0,0,0]","[0,0,0,0,0,0,0,0,0,0,0,0,0,0,0,0,0,0,0,0,0,0,0,0,0,0,0,0,0,0,0,0,0,0,0,0,0,0,0,0,0,0,0,0,0,0,0,0,0,0,0,0,0,0,0,0,0,0,0,0,0,0,0,0,0,0,0,0,0,0,0,0,0,0,0,0]","[0.002899999999911529,0.02089999999991221,0.036199999999958266,0.04789999999990613,0.06459999999986366,0.08200000000000074,0.10450000000000159,0.12089999999990653,0.13619999999995258,0.1528999999999101,0.16430000000004696,0.18639999999990664,0.20309999999986417,0.21430000000005123,0.23799999999999955,0.2535000000000025,0.2698000000000462,0.2813000000000514,0.2980000000000018,0.320399999999907,0.33130000000004856,0.34830000000005157,0.3648999999999063,0.3815000000000026,0.3983000000000487,0.4205999999998653,0.4344999999999999,0.4483999999999071,0.47019999999995576,0.48130000000004713,0.503199999999957,0.5195000000000007,0.5358999999999128,0.5474999999999994,0.5700999999998615,0.5865000000000009,0.6030000000000015,0.6193000000000524,0.636099999999864,0.6533000000000513,0.6691999999999538,0.680699999999959,0.7031999999999528,0.7195000000000036,0.7358000000000473,0.7528000000000503,0.7696999999999576,0.7863999999999081,0.8026999999999589,0.8196999999999548,0.8358999999999099,0.8524999999999991,0.8695000000000022,0.8808999999999116,0.9028000000000489,0.9193000000000495,0.9358000000000501,0.9473999999999094,0.970000000000006,0.9858999999999085,1.002599999999866,1.0195000000000007,1.036399999999908,1.0530999999998656,1.0695999999998662,1.0810999999998643,1.098000000000006,1.119699999999959,1.1363000000000483,1.1525999999998646,1.1693000000000495,1.1860999999998612,1.2025000000000006,1.219399999999908,1.236399999999911,1.2526999999999546]",,0,0,0,0,1,,,,
,,A000000000,2022-11-28_10h44.44.473,GoFitts,2022.2.4,Win32,59.97361161,,,,,,,,,,,,,,,,,,"[234.19571222560037,260.100688917088]","[-175.00000000000014,-303.1088913245535]",20,700,2,"[228,231.20001220703125,232,232,232,232,232,232,232,232,232,232,232,232,232,232,223.20001220703125,199.20001220703125,173.60003662109375,142.4000244140625,121.60003662109375,78.4000244140625,53.60003662109375,35.20001220703125,22.4000244140625,12.79998779296875,9.60003662109375,7.20001220703125,6.4000244140625,1.60003662109375,-5.5999755859375,-13.5999755859375,-21.5999755859375,-32.79998779296875,-42.39996337890625,-51.20001220703125,-62.39996337890625,-72.79998779296875,-84,-95.20001220703125,-105.5999755859375,-113.5999755859375,-122.39996337890625,-127.20001220703125,-131.20001220703125,-134.39996337890625,-140.79998779296875,-144,-148.79998779296875,-156.79998779296875,-160.79998779296875,-164.79998779296875,-171.20001220703125,-174.39996337890625,-177.5999755859375]","[263.1999969482422,264,264,264,264,264,264,264,264,264,264,264,264,264,264,264,255.1999969482422,230.39999389648438,201.59999084472656,164,136,77.60000610351562,44,16,-3.20001220703125,-20.800018310546875,-33.600006103515625,-48,-60.800018310546875,-77.60000610351562,-92,-104.79998779296875,-116.79998779296875,-132.79998779296875,-146.4000244140625,-157.60003662109375,-169.60003662109375,-177.60003662109375,-185.60003662109375,-193.60003662109375,-200.79998779296875,-206.4000244140625,-216,-220.79998779296875,-226.4000244140625,-230.4000244140625,-238.4000244140625,-243.20001220703125,-251.20001220703125,-257.60003662109375,-267.20001220703125,-276,-286.4000244140625,-291.20001220703125,-296.79998779296875]","[0,0,0,0,0,0,0,0,0,0,0,0,0,0,0,0,0,0,0,0,0,0,0,0,0,0,0,0,0,0,0,0,0,0,0,0,0,0,0,0,0,0,0,0,0,0,0,0,0,0,0,0,0,0,0]","[0,0,0,0,0,0,0,0,0,0,0,0,0,0,0,0,0,0,0,0,0,0,0,0,0,0,0,0,0,0,0,0,0,0,0,0,0,0,0,0,0,0,0,0,0,0,0,0,0,0,0,0,0,0,0]","[0,0,0,0,0,0,0,0,0,0,0,0,0,0,0,0,0,0,0,0,0,0,0,0,0,0,0,0,0,0,0,0,0,0,0,0,0,0,0,0,0,0,0,0,0,0,0,0,0,0,0,0,0,0,0]","[0.0003000000000454861,0.016400000000139414,0.032800000000051455,0.049600000000097566,0.06670000000018916,0.08390000000014197,0.09460000000009217,0.11110000000009279,0.12780000000005032,0.14460000000009643,0.16120000000018564,0.17760000000009768,0.1943000000000481,0.2113000000000511,0.22780000000004463,0.24420000000019115,0.2609000000001416,0.28260000000009455,0.299300000000045,0.3156000000000958,0.32710000000009387,0.34949999999999903,0.36630000000004515,0.38320000000018695,0.3992000000001852,0.416400000000138,0.43250000000000455,0.44960000000009614,0.46590000000013987,0.482700000000186,0.49900000000000233,0.5157000000001872,0.5330000000000013,0.5492000000001909,0.5662000000001868,0.5828000000000486,0.5991000000000923,0.6158000000000499,0.634100000000096,0.6488000000000511,0.665800000000047,0.6771000000000953,0.6992000000001894,0.7156000000000944,0.7324000000001405,0.749100000000098,0.7659999999999982,0.7769000000001398,0.7968000000000472,0.8157000000001844,0.8323000000000462,0.8436000000000945,0.8657000000001887,0.8771000000000981,0.8988000000000511]",,1,0,1,0,1,,,,
,,A000000000,2022-11-28_10h44.44.473,GoFitts,2022.2.4,Win32,59.97361161,,,,,,,,,,,,,,,,,,"[-175.00000000000014,-303.1088913245535]","[108.1559480312316,332.8697807033037]",20,700,2,"[-177.5999755859375,-177.5999755859375,-177.5999755859375,-177.5999755859375,-177.5999755859375,-177.5999755859375,-177.5999755859375,-177.5999755859375,-177.5999755859375,-177.5999755859375,-177.5999755859375,-177.5999755859375,-177.5999755859375,-177.5999755859375,-177.5999755859375,-177.5999755859375,-177.5999755859375,-177.5999755859375,-169.5999755859375,-160,-149.5999755859375,-123.20001220703125,-93.5999755859375,-58.39996337890625,-20,31.20001220703125,58.4000244140625,100,136.79998779296875,148,180.79998779296875,204,218.4000244140625,229.60003662109375,244.79998779296875,252,256,255.20001220703125,249.60003662109375,242.4000244140625,232.79998779296875,223.20001220703125,208.79998779296875,193.60003662109375,160,143.20001220703125,125.60003662109375,122.4000244140625,121.60003662109375,119.20001220703125,116.79998779296875,114.4000244140625]","[-296.79998779296875,-297.60003662109375,-297.60003662109375,-297.60003662109375,-297.60003662109375,-297.60003662109375,-297.60003662109375,-297.60003662109375,-297.60003662109375,-297.60003662109375,-297.60003662109375,-297.60003662109375,-297.60003662109375,-297.60003662109375,-297.60003662109375,-297.60003662109375,-297.60003662109375,-296.79998779296875,-286.4000244140625,-271.20001220703125,-258.4000244140625,-232.79998779296875,-209.60003662109375,-175.20001220703125,-136.79998779296875,-88,-60,-20.800018310546875,6.399993896484375,16.79998779296875,43.199981689453125,63.199981689453125,77.60000610351562,89.60000610351562,109.60000610351562,125.60000610351562,139.19998168945312,156.79998779296875,170.39999389648438,184,196,209.59999084472656,225.59999084472656,237.59999084472656,268,285.59999084472656,305.5999984741211,311.1999969482422,316,321.5999984741211,325.5999984741211,330.4000015258789]","[0,0,0,0,0,0,0,0,0,0,0,0,0,0,0,0,0,0,0,0,0,0,0,0,0,0,0,0,0,0,0,0,0,0,0,0,0,0,0,0,0,0,0,0,0,0,0,0,0,0,0,0]","[0,0,0,0,0,0,0,0,0,0,0,0,0,0,0,0,0,0,0,0,0,0,0,0,0,0,0,0,0,0,0,0,0,0,0,0,0,0,0,0,0,0,0,0,0,0,0,0,0,0,0,0]","[0,0,0,0,0,0,0,0,0,0,0,0,0,0,0,0,0,0,0,0,0,0,0,0,0,0,0,0,0,0,0,0,0,0,0,0,0,0,0,0,0,0,0,0,0,0,0,0,0,0,0,0]","[0.0003999999999066972,0.016899999999907322,0.03349999999999653,0.04989999999990147,0.061499999999995225,0.07819999999995275,0.09489999999990317,0.11180000000004497,0.1284999999999954,0.1451000000000917,0.16180000000004213,0.17810000000009296,0.1948999999999046,0.2118000000000464,0.23169999999995383,0.25130000000004316,0.2613999999999024,0.27860000000008966,0.29969999999995167,0.3163999999999021,0.32769999999995036,0.3496000000000947,0.36619999999994945,0.3823999999999046,0.4001999999999484,0.4161000000000925,0.4276000000000906,0.44989999999990715,0.46649999999999636,0.47760000000008773,0.4998000000000431,0.516199999999948,0.533199999999951,0.5464999999999947,0.5666000000000935,0.5831000000000941,0.5998999999999057,0.6164999999999949,0.6331000000000913,0.6494999999999962,0.6666000000000878,0.6833999999999065,0.699199999999955,0.710699999999953,0.7328000000000472,0.7439999999999998,0.7658999999999025,0.7826999999999487,0.7991999999999493,0.816300000000048,0.8331000000000941,0.8506000000000924]",,2,0,2,0,1,,,,
,,A000000000,2022-11-28_10h44.44.473,GoFitts,2022.2.4,Win32,59.97361161,,,,,,,,,,,,,,,,,,"[108.1559480312316,332.8697807033037]","[-36.58496214367898,-348.08266337889563]",20,700,2,"[114.4000244140625,109.60003662109375,108.79998779296875,104,102.4000244140625,101.60003662109375,101.60003662109375,100.79998779296875,100.79998779296875,100.79998779296875,100.79998779296875,100.79998779296875,100.79998779296875,100.79998779296875,100.79998779296875,100.79998779296875,100.79998779296875,100.79998779296875,103.20001220703125,106.4000244140625,112.79998779296875,118.4000244140625,121.60003662109375,121.60003662109375,121.60003662109375,116.79998779296875,105.60003662109375,96,88,81.60003662109375,76,68.79998779296875,58.4000244140625,51.20001220703125,28.79998779296875,13.60003662109375,-0.79998779296875,-15.20001220703125,-32,-42.39996337890625,-48,-56,-56,-56,-56,-56,-52.79998779296875,-52,-52,-52,-52,-52,-50.39996337890625,-49.5999755859375,-48.79998779296875,-48,-46.39996337890625,-44.79998779296875]","[330.4000015258789,333.5999984741211,335.1999969482422,338.4000015258789,339.1999969482422,340.7999954223633,342.4000015258789,342.4000015258789,342.4000015258789,342.4000015258789,342.4000015258789,342.4000015258789,342.4000015258789,342.4000015258789,342.4000015258789,342.4000015258789,342.4000015258789,336.7999954223633,328.7999954223633,316,295.1999969482422,267.1999969482422,241.59999084472656,184.8000030517578,116,59.199981689453125,-2.399993896484375,-40.800018310546875,-68.80001831054688,-96.79998779296875,-118.4000244140625,-140,-161.60003662109375,-177.60003662109375,-214.4000244140625,-238.4000244140625,-261.60003662109375,-283.20001220703125,-306.4000244140625,-323.20001220703125,-329.60003662109375,-348,-349.60003662109375,-349.60003662109375,-350.4000244140625,-349.60003662109375,-345.60003662109375,-344.79998779296875,-344.79998779296875,-344.79998779296875,-344.79998779296875,-344.79998779296875,-345.60003662109375,-349.60003662109375,-350.4000244140625,-351.20001220703125,-352,-352]","[0,0,0,0,0,0,0,0,0,0,0,0,0,0,0,0,0,0,0,0,0,0,0,0,0,0,0,0,0,0,0,0,0,0,0,0,0,0,0,0,0,0,0,0,0,0,0,0,0,0,0,0,0,0,0,0,0,0]","[0,0,0,0,0,0,0,0,0,0,0,0,0,0,0,0,0,0,0,0,0,0,0,0,0,0,0,0,0,0,0,0,0,0,0,0,0,0,0,0,0,0,0,0,0,0,0,0,0,0,0,0,0,0,0,0,0,0]","[0,0,0,0,0,0,0,0,0,0,0,0,0,0,0,0,0,0,0,0,0,0,0,0,0,0,0,0,0,0,0,0,0,0,0,0,0,0,0,0,0,0,0,0,0,0,0,0,0,0,0,0,0,0,0,0,0,0]","[0.0008000000000478735,0.015199999999950364,0.02609999999985746,0.04809999999986303,0.06550000000000011,0.08289999999990982,0.09949999999999903,0.11559999999985848,0.1316999999999524,0.14300000000000068,0.15959999999986252,0.17649999999999721,0.19339999999990454,0.21000000000000085,0.23239999999990602,0.24919999999995213,0.25959999999985683,0.27609999999985746,0.2925999999998581,0.3095999999998611,0.3310999999998572,0.347399999999908,0.35930000000004725,0.37599999999999767,0.39839999999990994,0.41459999999985797,0.4310999999998586,0.4478000000000435,0.46419999999995554,0.48159999999985814,0.4975000000000023,0.5148000000000437,0.5313999999999055,0.5424999999999969,0.5648999999999091,0.5813000000000486,0.5980999999998602,0.6143000000000498,0.6315999999998638,0.6480000000000032,0.6596999999999511,0.6811999999999543,0.6978000000000435,0.7141999999999555,0.7258999999999034,0.747899999999909,0.7648000000000437,0.7815000000000012,0.7980000000000018,0.8093999999999042,0.8318000000000438,0.8428999999999078,0.8631999999999564,0.8815999999998638,0.8975000000000009,0.9140999999998627,0.9306999999999519,0.947499999999998]",,3,0,3,0,1,,,,
,,A000000000,2022-11-28_10h44.44.473,GoFitts,2022.2.4,Win32,59.97361161,,,,,,,,,,,,,,,,,,"[-36.58496214367898,-348.08266337889563]","[-36.584962143678666,348.0826633788957]",20,700,2,"[-44.79998779296875,-44,-41.5999755859375,-40.79998779296875,-40.79998779296875,-40,-40,-40,-40,-38.39996337890625,-38.39996337890625,-38.39996337890625,-38.39996337890625,-38.39996337890625,-38.39996337890625,-38.39996337890625,-38.39996337890625,-38.39996337890625,-39.20001220703125,-42.39996337890625,-52,-66.39996337890625,-75.20001220703125,-76.79998779296875,-76.79998779296875,-74.39996337890625,-62.39996337890625,-54.39996337890625,-44.79998779296875,-44.79998779296875,-44.79998779296875,-44.79998779296875,-46.39996337890625,-47.20001220703125,-47.20001220703125,-47.20001220703125,-47.20001220703125,-47.20001220703125,-48,-48.79998779296875,-49.5999755859375,-49.5999755859375,-49.5999755859375,-47.20001220703125,-46.39996337890625,-44.79998779296875,-43.20001220703125,-43.20001220703125,-42.39996337890625]","[-352,-352,-350.4000244140625,-348.79998779296875,-346.4000244140625,-346.4000244140625,-346.4000244140625,-346.4000244140625,-346.4000244140625,-346.4000244140625,-346.4000244140625,-346.4000244140625,-346.4000244140625,-346.4000244140625,-346.4000244140625,-346.4000244140625,-344.79998779296875,-332,-308.79998779296875,-276.79998779296875,-234.4000244140625,-177.60003662109375,-140.79998779296875,-84.79998779296875,-36.800018310546875,16,81.60000610351562,120,184,211.1999969482422,244.8000030517578,256.8000030517578,272.8000030517578,277.59999084472656,280.8000030517578,284.8000030517578,288.8000030517578,290.3999938964844,295.1999969482422,297.59999084472656,300.8000030517578,307.1999969482422,313.5999984741211,320.7999954223633,325.5999984741211,331.1999969482422,335.1999969482422,337.5999984741211,340]","[0,0,0,0,0,0,0,0,0,0,0,0,0,0,0,0,0,0,0,0,0,0,0,0,0,0,0,0,0,0,0,0,0,0,0,0,0,0,0,0,0,0,0,0,0,0,0,0,0]","[0,0,0,0,0,0,0,0,0,0,0,0,0,0,0,0,0,0,0,0,0,0,0,0,0,0,0,0,0,0,0,0,0,0,0,0,0,0,0,0,0,0,0,0,0,0,0,0,0]","[0,0,0,0,0,0,0,0,0,0,0,0,0,0,0,0,0,0,0,0,0,0,0,0,0,0,0,0,0,0,0,0,0,0,0,0,0,0,0,0,0,0,0,0,0,0,0,0,0]","[0.00019999999995690132,0.01680000000004611,0.03319999999995815,0.05019999999995406,0.06680000000005037,0.0836999999999577,0.1008000000000493,0.11169999999995639,0.1283000000000456,0.15000000000000568,0.16119999999995827,0.17790000000014317,0.1946000000000936,0.2113000000000511,0.22810000000009722,0.24490000000014334,0.26190000000013924,0.2836000000000922,0.29980000000004736,0.3160000000000025,0.3329000000001443,0.3498000000000516,0.3608000000000473,0.38300000000000267,0.3996999999999531,0.4156000000000972,0.4329000000001386,0.4441000000000983,0.46699999999999875,0.4836999999999563,0.4994000000001435,0.5108000000000459,0.53290000000014,0.5500000000000043,0.5606999999999545,0.5828000000000486,0.5993000000000492,0.6114000000001454,0.6333000000000482,0.6504000000001398,0.6661000000000925,0.6829000000001386,0.6991000000000938,0.7106000000000918,0.7326000000000974,0.7494000000001435,0.7663000000000508,0.780199999999958,0.7995000000000019]",,4,0,4,0,1,,,,
,,A000000000,2022-11-28_10h44.44.473,GoFitts,2022.2.4,Win32,59.97361161,,,,,,,,,,,,,,,,,,"[-36.584962143678666,348.0826633788957]","[108.15594803123153,-332.8697807033038]",20,700,2,"[-42.39996337890625,-41.5999755859375,-41.5999755859375,-40.79998779296875,-40,-40,-40,-40,-40,-40,-40,-40,-40,-40,-40,-40,-38.39996337890625,-32,-12.79998779296875,8,31.20001220703125,59.20001220703125,76,89.60003662109375,100,109.60003662109375,118.4000244140625,125.60003662109375,131.20001220703125,135.20001220703125,140,140,140,140,136,135.20001220703125,135.20001220703125,135.20001220703125,135.20001220703125,134.4000244140625,132.79998779296875,131.20001220703125,128,124.79998779296875,120.79998779296875,115.20001220703125,111.20001220703125]","[340,343.1999969482422,346.4000015258789,348.7999954223633,351.1999969482422,354.4000015258789,355.1999969482422,355.1999969482422,355.1999969482422,355.1999969482422,355.1999969482422,355.1999969482422,355.1999969482422,355.1999969482422,354.4000015258789,347.1999969482422,339.1999969482422,325.5999984741211,292,252.8000030517578,206.39999389648438,140,90.39999389648438,45.600006103515625,3.199981689453125,-35.20001220703125,-64,-94.4000244140625,-116.79998779296875,-133.60003662109375,-175.20001220703125,-189.60003662109375,-222.4000244140625,-248,-264,-268.79998779296875,-269.60003662109375,-269.60003662109375,-270.4000244140625,-276,-280,-286.4000244140625,-292,-296.79998779296875,-303.20001220703125,-317.60003662109375,-331.20001220703125]","[0,0,0,0,0,0,0,0,0,0,0,0,0,0,0,0,0,0,0,0,0,0,0,0,0,0,0,0,0,0,0,0,0,0,0,0,0,0,0,0,0,0,0,0,0,0,0]","[0,0,0,0,0,0,0,0,0,0,0,0,0,0,0,0,0,0,0,0,0,0,0,0,0,0,0,0,0,0,0,0,0,0,0,0,0,0,0,0,0,0,0,0,0,0,0]","[0,0,0,0,0,0,0,0,0,0,0,0,0,0,0,0,0,0,0,0,0,0,0,0,0,0,0,0,0,0,0,0,0,0,0,0,0,0,0,0,0,0,0,0,0,0,0]","[0.0005000000000023874,0.016500000000000625,0.03310000000009694,0.04419999999995383,0.0661999999999523,0.08319999999995531,0.10010000000009711,0.11639999999990636,0.12760000000009342,0.14430000000005094,0.16710000000009728,0.17819999999995417,0.1946999999999548,0.21719999999995565,0.22800000000000153,0.2498000000000502,0.2666999999999575,0.28319999999995815,0.30010000000009285,0.316300000000048,0.3328999999999098,0.34949999999999903,0.3651999999999518,0.38310000000009126,0.3991000000000966,0.4163999999999106,0.433699999999952,0.44899999999999807,0.4656999999999556,0.47730000000004935,0.5005000000000024,0.5103999999999118,0.5275000000000034,0.5493999999999062,0.5656000000000958,0.5828000000000486,0.599499999999999,0.6161999999999566,0.6275000000000048,0.6491000000000966,0.6656000000000972,0.6828999999999112,0.699199999999955,0.7153999999999101,0.7325000000000017,0.7491999999999521,0.7661000000000939]",,5,0,5,0,1,,,,
