指定代號,date,expName,psychopyVersion,OS,frameRate,retry_testing.thisRepN,retry_testing.thisTrialN,retry_testing.thisN,retry_testing.thisIndex,retry_testing.ran,from,to,w,a,id,sequence_loop.thisN,enter_time,mouse.x,mouse.y,mouse.leftButton,mouse.midButton,mouse.rightButton,mouse.time,trial_loop.thisRepN,trial_loop.thisTrialN,trial_loop.thisN,trial_loop.thisIndex,trial_loop.ran,leave_time,sequence_loop.thisRepN,sequence_loop.thisTrialN,sequence_loop.thisIndex,sequence_loop.ran
K000000000-1,2025-06-18_09h26.34.444,GoFitts,2023.2.3,Win32,59.88023952,,,,,,,,,,,,,,,,,,,,,,,,,,,,
K000000000-1,2025-06-18_09h26.34.444,GoFitts,2023.2.3,Win32,59.88023952,0,0,0,0,1,,,,,,,,,,,,,,,,,,,,,,,
K000000000-1,2025-06-18_09h26.34.444,GoFitts,2023.2.3,Win32,59.88023952,1,0,1,0,1,,,,,,,,,,,,,,,,,,,,,,,
K000000000-1,2025-06-18_09h26.34.444,GoFitts,2023.2.3,Win32,59.88023952,,,,,,,,,,,,,,,,,,,,,,,,,,,,
K000000000-1,2025-06-18_09h26.34.444,GoFitts,2023.2.3,Win32,59.88023952,,,,,,"[57,-25]","[-126.57637708576777,-219.23671615054656]",26,506.3055083,5.32,0,1.0147,"[57,57,57,57,57,57,57,57,57,57,57,57,57,57,57,57,57,62,100,139,192,218,243,243,243,237,207,148,46,-55,-167,-271,-340,-356,-363,-363,-358,-341,-332,-327,-309,-286,-240,-202,-177,-167,-163,-163,-167,-174,-179,-181,-181,-179,-170,-165,-164,-164,-159,-153,-143,-135,-130,-128,-128,-128,-128,-128,-128,-128,-128,-128,-128,-128,-126,-124,-123,-123,-123,-123,-123,-123,-123,-124,-124,-124,-124,-124,-124,-124,-124,-124,-124,-124,-124,-124,-124,-124,-124,-124,-124,-124,-124,-124,-124,-124]","[-25,-25,-25,-25,-25,-25,-25,-25,-25,-25,-25,-25,-25,-25,-25,-25,-25,-19,1,25,59,78,104,106,107,107,92,52,-26,-105,-191,-273,-325,-342,-353,-355,-355,-354,-352,-351,-346,-339,-324,-305,-290,-278,-267,-263,-256,-250,-246,-244,-242,-238,-234,-232,-232,-232,-231,-230,-229,-228,-226,-225,-225,-225,-225,-225,-225,-225,-225,-225,-225,-225,-224,-224,-224,-224,-224,-224,-224,-223,-222,-222,-222,-222,-222,-222,-222,-222,-222,-222,-222,-222,-222,-222,-222,-222,-222,-222,-222,-222,-222,-222,-222,-222]","[0,0,0,0,0,0,0,0,0,0,0,0,0,0,0,0,0,0,0,0,0,0,0,0,0,0,0,0,0,0,0,0,0,0,0,0,0,0,0,0,0,0,0,0,0,0,0,0,0,0,0,0,0,0,0,0,0,0,0,0,0,0,0,0,0,0,0,0,0,0,0,0,0,0,0,0,0,0,0,0,0,0,0,0,0,0,0,0,0,0,0,0,0,0,0,0,0,0,0,0,0,0,0,0,0,0]","[0,0,0,0,0,0,0,0,0,0,0,0,0,0,0,0,0,0,0,0,0,0,0,0,0,0,0,0,0,0,0,0,0,0,0,0,0,0,0,0,0,0,0,0,0,0,0,0,0,0,0,0,0,0,0,0,0,0,0,0,0,0,0,0,0,0,0,0,0,0,0,0,0,0,0,0,0,0,0,0,0,0,0,0,0,0,0,0,0,0,0,0,0,0,0,0,0,0,0,0,0,0,0,0,0,0]","[0,0,0,0,0,0,0,0,0,0,0,0,0,0,0,0,0,0,0,0,0,0,0,0,0,0,0,0,0,0,0,0,0,0,0,0,0,0,0,0,0,0,0,0,0,0,0,0,0,0,0,0,0,0,0,0,0,0,0,0,0,0,0,0,0,0,0,0,0,0,0,0,0,0,0,0,0,0,0,0,0,0,0,0,0,0,0,0,0,0,0,0,0,0,0,0,0,0,0,0,0,0,0,0,0,0]","[0.0003000000119186552,0.014899999976151435,0.03130000001192457,0.04780000001191809,0.06449999999999534,0.08100000000000307,0.09799999999999898,0.1144999999999925,0.13100000000000023,0.14769999998807748,0.16450000000000387,0.18109999996423198,0.19789999997615837,0.2143999999761519,0.231399999976162,0.24780000001192093,0.26439999997614905,0.2809999999999917,0.29769999998808316,0.31449999999999534,0.33100000000000307,0.3476999999880803,0.3643999999761576,0.3813999999761535,0.39819999998807987,0.41450000000000387,0.431099999964232,0.44780000001192377,0.4643000000119173,0.4811999999880783,0.4978999999761555,0.5144999999999982,0.5310999999642405,0.5476999999880832,0.5645999999642299,0.5810000000000031,0.5978000000119152,0.6143999999761576,0.6311999999880697,0.6478000000119124,0.6643999999761547,0.681300000011916,0.6976999999880746,0.714500000000001,0.7310999999642291,0.7476999999880718,0.7648999999761514,0.7813000000119246,0.7978999999761527,0.8143000000119116,0.8310999999642377,0.8478999999761498,0.864300000011923,0.8813000000119189,0.8976999999880775,0.9145000000000039,0.9311999999880811,0.9478000000119238,0.9643000000119173,0.9811999999880783,0.9976999999880718,1.014699999988082,1.0310999999642405,1.0478999999761527,1.0643000000119116,1.080899999976154,1.0978999999761498,1.1148000000119254,1.1311999999880697,1.1479999999999961,1.1645999999642385,1.1814999999999998,1.1978999999761584,1.2145999999642356,1.2311999999880783,1.2478999999761555,1.2644999999999982,1.2809999999999917,1.2980000000000018,1.31459999996423,1.3310999999642377,1.3476999999880803,1.3644999999999925,1.3813999999761535,1.3978000000119124,1.4145000000000039,1.431300000011916,1.4478999999761584,1.464500000000001,1.4810999999642291,1.4980000000000047,1.514699999988082,1.5313000000119246,1.5478999999761527,1.56459999996423,1.5813000000119217,1.5976999999880803,1.6143999999761576,1.6313999999761535,1.6478999999761612,1.6645000000000039,1.6811999999880811,1.6979999999999933,1.7145999999642356,1.7309999999999945,1.7480999999642393]",0,0,0,0,1,,,,,
K000000000-1,2025-06-18_09h26.34.444,GoFitts,2023.2.3,Win32,59.88023952,,,,,,"[-126.57637708576777,-219.23671615054656]","[78.22850321182779,240.7625764729038]",26,506.3055083,5.32,0,0.9657,"[-124,-124,-124,-124,-124,-124,-124,-124,-124,-124,-124,-124,-124,-124,-124,-124,-124,-124,-117,-78,-42,-23,-6,1,7,14,21,31,37,43,49,51,52,52,52,52,52,52,62,71,78,81,83,83,85,87,89,92,94,96,96,96,96,96,96,96,94,88,85,83,83,83,83,83,83,83,83,83,83,83,83,83,83,83,83,83,83,83,83,83,83,83,83,83,83,83,83,83,83,83,83,83,83,83,83,83,83,83,83,83,83,83]","[-222,-222,-222,-222,-222,-222,-222,-222,-222,-222,-222,-222,-222,-222,-222,-222,-222,-222,-208,-162,-98,-28,68,151,231,278,303,323,330,335,340,341,342,342,342,342,342,336,300,267,237,225,221,221,220,220,220,220,220,220,220,220,220,220,220,221,222,227,230,233,237,238,240,241,241,241,241,241,241,241,241,241,241,241,241,241,241,241,241,241,241,241,241,241,241,241,241,241,241,241,241,241,241,241,241,241,241,241,241,241,241,241]","[0,0,0,0,0,0,0,0,0,0,0,0,0,0,0,0,0,0,0,0,0,0,0,0,0,0,0,0,0,0,0,0,0,0,0,0,0,0,0,0,0,0,0,0,0,0,0,0,0,0,0,0,0,0,0,0,0,0,0,0,0,0,0,0,0,0,0,0,0,0,0,0,0,0,0,0,0,0,0,0,0,0,0,0,0,0,0,0,0,0,0,0,0,0,0,0,0,0,0,0,0,0]","[0,0,0,0,0,0,0,0,0,0,0,0,0,0,0,0,0,0,0,0,0,0,0,0,0,0,0,0,0,0,0,0,0,0,0,0,0,0,0,0,0,0,0,0,0,0,0,0,0,0,0,0,0,0,0,0,0,0,0,0,0,0,0,0,0,0,0,0,0,0,0,0,0,0,0,0,0,0,0,0,0,0,0,0,0,0,0,0,0,0,0,0,0,0,0,0,0,0,0,0,0,0]","[0,0,0,0,0,0,0,0,0,0,0,0,0,0,0,0,0,0,0,0,0,0,0,0,0,0,0,0,0,0,0,0,0,0,0,0,0,0,0,0,0,0,0,0,0,0,0,0,0,0,0,0,0,0,0,0,0,0,0,0,0,0,0,0,0,0,0,0,0,0,0,0,0,0,0,0,0,0,0,0,0,0,0,0,0,0,0,0,0,0,0,0,0,0,0,0,0,0,0,0,0,0]","[0,0.015900000035756534,0.032400000035764265,0.04899999999999238,0.06569999998806964,0.08210000002384277,0.09860000002383629,0.11549999999999727,0.13230000001190945,0.1489000000357521,0.16569999998807816,0.18240000003575574,0.19880000001191434,0.21580000001191024,0.2324000000357529,0.24899999999999523,0.2656999999880725,0.28230000001191513,0.2991000000238415,0.3154000000357513,0.33210000002384277,0.34880000001192,0.365699999988081,0.3821999999880745,0.3988000000119172,0.41560000002384356,0.4323000000119208,0.44880000001191434,0.4656000000238407,0.48219999998806884,0.4989000000357606,0.5154999999999887,0.5321999999880802,0.5488000000119229,0.5656999999880696,0.5824000000357614,0.5989999999999895,0.6154999999999973,0.6323000000119094,0.6489000000357521,0.6656999999880782,0.6824999999999903,0.6989999999999981,0.7156000000238407,0.732300000011918,0.7489000000357606,0.7659000000357565,0.7824999999999989,0.7991999999880761,0.8156999999880696,0.832499999999996,0.8489999999999895,0.8658000000119159,0.8823000000119094,0.8990000000000009,0.9156999999880782,0.9324000000357557,0.9488000000119143,0.9656999999880753,0.9821999999880688,0.9988000000119115,1.0158000000119216,1.0324000000357643,1.0489000000357578,1.065600000023835,1.0824000000357614,1.0991000000238387,1.115800000011916,1.1324000000357586,1.1491000000238358,1.165800000011913,1.1821999999880717,1.1989000000357635,1.2156999999880753,1.2321999999880688,1.2489999999999952,1.2658000000119216,1.2824000000357643,1.2989000000357578,1.315600000023835,1.3321999999880774,1.348900000035755,1.365699999988081,1.3821999999880745,1.399000000000001,1.4156999999880782,1.4324999999999903,1.448999999999998,1.4656000000238407,1.4825000000000017,1.4991000000238444,1.5156999999880725,1.5324000000357643,1.5489000000357578,1.5658000000119188,1.5821999999880774,1.5989999999999895,1.615699999988081,1.6321999999880745,1.649000000000001,1.6656999999880782,1.6831000000238419]",1,0,1,0,1,0.299,,,,
K000000000-1,2025-06-18_09h26.34.444,GoFitts,2023.2.3,Win32,59.88023952,,,,,,"[78.22850321182779,240.7625764729038]","[-26.461668365524833,-251.76595689637386]",26,506.3055083,5.32,0,1.0812,"[83,83,83,83,83,78,75,75,74,74,74,74,74,74,74,74,74,74,74,70,64,54,42,34,25,9,-2,-19,-26,-33,-28,-21,-9,-1,1,2,2,2,0,-9,-17,-19,-19,-19,-19,-18,-18,-18,-18,-17,-16,-15,-15,-15,-15,-15,-15,-15,-15,-15,-15,-15,-15,-15,-16,-17,-19,-21,-21,-21,-21,-21,-21,-21,-21,-21,-21,-21,-21,-21,-21,-21,-21,-21,-21,-21,-21,-21,-21,-21,-21,-21,-21,-21,-21,-21,-21,-21,-21,-21,-21,-21,-21,-21,-21,-21,-21,-21,-21]","[241,241,241,241,241,240,239,238,238,237,237,237,237,237,237,233,221,201,180,153,129,84,43,21,0,-30,-51,-97,-123,-200,-249,-264,-279,-284,-285,-285,-285,-285,-286,-291,-294,-294,-294,-294,-291,-280,-267,-255,-250,-248,-245,-245,-245,-245,-245,-245,-244,-244,-244,-244,-244,-244,-244,-244,-244,-244,-244,-244,-244,-244,-244,-244,-244,-244,-244,-244,-244,-244,-244,-244,-244,-244,-244,-244,-244,-244,-244,-244,-244,-244,-244,-244,-244,-244,-244,-244,-244,-244,-244,-244,-244,-244,-244,-244,-244,-244,-244,-244,-244]","[0,0,0,0,0,0,0,0,0,0,0,0,0,0,0,0,0,0,0,0,0,0,0,0,0,0,0,0,0,0,0,0,0,0,0,0,0,0,0,0,0,0,0,0,0,0,0,0,0,0,0,0,0,0,0,0,0,0,0,0,0,0,0,0,0,0,0,0,0,0,0,0,0,0,0,0,0,0,0,0,0,0,0,0,0,0,0,0,0,0,0,0,0,0,0,0,0,0,0,0,0,0,0,0,0,0,0,0,0]","[0,0,0,0,0,0,0,0,0,0,0,0,0,0,0,0,0,0,0,0,0,0,0,0,0,0,0,0,0,0,0,0,0,0,0,0,0,0,0,0,0,0,0,0,0,0,0,0,0,0,0,0,0,0,0,0,0,0,0,0,0,0,0,0,0,0,0,0,0,0,0,0,0,0,0,0,0,0,0,0,0,0,0,0,0,0,0,0,0,0,0,0,0,0,0,0,0,0,0,0,0,0,0,0,0,0,0,0,0]","[0,0,0,0,0,0,0,0,0,0,0,0,0,0,0,0,0,0,0,0,0,0,0,0,0,0,0,0,0,0,0,0,0,0,0,0,0,0,0,0,0,0,0,0,0,0,0,0,0,0,0,0,0,0,0,0,0,0,0,0,0,0,0,0,0,0,0,0,0,0,0,0,0,0,0,0,0,0,0,0,0,0,0,0,0,0,0,0,0,0,0,0,0,0,0,0,0,0,0,0,0,0,0,0,0,0,0,0,0]","[0,0.015699999988086688,0.031800000011926954,0.04809999996423642,0.0648000000119282,0.08169999998807498,0.09809999996423358,0.11469999998807623,0.1313999999761677,0.148300000011929,0.16480000001192252,0.18139999997616485,0.19789999997615837,0.21469999998808476,0.231399999976162,0.24809999996423926,0.2651999999880843,0.28130000001192457,0.2980000000000018,0.31469999998807907,0.3313000000119217,0.34789999997616405,0.36469999998807623,0.3813000000119189,0.39799999999999613,0.4148000000119225,0.43139999997616485,0.4480000000000075,0.4648000000119197,0.481399999976162,0.4983999999761579,0.5155999999642376,0.5318999999761616,0.5480000000000018,0.5648000000119282,0.58159999996424,0.5981999999880827,0.6146999999880762,0.6313999999761677,0.6483999999761636,0.6643000000119201,0.6810999999642462,0.698199999988077,0.7143999999761661,0.7310000000000088,0.7475999999642369,0.7641999999880795,0.7811999999880754,0.7978999999761669,0.8141999999880767,0.8308999999761539,0.847899999976164,0.8643999999761576,0.8810999999642348,0.8978999999761612,0.9143999999761547,0.9310999999642462,0.9475999999642397,0.9643000000119173,0.9810999999642434,0.9978000000119209,1.0143999999761633,1.0308999999761568,1.047800000011918,1.0643000000119258,1.0811999999880868,1.0974999999999966,1.114199999988088,1.131199999988084,1.1478000000119266,1.1643000000119201,1.1810999999642462,1.1976999999880746,1.214500000000001,1.2310000000000088,1.2475000000000023,1.2643000000119287,1.2808999999761568,1.297800000011918,1.3143999999761604,1.3310999999642377,1.347899999976164,1.364099999964239,1.3808000000119165,1.3978000000119266,1.4143999999761547,1.4308999999761625,1.4475000000000051,1.4640999999642332,1.4808999999761596,1.4975999999642369,1.5144999999999982,1.5310999999642405,1.547800000011918,1.5643999999761604,1.581000000000003,1.597899999976164,1.6143999999761576,1.6313000000119189,1.6476999999880775,1.6643999999761547,1.6808999999761625,1.6975000000000051,1.7140999999642332,1.730800000011925,1.7480000000000047,1.7643999999761633,1.781000000000006,1.7981999999880856]",2,0,2,0,1,0.2651,,,,
K000000000-1,2025-06-18_09h26.34.444,GoFitts,2023.2.3,Win32,59.88023952,,,,,,"[-26.461668365524833,-251.76595689637386]","[-26.461668365524602,251.7659568963739]",26,506.3055083,5.32,0,0.8493,"[-21,-21,-21,-21,-21,-21,-21,-21,-21,-21,-21,-21,-21,-21,-21,-21,-21,-20,-12,0,10,16,16,15,11,9,8,8,8,8,7,5,-3,-16,-24,-40,-48,-50,-50,-50,-50,-50,-47,-46,-46,-46,-45,-44,-42,-42,-39,-38,-36,-36,-36,-36,-36,-35,-35,-35,-34,-34,-34,-34,-34,-34,-34,-34,-34,-34,-34,-34,-34,-34,-34,-34,-34,-34,-34,-34,-34,-34,-34,-34,-34,-34,-34,-34,-34,-34,-34,-34,-34,-34,-34]","[-244,-244,-244,-244,-244,-244,-244,-244,-244,-244,-244,-244,-244,-244,-244,-244,-244,-238,-204,-138,-21,70,127,188,223,239,245,245,245,245,245,245,245,245,243,240,237,236,236,236,236,236,240,241,241,241,242,243,246,246,248,248,249,249,249,249,249,249,249,249,249,249,249,249,249,249,249,249,249,249,249,249,249,249,249,249,249,249,249,249,249,249,249,249,249,249,249,249,249,249,249,249,249,249,249]","[0,0,0,0,0,0,0,0,0,0,0,0,0,0,0,0,0,0,0,0,0,0,0,0,0,0,0,0,0,0,0,0,0,0,0,0,0,0,0,0,0,0,0,0,0,0,0,0,0,0,0,0,0,0,0,0,0,0,0,0,0,0,0,0,0,0,0,0,0,0,0,0,0,0,0,0,0,0,0,0,0,0,0,0,0,0,0,0,0,0,0,0,0,0,0]","[0,0,0,0,0,0,0,0,0,0,0,0,0,0,0,0,0,0,0,0,0,0,0,0,0,0,0,0,0,0,0,0,0,0,0,0,0,0,0,0,0,0,0,0,0,0,0,0,0,0,0,0,0,0,0,0,0,0,0,0,0,0,0,0,0,0,0,0,0,0,0,0,0,0,0,0,0,0,0,0,0,0,0,0,0,0,0,0,0,0,0,0,0,0,0]","[0,0,0,0,0,0,0,0,0,0,0,0,0,0,0,0,0,0,0,0,0,0,0,0,0,0,0,0,0,0,0,0,0,0,0,0,0,0,0,0,0,0,0,0,0,0,0,0,0,0,0,0,0,0,0,0,0,0,0,0,0,0,0,0,0,0,0,0,0,0,0,0,0,0,0,0,0,0,0,0,0,0,0,0,0,0,0,0,0,0,0,0,0,0,0]","[0.00010000002384913387,0.01580000001192161,0.03160000002384322,0.048300000011920474,0.0648000000119282,0.08150000000000546,0.09799999999999898,0.11499999999999488,0.13160000002383754,0.14840000003576392,0.16500000000000625,0.18140000003576517,0.1980000000000075,0.21480000001191968,0.23169999998808066,0.24830000001192332,0.26490000003576597,0.28180000001192695,0.29819999998808555,0.31510000002384686,0.3316000000238404,0.34830000001191763,0.365100000023844,0.38160000002383754,0.39910000002383583,0.4151999999880758,0.43190000003576756,0.4484999999999957,0.46519999998807293,0.4819999999999993,0.49869999998807657,0.5153000000119192,0.5319999999999965,0.5494999999999948,0.5659000000357679,0.5823000000119265,0.5990000000000038,0.6158000000119159,0.632000000000005,0.6486000000238477,0.6651999999880758,0.6819000000357676,0.6986000000238448,0.715400000035757,0.7316999999880807,0.7486999999880766,0.7653000000119192,0.7819000000357619,0.7988000000119229,0.8151000000238469,0.8320000000000078,0.8493000000119224,0.8658000000119159,0.8816999999880863,0.8984999999999985,0.9151999999880758,0.9320000000000022,0.9486000000238448,0.9651999999880729,0.9819999999999993,0.998600000023842,1.0150000000000006,1.031800000011927,1.0486000000238391,1.0653000000119164,1.081900000035759,1.0986000000238363,1.1153000000119278,1.132000000000005,1.1486000000238477,1.1651999999880758,1.1818000000119184,1.1986999999880794,1.215199999988073,1.2318000000119156,1.248500000000007,1.2651000000238497,1.2819000000357619,1.2986000000238391,1.3151999999880815,1.3318000000119241,1.3485000000000014,1.3651999999880786,1.382000000000005,1.3986999999880823,1.4151999999880758,1.4319000000357676,1.4486999999880794,1.4651000000238383,1.4816999999880807,1.4986999999880766,1.5151000000238497,1.5319999999999965,1.5486000000238391,1.5653000000119164]",3,0,3,0,1,0.2817,,,,
K000000000-1,2025-06-18_09h26.34.444,GoFitts,2023.2.3,Win32,59.88023952,,,,,,"[-26.461668365524602,251.7659568963739]","[78.22850321182773,-240.76257647290382]",26,506.3055083,5.32,0,0.6495,"[-34,-34,-34,-34,-34,-34,-34,-34,-34,-33,-32,-30,-30,-30,-28,-22,-14,-3,3,16,28,38,45,51,55,59,62,64,64,65,65,65,65,66,68,70,70,71,72,72,72,72,72,72,72,72,72,73,73,73,73,73,73,73,73,73,73,73,73,73,73,73,73,73,73,73,73,73,73,73,73,73,73,73,73,73,73,73,73,73,73,73,73,73]","[249,249,249,249,249,249,249,249,249,243,233,227,219,214,202,179,151,108,88,41,4,-28,-49,-69,-83,-96,-110,-132,-153,-187,-192,-193,-195,-198,-203,-209,-214,-225,-229,-232,-236,-237,-237,-237,-237,-237,-237,-237,-237,-237,-237,-237,-237,-237,-237,-237,-237,-237,-237,-237,-237,-237,-237,-237,-237,-237,-237,-237,-237,-237,-237,-237,-237,-237,-237,-237,-237,-237,-237,-237,-237,-237,-237,-237]","[0,0,0,0,0,0,0,0,0,0,0,0,0,0,0,0,0,0,0,0,0,0,0,0,0,0,0,0,0,0,0,0,0,0,0,0,0,0,0,0,0,0,0,0,0,0,0,0,0,0,0,0,0,0,0,0,0,0,0,0,0,0,0,0,0,0,0,0,0,0,0,0,0,0,0,0,0,0,0,0,0,0,0,0]","[0,0,0,0,0,0,0,0,0,0,0,0,0,0,0,0,0,0,0,0,0,0,0,0,0,0,0,0,0,0,0,0,0,0,0,0,0,0,0,0,0,0,0,0,0,0,0,0,0,0,0,0,0,0,0,0,0,0,0,0,0,0,0,0,0,0,0,0,0,0,0,0,0,0,0,0,0,0,0,0,0,0,0,0]","[0,0,0,0,0,0,0,0,0,0,0,0,0,0,0,0,0,0,0,0,0,0,0,0,0,0,0,0,0,0,0,0,0,0,0,0,0,0,0,0,0,0,0,0,0,0,0,0,0,0,0,0,0,0,0,0,0,0,0,0,0,0,0,0,0,0,0,0,0,0,0,0,0,0,0,0,0,0,0,0,0,0,0,0]","[0,0.01609999996423994,0.03249999999999886,0.049199999988090326,0.06580000001193298,0.08250000000001023,0.09889999997616883,0.11619999998808339,0.13269999998809112,0.1495999999642379,0.16669999998808294,0.18389999997616258,0.20069999998808896,0.21699999999999875,0.2330000000000041,0.24950000000001182,0.2661999999880891,0.28280000001193173,0.29889999997615746,0.3155000000000001,0.3323999999761611,0.3493000000119224,0.3655999999642461,0.38219999998808873,0.398899999976166,0.41550000000000864,0.4321999999880859,0.44889999997616314,0.4655000000000058,0.48219999998808305,0.4993000000119281,0.5155999999642376,0.5323000000119293,0.5490000000000066,0.5655999999642489,0.5823999999761611,0.5988999999761688,0.6155000000000115,0.6323999999761583,0.6495000000000033,0.6655999999642432,0.6825000000000045,0.6990000000000123,0.7155999999642404,0.7323000000119322,0.7490000000000094,0.7656999999880867,0.7821999999880802,0.7986999999880879,0.8155999999642489,0.8321999999880774,0.8490000000000038,0.865699999988081,0.8820999999642396,0.8988000000119314,0.9156999999880782,0.9321999999880859,0.9488000000119285,0.9655999999642404,0.9826999999880854,0.9993000000119281,1.015500000000003,1.0321999999880802,1.0485999999642388,1.0653000000119306,1.0820000000000078,1.098599999964236,1.1153000000119278,1.1325000000000074,1.1491999999880846,1.1663000000119297,1.1826999999880883,1.2000999999642374,1.2160999999642428,1.233599999964241,1.2493999999761627,1.266300000011924,1.2828999999761663,1.2993999999761598,1.3163000000119212,1.3331999999880821,1.349399999976157,1.3659999999999997,1.3833000000119284]",4,0,4,0,1,0.1666,,,,
K000000000-1,2025-06-18_09h26.34.444,GoFitts,2023.2.3,Win32,59.88023952,,,,,,"[78.22850321182773,-240.76257647290382]","[-126.5763770857676,219.2367161505466]",26,506.3055083,5.32,0,0.6313,"[73,73,73,73,73,73,73,73,73,73,73,73,73,73,73,73,73,73,65,57,15,-65,-107,-129,-138,-143,-145,-145,-146,-146,-146,-147,-147,-147,-147,-147,-144,-140,-134,-126,-118,-115,-115,-115,-115,-115,-115,-115,-116,-116,-117,-117,-119,-119,-120,-120,-121,-122,-123,-123,-123,-123,-123,-123,-123,-123,-123,-123,-123,-123,-123,-123,-123,-123,-123,-123,-123,-123,-123,-123,-123,-123,-123]","[-237,-237,-237,-237,-237,-237,-237,-237,-237,-237,-237,-237,-237,-237,-237,-237,-237,-236,-218,-198,-111,46,128,174,198,214,221,222,223,224,225,226,226,227,227,227,228,228,228,224,219,217,217,217,217,217,217,217,217,217,217,217,217,217,217,218,218,218,219,219,219,219,219,219,219,219,219,219,219,219,219,219,219,219,219,219,219,219,219,219,219,219,219]","[0,0,0,0,0,0,0,0,0,0,0,0,0,0,0,0,0,0,0,0,0,0,0,0,0,0,0,0,0,0,0,0,0,0,0,0,0,0,0,0,0,0,0,0,0,0,0,0,0,0,0,0,0,0,0,0,0,0,0,0,0,0,0,0,0,0,0,0,0,0,0,0,0,0,0,0,0,0,0,0,0,0,0]","[0,0,0,0,0,0,0,0,0,0,0,0,0,0,0,0,0,0,0,0,0,0,0,0,0,0,0,0,0,0,0,0,0,0,0,0,0,0,0,0,0,0,0,0,0,0,0,0,0,0,0,0,0,0,0,0,0,0,0,0,0,0,0,0,0,0,0,0,0,0,0,0,0,0,0,0,0,0,0,0,0,0,0]","[0,0,0,0,0,0,0,0,0,0,0,0,0,0,0,0,0,0,0,0,0,0,0,0,0,0,0,0,0,0,0,0,0,0,0,0,0,0,0,0,0,0,0,0,0,0,0,0,0,0,0,0,0,0,0,0,0,0,0,0,0,0,0,0,0,0,0,0,0,0,0,0,0,0,0,0,0,0,0,0,0,0,0]","[0,0.015300000011919224,0.03160000002384322,0.048200000047685876,0.06490000003576313,0.08160000002384038,0.09790000003576438,0.1149000000357745,0.13180000001192127,0.14840000003576392,0.16470000004768792,0.18170000004768383,0.19820000004769156,0.2149000000357688,0.23160000002384606,0.24800000000000466,0.26490000003576597,0.2820000000000107,0.2985000000000042,0.31620000004768656,0.3317000000476895,0.34780000001192946,0.3650000000000091,0.38180000001192127,0.3987000000476826,0.4151000000238412,0.4311000000238465,0.4479000000357729,0.4644000000357664,0.48100000000000875,0.4976000000238514,0.5143000000119287,0.5308000000119222,0.5476000000238486,0.564400000035775,0.5810000000000031,0.5976000000238457,0.6144000000357721,0.6313000000119331,0.6479000000357615,0.6648000000119225,0.6812000000476957,0.6977000000476892,0.7144000000357664,0.7310000000000088,0.7477000000476863,0.7644000000357636,0.7809000000357713,0.7976000000238486,0.8143000000119258,0.8310000000000031,0.8476000000238457,0.8642000000476884,0.8809000000357656,0.8976000000238429,0.9142000000476855,0.9309000000357628,0.9477000000476892,0.9643000000119315,0.9810000000000088,0.9977000000476863,1.0144000000357636,1.031000000000006,1.0478000000119323,1.0642000000476912,1.0811000000238522,1.0977000000476949,1.114400000035772,1.1310000000000002,1.147700000047692,1.1644000000357693,1.1808000000119279,1.1977000000476892,1.2143000000119315,1.2310000000000088,1.2477000000476863,1.2644000000357636,1.2809000000357713,1.2976000000238486,1.3142000000476912,1.3311000000238522,1.3476000000238457,1.3641000000238535]",5,0,5,0,1,0.2985,,,,
K000000000-1,2025-06-18_09h26.34.444,GoFitts,2023.2.3,Win32,59.88023952,,,,,,"[-126.5763770857676,219.2367161505466]","[169.39225590021445,-188.12915931792725]",26,506.3055083,5.32,0,0.7999,"[-123,-123,-123,-123,-123,-123,-123,-123,-123,-123,-123,-123,-123,-123,-123,-123,-123,-123,-123,-120,-102,-72,-19,22,52,91,136,145,151,152,152,152,152,152,150,146,144,144,144,144,144,144,144,147,150,166,169,174,175,175,175,175,175,175,175,175,174,173,173,172,171,171,171,171,171,171,171,171,171,171,171,171,171,171,171,171,171,171,171,171,171,171,171,171,171,171,171,171,163,135,129,115]","[219,219,219,219,219,219,219,219,219,219,219,219,219,219,219,219,219,212,192,166,123,67,-16,-75,-115,-161,-203,-210,-214,-214,-213,-205,-192,-178,-165,-152,-148,-147,-147,-147,-147,-147,-147,-148,-150,-161,-166,-174,-178,-180,-180,-180,-180,-180,-180,-180,-180,-180,-180,-180,-180,-180,-180,-180,-180,-180,-180,-180,-180,-180,-180,-180,-180,-180,-180,-180,-180,-180,-180,-180,-180,-180,-180,-180,-180,-180,-180,-180,-179,-163,-159,-153]","[0,0,0,0,0,0,0,0,0,0,0,0,0,0,0,0,0,0,0,0,0,0,0,0,0,0,0,0,0,0,0,0,0,0,0,0,0,0,0,0,0,0,0,0,0,0,0,0,0,0,0,0,0,0,0,0,0,0,0,0,0,0,0,0,0,0,0,0,0,0,0,0,0,0,0,0,0,0,0,0,0,0,0,0,0,0,0,0,0,0,0,0]","[0,0,0,0,0,0,0,0,0,0,0,0,0,0,0,0,0,0,0,0,0,0,0,0,0,0,0,0,0,0,0,0,0,0,0,0,0,0,0,0,0,0,0,0,0,0,0,0,0,0,0,0,0,0,0,0,0,0,0,0,0,0,0,0,0,0,0,0,0,0,0,0,0,0,0,0,0,0,0,0,0,0,0,0,0,0,0,0,0,0,0,0]","[0,0,0,0,0,0,0,0,0,0,0,0,0,0,0,0,0,0,0,0,0,0,0,0,0,0,0,0,0,0,0,0,0,0,0,0,0,0,0,0,0,0,0,0,0,0,0,0,0,0,0,0,0,0,0,0,0,0,0,0,0,0,0,0,0,0,0,0,0,0,0,0,0,0,0,0,0,0,0,0,0,0,0,0,0,0,0,0,0,0,0,0]","[0,0.016899999976160984,0.03289999997615212,0.04959999996422937,0.06639999997615575,0.083099999964233,0.099399999976157,0.11629999995231799,0.13289999997616064,0.14979999995230742,0.16609999996423142,0.1828999999761578,0.19959999996423505,0.21639999997616144,0.2330000000000041,0.24979999995231594,0.2663999999761586,0.2828999999761521,0.2996999999880785,0.31629999995232083,0.3328999999761493,0.34959999996424074,0.366299999952318,0.3831999999880793,0.3995999999642379,0.41629999995231515,0.4328999999761578,0.44959999996423505,0.4661999999880777,0.4830000000000041,0.4995999999642322,0.5161999999880749,0.5330000000000013,0.5496999999880785,0.5662999999523208,0.5831999999880821,0.5998999999761594,0.6165999999642366,0.6329999999999956,0.6495000000000033,0.6663999999761501,0.6827999999523087,0.699599999964235,0.7161999999880777,0.7330999999642387,0.7497999999523159,0.7662999999523095,0.7828999999761521,0.7998999999761622,0.8165000000000049,0.8332999999523167,0.8495999999642407,0.866299999952318,0.8830999999642302,0.8993999999761542,0.9162999999523151,0.9327999999523087,0.949599999964235,0.9660999999642286,0.982899999976155,0.9995999999642322,1.0161999999880749,1.0330999999642358,1.049799999952313,1.066099999964237,1.0829999999999984,1.0995999999642407,1.1160999999642343,1.1330999999642302,1.1500999999642403,1.1665999999642338,1.183299999952311,1.199599999964235,1.2162999999523123,1.2330999999642387,1.2496999999880813,1.2661999999880749,1.2831999999880708,1.299799999952313,1.3162999999523208,1.333099999964233,1.349499999999992,1.366399999976153,1.3829999999999956,1.399599999964238,1.4161999999880805,1.4328999999761578,1.4493999999761513,1.4661999999880777,1.4831999999880736,1.4998999999761509,1.5162999999523095]",6,0,6,0,1,0.2997,,,,
K000000000-1,2025-06-18_09h26.34.444,GoFitts,2023.2.3,Win32,59.88023952,,,,,,"[169.39225590021445,-188.12915931792725]","[-204.80488029759542,148.79945547925035]",26,506.3055083,5.32,0,0.4995,"[115,106,102,99,94,86,69,41,-45,-109,-164,-193,-204,-209,-210,-212,-214,-220,-227,-231,-233,-233,-233,-233,-233,-232,-231,-226,-218,-207,-198,-195,-195,-195,-195,-195,-195,-195,-195,-195,-195,-195,-195,-195,-195,-195,-195,-195,-195,-195,-195,-195,-195,-195,-195,-195,-195,-195,-195,-195,-195,-195,-195,-195,-195,-195,-195,-195,-195,-195,-195,-195,-195,-195]","[-153,-148,-145,-142,-132,-122,-98,-67,16,67,107,127,133,137,139,141,145,154,168,175,177,177,177,177,177,177,177,175,170,163,157,154,154,154,154,154,154,154,154,154,154,154,154,154,154,154,154,154,154,154,154,154,154,154,154,154,154,154,154,154,154,154,154,154,154,154,154,154,154,154,154,154,154,154]","[0,0,0,0,0,0,0,0,0,0,0,0,0,0,0,0,0,0,0,0,0,0,0,0,0,0,0,0,0,0,0,0,0,0,0,0,0,0,0,0,0,0,0,0,0,0,0,0,0,0,0,0,0,0,0,0,0,0,0,0,0,0,0,0,0,0,0,0,0,0,0,0,0,0]","[0,0,0,0,0,0,0,0,0,0,0,0,0,0,0,0,0,0,0,0,0,0,0,0,0,0,0,0,0,0,0,0,0,0,0,0,0,0,0,0,0,0,0,0,0,0,0,0,0,0,0,0,0,0,0,0,0,0,0,0,0,0,0,0,0,0,0,0,0,0,0,0,0,0]","[0,0,0,0,0,0,0,0,0,0,0,0,0,0,0,0,0,0,0,0,0,0,0,0,0,0,0,0,0,0,0,0,0,0,0,0,0,0,0,0,0,0,0,0,0,0,0,0,0,0,0,0,0,0,0,0,0,0,0,0,0,0,0,0,0,0,0,0,0,0,0,0,0,0]","[0,0.01649999999999352,0.03300000000000125,0.04939999997615985,0.06610000002383742,0.08269999998807975,0.0993000000119224,0.11660000002383697,0.13299999999999557,0.14949999999998909,0.16710000002383651,0.18299999999999272,0.19960000002383538,0.21689999997614962,0.2336000000238414,0.2501000000238349,0.26610000002384027,0.28300000000000125,0.2996000000238439,0.3161000000238374,0.3328999999761493,0.3493000000119224,0.3661000000238346,0.3826999999880769,0.39919999998807043,0.4159999999999968,0.43269999998807407,0.4493000000119167,0.46589999997615905,0.48280000001192036,0.4994999999999976,0.5163000000119098,0.5326999999880684,0.5493999999761598,0.566199999988072,0.5826000000238309,0.599399999976157,0.6158999999761505,0.6328000000119118,0.6493000000119196,0.6661999999880805,0.6826999999880741,0.6995000000000005,0.7161000000238431,0.7326999999880712,0.7493999999761485,0.7658999999761562,0.7826999999880684,0.799300000011911,0.8161000000238374,0.8328000000119147,0.8494999999999919,0.8661999999880692,0.8826999999880769,0.8993000000119196,0.9159999999999968,0.9326999999880741,0.9493999999761513,0.965999999999994,0.9826000000238366,0.9993999999761485,1.0158999999761562,1.0326000000238338,1.0491000000238415,1.066199999988072,1.0826999999880798,1.099399999976157,1.1161999999880692,1.132699999988077,1.149499999999989,1.1659999999999968,1.1828000000119232,1.1993999999761513,1.215999999999994]",7,0,7,0,1,0.2829,,,,
K000000000-1,2025-06-18_09h26.34.444,GoFitts,2023.2.3,Win32,59.88023952,,,,,,"[-204.80488029759542,148.79945547925035]","[231.2665486631201,-102.96650141712354]",26,506.3055083,5.32,0,1.0498,"[-195,-195,-195,-195,-195,-195,-195,-195,-195,-195,-195,-194,-183,-167,-149,-113,-51,3,63,92,109,117,119,119,119,120,127,149,172,178,200,200,203,209,212,214,217,217,219,223,229,233,236,238,238,242,245,246,246,246,246,246,246,246,246,246,246,246,246,246,246,246,244,242,240,240,238,237,237,237,237,237,237,237,237,237,237,237,237,237,237,237,237,237,237,237,237,237,237,237,237,237,237,237,237,237,237,236,230,219,184,140,88,37,-11,-65,-111]","[154,154,154,154,154,154,154,154,154,154,154,149,137,125,112,87,48,13,-26,-46,-58,-64,-66,-66,-66,-66,-66,-66,-68,-70,-77,-77,-79,-84,-87,-90,-92,-92,-94,-96,-100,-104,-106,-107,-107,-109,-110,-110,-110,-110,-110,-110,-110,-110,-110,-110,-110,-110,-110,-110,-110,-110,-110,-110,-109,-109,-109,-108,-108,-108,-108,-108,-108,-108,-108,-108,-108,-108,-108,-108,-108,-108,-108,-108,-108,-108,-108,-108,-108,-108,-108,-108,-108,-108,-108,-108,-108,-108,-108,-106,-99,-86,-70,-50,-31,-8,11]","[0,0,0,0,0,0,0,0,0,0,0,0,0,0,0,0,0,0,0,0,0,0,0,0,0,0,0,0,0,0,0,0,0,0,0,0,0,0,0,0,0,0,0,0,0,0,0,0,0,0,0,0,0,0,0,0,0,0,0,0,0,0,0,0,0,0,0,0,0,0,0,0,0,0,0,0,0,0,0,0,0,0,0,0,0,0,0,0,0,0,0,0,0,0,0,0,0,0,0,0,0,0,0,0,0,0,0]","[0,0,0,0,0,0,0,0,0,0,0,0,0,0,0,0,0,0,0,0,0,0,0,0,0,0,0,0,0,0,0,0,0,0,0,0,0,0,0,0,0,0,0,0,0,0,0,0,0,0,0,0,0,0,0,0,0,0,0,0,0,0,0,0,0,0,0,0,0,0,0,0,0,0,0,0,0,0,0,0,0,0,0,0,0,0,0,0,0,0,0,0,0,0,0,0,0,0,0,0,0,0,0,0,0,0,0]","[0,0,0,0,0,0,0,0,0,0,0,0,0,0,0,0,0,0,0,0,0,0,0,0,0,0,0,0,0,0,0,0,0,0,0,0,0,0,0,0,0,0,0,0,0,0,0,0,0,0,0,0,0,0,0,0,0,0,0,0,0,0,0,0,0,0,0,0,0,0,0,0,0,0,0,0,0,0,0,0,0,0,0,0,0,0,0,0,0,0,0,0,0,0,0,0,0,0,0,0,0,0,0,0,0,0,0]","[0,0.01650000000000773,0.033100000023850384,0.049600000023843904,0.06630000001192116,0.08310000002384754,0.09950000000000614,0.11630000001193253,0.13300000000000978,0.1495000000000033,0.16620000004769508,0.18290000003577234,0.1997000000476845,0.21640000003577597,0.2329000000357695,0.24960000002384675,0.2662000000476894,0.28290000003576665,0.2996000000238439,0.31630000001192116,0.3329000000357638,0.34960000002384106,0.3663000000119325,0.38320000004769383,0.39960000002385243,0.4163000000119297,0.43300000000000693,0.4497000000476845,0.46630000001192684,0.4829000000357695,0.4997000000476959,0.516300000011924,0.5330000000000013,0.5496000000238439,0.5663000000119212,0.5830000000000126,0.5996000000238411,0.6161000000238488,0.6330000000000098,0.6499000000357711,0.6664000000357646,0.6829000000357723,0.6996000000238496,0.716400000035776,0.7328000000119204,0.7496000000238467,0.7665000000000077,0.7832000000476853,0.799700000047693,0.8163000000119212,0.8331000000238475,0.8496000000238411,0.8659000000357651,0.8831000000238447,0.8997000000476874,0.9164000000357646,0.9330000000000069,0.9497000000476845,0.9662000000476922,0.9830000000000041,0.9999000000357654,1.016300000011924,1.0329000000357667,1.0498000000119276,1.0664000000357703,1.0829000000357638,1.099600000023841,1.1162000000476837,1.1327000000476914,1.1497000000476874,1.1663000000119297,1.1831000000238419,1.1995000000000005,1.2163000000119268,1.233000000000004,1.2496000000238467,1.2664000000357731,1.2829000000357667,1.299700000047693,1.3163000000119212,1.3331000000238475,1.3495000000000061,1.3663000000119325,1.3830000000000098,1.3996000000238524,1.416200000047695,1.4328000000119232,1.4496000000238496,1.4669000000357642,1.4833000000119227,1.500200000047684,1.5169000000357755,1.5335000000000036,1.55030000001193,1.5669000000357727,1.5843000000119218,1.6003000000119272,1.6166000000238512,1.6332000000476938,1.6500000000000057,1.6670000000000016,1.683800000011928,1.6999000000357682,1.7166000000238455,1.7332000000476881,1.7499000000357654,1.766300000011924]",8,0,8,0,1,0.1997,,,,
K000000000-1,2025-06-18_09h26.34.444,GoFitts,2023.2.3,Win32,59.88023952,,,,,,"[231.2665486631201,-102.96650141712354]","[-247.62075911204218,52.633417154976485]",26,506.3055083,5.32,0,0.4496,"[-111,-130,-146,-159,-173,-183,-191,-197,-202,-208,-215,-233,-237,-249,-258,-262,-262,-263,-263,-263,-263,-263,-263,-263,-263,-263,-261,-256,-252,-251,-250,-250,-250,-250,-250,-250,-250,-250,-250,-250,-250,-250,-250,-250,-250,-250,-250,-250,-250,-250,-250,-250,-250,-250,-250,-250,-250,-250,-250,-250,-250,-250,-250,-250,-250,-250,-250,-250,-250,-247,-225,-204]","[11,20,29,37,46,48,50,50,50,50,49,47,46,44,42,42,42,42,42,42,42,42,42,42,42,44,46,55,59,60,61,61,61,61,61,61,61,61,61,61,61,61,61,61,61,61,61,61,61,61,61,61,61,61,61,61,61,61,61,61,61,61,61,61,61,61,61,61,61,61,59,56]","[0,0,0,0,0,0,0,0,0,0,0,0,0,0,0,0,0,0,0,0,0,0,0,0,0,0,0,0,0,0,0,0,0,0,0,0,0,0,0,0,0,0,0,0,0,0,0,0,0,0,0,0,0,0,0,0,0,0,0,0,0,0,0,0,0,0,0,0,0,0,0,0]","[0,0,0,0,0,0,0,0,0,0,0,0,0,0,0,0,0,0,0,0,0,0,0,0,0,0,0,0,0,0,0,0,0,0,0,0,0,0,0,0,0,0,0,0,0,0,0,0,0,0,0,0,0,0,0,0,0,0,0,0,0,0,0,0,0,0,0,0,0,0,0,0]","[0,0,0,0,0,0,0,0,0,0,0,0,0,0,0,0,0,0,0,0,0,0,0,0,0,0,0,0,0,0,0,0,0,0,0,0,0,0,0,0,0,0,0,0,0,0,0,0,0,0,0,0,0,0,0,0,0,0,0,0,0,0,0,0,0,0,0,0,0,0,0,0]","[0,0.016100000023840266,0.03280000001191752,0.04949999999999477,0.06610000002383742,0.08269999998807975,0.09940000003575733,0.11599999999999966,0.13280000001192604,0.14930000001191956,0.16610000002384595,0.1828000000119232,0.1998000000119191,0.2161999999880777,0.23310000002383902,0.2494999999999976,0.26590000003575653,0.2828000000119175,0.29949999999999477,0.31619999998808623,0.3328000000119147,0.34940000003575733,0.3661999999880834,0.3826999999880769,0.39930000001191956,0.41610000002384595,0.43269999998807407,0.4496000000238496,0.4661999999880777,0.4829000000357695,0.4994999999999976,0.5161999999880749,0.5329000000357667,0.5496000000238439,0.5661999999880862,0.5829000000357638,0.5993000000119224,0.6161999999880834,0.632900000035761,0.6494000000357687,0.666100000023846,0.6829000000357581,0.6994000000357659,0.7161999999880777,0.7329000000357695,0.7494999999999976,0.7661999999880749,0.7830000000000013,0.7994000000357602,0.8163000000119212,0.8329000000357638,0.8495000000000061,0.8659999999999997,0.882900000035761,0.8994000000357687,0.9161999999880805,0.9329000000357581,0.9494000000357659,0.9663000000119268,0.9830000000000041,0.999199999988079,1.0161000000238403,1.0329000000357667,1.0494999999999948,1.0661999999880862,1.0829000000357638,1.0995000000000061,1.1163000000119183,1.132800000011926,1.1494000000357687,1.1664000000357646,1.1829000000357581]",9,0,9,0,1,0.2331,,,,
K000000000-1,2025-06-18_09h26.34.444,GoFitts,2023.2.3,Win32,59.88023952,,,,,,"[-247.62075911204218,52.633417154976485]","[253.15275417153532,0]",26,506.3055083,5.32,0,0.416,"[-204,-172,-135,-77,-17,33,81,105,127,142,147,154,158,162,164,165,167,172,182,194,204,212,224,232,233,241,246,249,254,256,257,257,257,257,257,257,257,257,257,257,257,257,257,257,257,257,257,257,257,257,257,257,257,257,257,257,257,257,257,257,257,257,257,257,257,257,257,257,257]","[56,52,49,47,46,44,41,40,39,38,37,37,36,36,35,35,34,33,28,22,17,12,5,2,2,-1,-3,-4,-5,-6,-6,-6,-6,-6,-6,-6,-6,-6,-6,-6,-6,-6,-6,-6,-6,-6,-6,-6,-6,-6,-6,-6,-6,-6,-6,-6,-6,-6,-6,-6,-6,-6,-6,-6,-6,-6,-6,-6,-6]","[0,0,0,0,0,0,0,0,0,0,0,0,0,0,0,0,0,0,0,0,0,0,0,0,0,0,0,0,0,0,0,0,0,0,0,0,0,0,0,0,0,0,0,0,0,0,0,0,0,0,0,0,0,0,0,0,0,0,0,0,0,0,0,0,0,0,0,0,0]","[0,0,0,0,0,0,0,0,0,0,0,0,0,0,0,0,0,0,0,0,0,0,0,0,0,0,0,0,0,0,0,0,0,0,0,0,0,0,0,0,0,0,0,0,0,0,0,0,0,0,0,0,0,0,0,0,0,0,0,0,0,0,0,0,0,0,0,0,0]","[0,0,0,0,0,0,0,0,0,0,0,0,0,0,0,0,0,0,0,0,0,0,0,0,0,0,0,0,0,0,0,0,0,0,0,0,0,0,0,0,0,0,0,0,0,0,0,0,0,0,0,0,0,0,0,0,0,0,0,0,0,0,0,0,0,0,0,0,0]","[0,0.015700000047687013,0.032600000023848,0.04940000003576017,0.06580000001191877,0.08249999999999602,0.09920000004768781,0.11570000004768133,0.13240000003575858,0.14910000002383583,0.1658000000119273,0.18240000003576995,0.1991000000238472,0.21580000001192445,0.2324000000357671,0.24920000004767928,0.2658000000119216,0.28249999999999886,0.29920000004769065,0.3160000000000025,0.332499999999996,0.3492000000476878,0.3658000000119159,0.3824000000357586,0.3990000000000009,0.4159999999999968,0.4327000000476886,0.4491000000238472,0.46570000004768985,0.4824000000357671,0.499400000035763,0.5159000000357707,0.5324999999999989,0.5491000000238415,0.5659000000357679,0.5823000000119265,0.5992000000476878,0.6158000000119159,0.6325000000000074,0.649200000047685,0.6657000000476785,0.6823000000119208,0.6992000000476821,0.7159000000357594,0.7326000000238366,0.7491000000238444,0.765700000047687,0.782600000023848,0.7992000000476907,0.8158000000119188,0.8323000000119265,0.8492000000476878,0.8659000000357651,0.8825000000000074,0.8990000000000009,0.9159000000357622,0.9325000000000045,0.9492000000476821,0.9659000000357594,0.9825000000000017,0.9992000000476793,1.015700000047687,1.0324999999999989,1.0491000000238415,1.0658000000119188,1.0826000000238452,1.098900000035755,1.115800000011916,1.1326000000238423]",10,0,10,0,1,,,,,
K000000000-1,2025-06-18_09h26.34.444,GoFitts,2023.2.3,Win32,59.88023952,,,,,,"[253.15275417153532,0]","[-247.62075911204218,-52.63341715497642]",26,506.3055083,5.32,0,0.7663,"[257,257,257,257,257,257,254,248,241,234,230,228,227,227,222,204,177,133,76,21,-19,-64,-120,-169,-213,-250,-264,-270,-280,-282,-284,-285,-285,-285,-285,-283,-276,-271,-271,-267,-264,-260,-258,-258,-258,-258,-258,-258,-258,-258,-258,-258,-257,-256,-254,-249,-246,-245,-245,-245,-245,-245,-245,-245,-245,-245,-245,-245,-245,-245,-245,-245,-245,-245,-245,-245,-245,-245,-245,-245,-245,-245,-245,-245,-245,-245,-245,-245,-245,-245,-245]","[-6,-6,-6,-6,-6,-6,-6,-6,-7,-7,-7,-7,-7,-7,-7,-8,-8,-8,-8,-11,-14,-17,-22,-28,-33,-36,-40,-41,-45,-47,-49,-51,-52,-56,-58,-61,-66,-69,-69,-69,-69,-68,-68,-68,-67,-63,-60,-59,-58,-58,-58,-57,-57,-56,-55,-54,-53,-53,-53,-53,-53,-53,-53,-53,-53,-53,-53,-53,-53,-53,-53,-53,-53,-53,-53,-53,-53,-53,-53,-53,-53,-53,-53,-53,-53,-53,-53,-53,-53,-53,-53]","[0,0,0,0,0,0,0,0,0,0,0,0,0,0,0,0,0,0,0,0,0,0,0,0,0,0,0,0,0,0,0,0,0,0,0,0,0,0,0,0,0,0,0,0,0,0,0,0,0,0,0,0,0,0,0,0,0,0,0,0,0,0,0,0,0,0,0,0,0,0,0,0,0,0,0,0,0,0,0,0,0,0,0,0,0,0,0,0,0,0,0]","[0,0,0,0,0,0,0,0,0,0,0,0,0,0,0,0,0,0,0,0,0,0,0,0,0,0,0,0,0,0,0,0,0,0,0,0,0,0,0,0,0,0,0,0,0,0,0,0,0,0,0,0,0,0,0,0,0,0,0,0,0,0,0,0,0,0,0,0,0,0,0,0,0,0,0,0,0,0,0,0,0,0,0,0,0,0,0,0,0,0,0]","[0,0,0,0,0,0,0,0,0,0,0,0,0,0,0,0,0,0,0,0,0,0,0,0,0,0,0,0,0,0,0,0,0,0,0,0,0,0,0,0,0,0,0,0,0,0,0,0,0,0,0,0,0,0,0,0,0,0,0,0,0,0,0,0,0,0,0,0,0,0,0,0,0,0,0,0,0,0,0,0,0,0,0,0,0,0,0,0,0,0,0]","[0,0.015799999952321286,0.03239999997616394,0.04909999996424119,0.06569999998808385,0.08229999995231196,0.09900000000000375,0.115699999988081,0.13239999997615826,0.1490999999642355,0.16579999995231276,0.1822999999523205,0.19909999996423267,0.21569999998807532,0.2325000000000017,0.24899999999999523,0.2658999999761562,0.28249999999999886,0.2990999999642412,0.31579999995231844,0.3323999999761611,0.34909999996423835,0.36589999997616474,0.3826999999880769,0.39929999995231924,0.4158999999761619,0.4323999999761554,0.44909999996423267,0.4656999999880753,0.4825999999642363,0.49909999996424403,0.5160000000000053,0.5324999999999989,0.5492999999523249,0.5658999999761534,0.5823999999761611,0.5990999999642384,0.6157999999523156,0.6325000000000074,0.6490999999642355,0.6658999999761619,0.6825000000000045,0.6990999999642327,0.715899999976159,0.7330000000000041,0.7492999999523136,0.7662999999523237,0.7826999999880826,0.7990999999642412,0.8157999999523184,0.8326999999880798,0.8492999999523221,0.8658999999761647,0.882599999964242,0.8992999999523192,0.9162999999523151,0.9326999999880741,0.9497999999523188,0.9663999999761614,0.9825999999642363,0.999099999964244,1.0162999999523237,1.0330000000000013,1.0496999999880785,1.0661999999880862,1.0827999999523144,1.0996999999880757,1.116399999976153,1.1327999999523115,1.1492999999523192,1.1662999999523151,1.183000000000007,1.1996999999880842,1.2162999999523123,1.232899999976155,1.2494999999999976,1.2662999999523237,1.2830999999642358,1.2996999999880785,1.3165999999642395,1.3331999999880821,1.3495999999642407,1.3660999999642343,1.3830999999642444,1.399599999964238,1.4161999999880805,1.433000000000007,1.449599999964235,1.4663999999761614,1.482899999976155,1.4994999999999976]",11,0,11,0,1,0.1324,,,,
K000000000-1,2025-06-18_09h26.34.444,GoFitts,2023.2.3,Win32,59.88023952,,,,,,"[-247.62075911204218,-52.63341715497642]","[231.26654866312006,102.96650141712354]",26,506.3055083,5.32,0,0.7838,"[-245,-245,-245,-244,-237,-225,-220,-217,-216,-216,-215,-209,-189,-125,-65,-33,9,62,84,104,130,150,161,165,166,166,166,166,166,166,166,169,193,216,241,269,280,282,282,282,282,282,280,275,267,259,247,237,232,231,230,230,230,230,230,230,230,230,230,230,230,230,230,230,230,230,230,230,230,230,230,230,230,230,230,230,230,230,230,230,230,230,230,230,230,230,230,229,219,204,182,136]","[-53,-53,-53,-53,-49,-43,-41,-40,-40,-40,-39,-37,-31,-6,14,24,38,56,62,65,68,71,73,75,76,76,76,76,76,76,76,79,88,94,97,99,100,101,101,101,101,101,101,101,101,101,101,100,99,99,99,99,99,99,99,99,99,99,99,99,99,99,99,99,99,99,99,99,99,99,99,99,99,99,99,99,99,99,99,99,99,99,99,99,99,99,99,99,98,95,87,63]","[0,0,0,0,0,0,0,0,0,0,0,0,0,0,0,0,0,0,0,0,0,0,0,0,0,0,0,0,0,0,0,0,0,0,0,0,0,0,0,0,0,0,0,0,0,0,0,0,0,0,0,0,0,0,0,0,0,0,0,0,0,0,0,0,0,0,0,0,0,0,0,0,0,0,0,0,0,0,0,0,0,0,0,0,0,0,0,0,0,0,0,0]","[0,0,0,0,0,0,0,0,0,0,0,0,0,0,0,0,0,0,0,0,0,0,0,0,0,0,0,0,0,0,0,0,0,0,0,0,0,0,0,0,0,0,0,0,0,0,0,0,0,0,0,0,0,0,0,0,0,0,0,0,0,0,0,0,0,0,0,0,0,0,0,0,0,0,0,0,0,0,0,0,0,0,0,0,0,0,0,0,0,0,0,0]","[0,0,0,0,0,0,0,0,0,0,0,0,0,0,0,0,0,0,0,0,0,0,0,0,0,0,0,0,0,0,0,0,0,0,0,0,0,0,0,0,0,0,0,0,0,0,0,0,0,0,0,0,0,0,0,0,0,0,0,0,0,0,0,0,0,0,0,0,0,0,0,0,0,0,0,0,0,0,0,0,0,0,0,0,0,0,0,0,0,0,0,0]","[0.00010000002384913387,0.016000000000005343,0.032500000000013074,0.049199999988090326,0.06580000001193298,0.08289999997616349,0.09919999998808748,0.11589999997616474,0.13300000000000978,0.14919999998808464,0.1658999999761619,0.18260000002385368,0.1991999999880818,0.2161000000238431,0.2325000000000017,0.2493000000119281,0.2658999999761704,0.282600000023848,0.2991999999880903,0.3160000000000025,0.33260000002384515,0.3491999999880875,0.36599999999999966,0.3826000000238423,0.3993999999761684,0.4158999999761619,0.43250000000000455,0.4491000000238472,0.46580000001192445,0.48260000002385084,0.49910000002384436,0.5158999999761704,0.532600000023848,0.5493000000119252,0.5663000000119212,0.5838999999761683,0.5998999999761594,0.6166000000238512,0.6323999999761583,0.6493999999761684,0.6656999999880924,0.6823000000119208,0.6993000000119309,0.7163000000119268,0.7326999999880854,0.7501000000238491,0.7666999999880915,0.7838000000119223,0.7998999999761622,0.8156999999880838,0.8325000000000102,0.8491999999880875,0.8659999999999997,0.8825000000000074,0.89910000002385,0.9158999999761619,0.9323999999761696,0.9493000000119309,0.9660000000000082,0.9826000000238508,0.9993000000119281,1.0156999999880867,1.0321999999880802,1.0488000000119229,1.0653999999761652,1.0823000000119265,1.0991000000238529,1.1161999999880834,1.132800000011926,1.1491999999880846,1.166000000000011,1.1828000000119232,1.1991000000238472,1.215899999976159,1.2328999999761692,1.2495000000000118,1.2660000000000053,1.2828000000119317,1.3000000000000114,1.3161999999880862,1.3333000000119313,1.3491000000238529,1.3659999999999997,1.3826000000238423,1.399699999988087,1.416100000023846,1.4323999999761696,1.4495000000000005,1.467000000000013,1.4838000000119251,1.499199999988079,1.5160000000000053]",12,0,12,0,1,0.0828,,,,
K000000000-1,2025-06-18_09h26.34.444,GoFitts,2023.2.3,Win32,59.88023952,,,,,,"[231.26654866312006,102.96650141712354]","[-204.80488029759547,-148.7994554792503]",26,506.3055083,5.32,0,0.4489,"[136,90,38,-6,-44,-58,-87,-105,-117,-125,-135,-139,-141,-141,-141,-141,-141,-141,-145,-147,-157,-168,-176,-180,-184,-187,-190,-193,-196,-198,-198,-198,-198,-199,-200,-203,-204,-204,-204,-204,-204,-204,-204,-204,-204,-204,-204,-204,-204,-204,-204,-204,-204,-204,-204,-204,-204,-204,-204,-204,-204,-204,-204,-204,-204,-204,-204,-204,-204,-204,-204,-204]","[63,35,0,-32,-63,-76,-101,-117,-126,-132,-139,-141,-142,-142,-142,-142,-142,-142,-142,-142,-143,-145,-147,-149,-150,-151,-152,-153,-153,-153,-153,-153,-153,-153,-153,-153,-153,-153,-153,-153,-153,-153,-153,-153,-153,-153,-153,-153,-153,-153,-153,-153,-153,-153,-153,-153,-153,-153,-153,-153,-153,-153,-153,-153,-153,-153,-153,-153,-153,-153,-153,-153]","[0,0,0,0,0,0,0,0,0,0,0,0,0,0,0,0,0,0,0,0,0,0,0,0,0,0,0,0,0,0,0,0,0,0,0,0,0,0,0,0,0,0,0,0,0,0,0,0,0,0,0,0,0,0,0,0,0,0,0,0,0,0,0,0,0,0,0,0,0,0,0,0]","[0,0,0,0,0,0,0,0,0,0,0,0,0,0,0,0,0,0,0,0,0,0,0,0,0,0,0,0,0,0,0,0,0,0,0,0,0,0,0,0,0,0,0,0,0,0,0,0,0,0,0,0,0,0,0,0,0,0,0,0,0,0,0,0,0,0,0,0,0,0,0,0]","[0,0,0,0,0,0,0,0,0,0,0,0,0,0,0,0,0,0,0,0,0,0,0,0,0,0,0,0,0,0,0,0,0,0,0,0,0,0,0,0,0,0,0,0,0,0,0,0,0,0,0,0,0,0,0,0,0,0,0,0,0,0,0,0,0,0,0,0,0,0,0,0]","[0,0.0162000000476894,0.03230000001192934,0.048900000035771995,0.06570000004768417,0.08240000003576142,0.09880000001192002,0.1156000000238464,0.13220000004768906,0.1490000000000009,0.16560000002384356,0.18230000001192082,0.1986000000238448,0.21510000002385254,0.23199999999999932,0.2488000000119257,0.2651000000238497,0.2819000000357619,0.29860000002383913,0.3153000000119306,0.33200000000000784,0.3486000000238505,0.36530000001192775,0.3819000000357704,0.3987000000476826,0.4153000000119249,0.43200000000000216,0.44890000003576347,0.4654000000357712,0.4819000000357647,0.49860000002384197,0.5153000000119192,0.5319000000357619,0.548900000035772,0.5652000000476818,0.5819000000357732,0.5985000000000014,0.6153000000119278,0.6318000000119213,0.6487000000476826,0.6653000000119249,0.6818000000119184,0.6986000000238448,0.7154000000357712,0.7318000000119298,0.7483000000119233,0.7650000000000006,0.7820000000000107,0.7986000000238391,0.8154000000357655,0.8318000000119241,0.8486000000238505,0.865100000023844,0.8816000000238517,0.8982000000476944,0.9150000000000063,0.9316000000238489,0.9483000000119262,0.9650000000000034,0.9814999999999969,0.9981000000238396,1.014900000035766,1.0316000000238432,1.0483000000119205,1.0651000000238469,1.0817000000476895,1.0983000000119176,1.115100000023844,1.1318000000119213,1.148400000035764,1.1649000000357717,1.1817000000476838]",13,0,13,0,1,,,,,
K000000000-1,2025-06-18_09h26.34.444,GoFitts,2023.2.3,Win32,59.88023952,,,,,,"[-204.80488029759547,-148.7994554792503]","[169.39225590021442,188.1291593179273]",26,506.3055083,5.32,0,0.8999,"[-204,-204,-204,-204,-204,-204,-204,-204,-204,-204,-204,-204,-203,-203,-203,-201,-194,-174,-110,-51,4,48,68,81,86,93,102,115,120,124,126,126,126,126,126,126,126,126,126,134,146,162,181,197,199,200,200,200,200,200,198,192,188,185,180,179,178,176,174,173,173,173,173,173,172,172,172,172,172,172,172,172,172,172,172,172,172,172,172,172,172,172,172,172,172,172,172,172,172,172,172,172,172,172,172,172,172,172]","[-153,-153,-153,-153,-153,-153,-153,-153,-153,-153,-153,-153,-153,-153,-153,-153,-144,-125,-61,-5,48,88,109,120,125,131,140,150,154,157,158,159,159,159,159,159,159,159,159,163,169,176,183,190,193,193,193,193,193,193,193,193,193,193,193,193,193,193,192,192,192,192,192,192,192,192,192,192,192,192,192,192,192,192,192,192,192,192,192,192,192,192,192,192,192,192,192,192,192,192,192,192,192,192,192,192,192,192]","[0,0,0,0,0,0,0,0,0,0,0,0,0,0,0,0,0,0,0,0,0,0,0,0,0,0,0,0,0,0,0,0,0,0,0,0,0,0,0,0,0,0,0,0,0,0,0,0,0,0,0,0,0,0,0,0,0,0,0,0,0,0,0,0,0,0,0,0,0,0,0,0,0,0,0,0,0,0,0,0,0,0,0,0,0,0,0,0,0,0,0,0,0,0,0,0,0,0]","[0,0,0,0,0,0,0,0,0,0,0,0,0,0,0,0,0,0,0,0,0,0,0,0,0,0,0,0,0,0,0,0,0,0,0,0,0,0,0,0,0,0,0,0,0,0,0,0,0,0,0,0,0,0,0,0,0,0,0,0,0,0,0,0,0,0,0,0,0,0,0,0,0,0,0,0,0,0,0,0,0,0,0,0,0,0,0,0,0,0,0,0,0,0,0,0,0,0]","[0,0,0,0,0,0,0,0,0,0,0,0,0,0,0,0,0,0,0,0,0,0,0,0,0,0,0,0,0,0,0,0,0,0,0,0,0,0,0,0,0,0,0,0,0,0,0,0,0,0,0,0,0,0,0,0,0,0,0,0,0,0,0,0,0,0,0,0,0,0,0,0,0,0,0,0,0,0,0,0,0,0,0,0,0,0,0,0,0,0,0,0,0,0,0,0,0,0]","[0,0.0162000000476894,0.03300000000000125,0.049600000023843904,0.06640000003577029,0.08299999999999841,0.0997000000476902,0.11620000004768372,0.13290000003576097,0.1495000000000033,0.16620000004768087,0.18290000003575813,0.1997000000476845,0.21640000003576176,0.2330000000000041,0.24970000004768167,0.2664000000357589,0.2831000000238504,0.2997000000476788,0.31630000001192116,0.3329999999999984,0.34960000002384106,0.3663000000119183,0.38290000003576097,0.39980000001192195,0.41660000002384834,0.433200000047691,0.4497000000476845,0.46640000003576176,0.48340000003575767,0.49980000001191627,0.5168000000119264,0.5333000000119199,0.5499000000357626,0.5666000000238398,0.5833000000119171,0.6002000000476784,0.616500000000002,0.6331000000238447,0.6499000000357711,0.6664000000357646,0.6833000000119256,0.6999000000357682,0.7168000000119292,0.733100000023839,0.7502000000476841,0.7665000000000077,0.7831000000238504,0.7999000000357626,0.816700000047689,0.8331000000238475,0.8498000000119248,0.8664000000357674,0.8832000000476796,0.8999000000357711,0.9167000000476833,0.9331000000238419,0.9497000000476845,0.9663000000119268,0.9830000000000041,0.9996000000238467,1.0167000000476918,1.0329000000357667,1.0499000000357626,1.0666000000238398,1.083300000011917,1.1000000000000085,1.116600000023837,1.1333000000119284,1.149800000011922,1.1666000000238483,1.183200000047691,1.1999000000357682,1.2164999999999964,1.2333000000119227,1.2498000000119163,1.266400000035759,1.2830000000000013,1.2997000000476788,1.3163000000119212,1.3331000000238475,1.3500000000000085,1.366600000023837,1.3839000000357657,1.4007000000476921,1.4170000000000016,1.434600000023849,1.4506000000238402,1.4669999999999987,1.4838000000119251,1.5003000000119187,1.5169000000357613,1.5337000000476877,1.5501000000238463,1.5666000000238398,1.5834000000357662,1.5998000000119248,1.616600000023837]",14,0,14,0,1,0.2831,,,,
K000000000-1,2025-06-18_09h26.34.444,GoFitts,2023.2.3,Win32,59.88023952,,,,,,,,,,,0,,,,,,,,,,,,,,0,0,0,1
K000000000-1,2025-06-18_09h26.34.444,GoFitts,2023.2.3,Win32,59.88023952,,,,,,"[-108,-198]","[-36.69010131186691,349.08299574345244]",74,702.0116849,4.32,1,0.8648,"[-108,-108,-108,-108,-108,-108,-108,-108,-108,-108,-108,-108,-108,-108,-108,-108,-108,-108,-108,-108,-108,-108,-108,-108,-108,-108,-108,-108,-108,-108,-108,-108,-108,-108,-107,-98,-96,-92,-89,-84,-80,-76,-74,-71,-70,-62,-56,-53,-52,-52,-51,-48,-43,-38,-37,-36,-36,-36,-36,-37,-38,-38,-38,-38,-38,-38,-38,-38,-38,-38,-38,-38,-38,-38,-38,-38,-38,-38,-38,-38,-38,-38,-38,-38,-38,-38,-38,-38,-38,-38,-38,-38,-38,-38,-38,-38]","[-198,-198,-198,-198,-198,-198,-198,-198,-198,-198,-198,-198,-198,-198,-198,-198,-198,-198,-198,-198,-198,-198,-198,-198,-198,-198,-198,-198,-198,-198,-198,-188,-152,-129,-35,116,198,241,258,274,281,285,287,289,289,295,300,303,304,305,306,308,315,323,326,328,330,332,335,337,339,340,340,341,341,341,341,341,341,341,341,341,341,341,341,341,341,341,341,341,341,341,341,341,341,341,341,341,341,341,341,341,341,341,341,341]","[0,0,0,0,0,0,0,0,0,0,0,0,0,0,0,0,0,0,0,0,0,0,0,0,0,0,0,0,0,0,0,0,0,0,0,0,0,0,0,0,0,0,0,0,0,0,0,0,0,0,0,0,0,0,0,0,0,0,0,0,0,0,0,0,0,0,0,0,0,0,0,0,0,0,0,0,0,0,0,0,0,0,0,0,0,0,0,0,0,0,0,0,0,0,0,0]","[0,0,0,0,0,0,0,0,0,0,0,0,0,0,0,0,0,0,0,0,0,0,0,0,0,0,0,0,0,0,0,0,0,0,0,0,0,0,0,0,0,0,0,0,0,0,0,0,0,0,0,0,0,0,0,0,0,0,0,0,0,0,0,0,0,0,0,0,0,0,0,0,0,0,0,0,0,0,0,0,0,0,0,0,0,0,0,0,0,0,0,0,0,0,0,0]","[0,0,0,0,0,0,0,0,0,0,0,0,0,0,0,0,0,0,0,0,0,0,0,0,0,0,0,0,0,0,0,0,0,0,0,0,0,0,0,0,0,0,0,0,0,0,0,0,0,0,0,0,0,0,0,0,0,0,0,0,0,0,0,0,0,0,0,0,0,0,0,0,0,0,0,0,0,0,0,0,0,0,0,0,0,0,0,0,0,0,0,0,0,0,0,0]","[0,0.014399999976163258,0.030899999976156778,0.04749999999999943,0.06409999996424176,0.08100000000000307,0.09779999995231492,0.11429999995232265,0.13100000000000023,0.1478999999761612,0.16439999997615473,0.18119999998808112,0.19769999998807464,0.21419999998808237,0.23099999999999454,0.2477999999523206,0.2644999999999982,0.28129999995231003,0.2980999999642364,0.31479999995231367,0.3313999999761563,0.3482999999523173,0.36489999997615996,0.3813999999761535,0.39829999995231447,0.41500000000000625,0.4314999999999998,0.4482999999523116,0.46469999998808476,0.48159999996423153,0.4981999999880742,0.5151999999880843,0.5320999999642311,0.5485000000000042,0.5649999999999977,0.5815000000000055,0.5980999999642336,0.6145999999642413,0.6318999999761559,0.6479999999999961,0.6646999999880734,0.6813999999761648,0.6978999999761584,0.7146999999880848,0.731399999976162,0.7480999999642393,0.7646999999880819,0.7819999999999965,0.7977999999523178,0.8143999999761604,0.8310999999642377,0.8476999999880803,0.8647999999523108,0.881799999952321,0.8985999999642331,0.9152999999523104,0.9313999999761648,0.9480999999642421,0.964500000000001,0.9812999999523129,0.9978999999761555,1.0150000000000006,1.0310999999642405,1.0480000000000018,1.064699999988079,1.0812999999523214,1.0980999999642336,1.1146999999880762,1.131799999952321,1.1476999999880775,1.1646999999880734,1.1811999999880811,1.198099999964242,1.2145999999642356,1.231499999999997,1.2481999999880742,1.264699999988082,1.2811999999880754,1.2980000000000018,1.3144999999999953,1.3310999999642377,1.347999999999999,1.3646999999880762,1.3810999999642348,1.3979999999999961,1.4146999999880734,1.4316999999880835,1.4482999999523116,1.4647999999523194,1.4817999999523153,1.4980000000000047,1.5147999999523165,1.53129999995231,1.5480999999642364,1.5647999999523137,1.58159999996424]",0,0,0,0,1,0.5151,,,,
K000000000-1,2025-06-18_09h26.34.444,GoFitts,2023.2.3,Win32,59.88023952,,,,,,"[-36.69010131186691,349.08299574345244]","[108.46677044963273,-333.82639374340215]",74,702.0116849,4.32,1,0.6651,"[-38,-38,-38,-38,-38,-38,-38,-38,-38,-38,-38,-38,-38,-38,-38,-38,-38,-35,-30,-16,2,7,23,44,51,64,71,80,85,87,87,87,87,85,80,76,73,72,72,72,84,99,117,130,132,132,132,132,132,132,132,132,132,132,132,131,131,131,131,131,131,131,131,131,131,131,131,131,131,131,131,131,131,131,131,131,131,131,131,131,131,131,131,131]","[341,341,341,341,341,341,341,341,341,341,341,341,341,341,341,333,288,224,137,27,-74,-97,-149,-192,-204,-220,-230,-241,-249,-252,-253,-253,-259,-275,-291,-300,-309,-310,-310,-310,-310,-310,-310,-312,-314,-315,-315,-315,-315,-315,-315,-315,-315,-315,-315,-315,-315,-315,-315,-315,-315,-315,-315,-315,-315,-315,-315,-315,-315,-315,-315,-315,-315,-315,-315,-315,-315,-315,-315,-315,-315,-315,-315,-315]","[0,0,0,0,0,0,0,0,0,0,0,0,0,0,0,0,0,0,0,0,0,0,0,0,0,0,0,0,0,0,0,0,0,0,0,0,0,0,0,0,0,0,0,0,0,0,0,0,0,0,0,0,0,0,0,0,0,0,0,0,0,0,0,0,0,0,0,0,0,0,0,0,0,0,0,0,0,0,0,0,0,0,0,0]","[0,0,0,0,0,0,0,0,0,0,0,0,0,0,0,0,0,0,0,0,0,0,0,0,0,0,0,0,0,0,0,0,0,0,0,0,0,0,0,0,0,0,0,0,0,0,0,0,0,0,0,0,0,0,0,0,0,0,0,0,0,0,0,0,0,0,0,0,0,0,0,0,0,0,0,0,0,0,0,0,0,0,0,0]","[0,0,0,0,0,0,0,0,0,0,0,0,0,0,0,0,0,0,0,0,0,0,0,0,0,0,0,0,0,0,0,0,0,0,0,0,0,0,0,0,0,0,0,0,0,0,0,0,0,0,0,0,0,0,0,0,0,0,0,0,0,0,0,0,0,0,0,0,0,0,0,0,0,0,0,0,0,0,0,0,0,0,0,0]","[0,0.01659999996424233,0.03230000001191513,0.04880000001192286,0.06559999996423471,0.08199999999999363,0.09859999996423596,0.11539999997616235,0.13189999997615587,0.14869999998808225,0.1653999999761595,0.18200000000000216,0.19859999996423028,0.21519999998807293,0.23199999999999932,0.24849999999999284,0.26550000000000296,0.2819999999999965,0.29869999998807373,0.3155000000000001,0.33159999996424006,0.34839999997615223,0.3649999999999949,0.38180000001192127,0.3984999999999985,0.41509999996424085,0.43180000001191843,0.44830000001192616,0.4650000000000034,0.4818000000119156,0.49849999999999284,0.5150999999642352,0.5316999999880778,0.5483999999761551,0.5649999999999977,0.5818000000119241,0.5981999999880827,0.6150999999642437,0.6313999999761535,0.6479999999999961,0.6650999999642409,0.6813999999761506,0.6980999999642421,0.7148000000119197,0.7314999999999969,0.7481999999880742,0.7650999999642352,0.7815999999642429,0.7983999999761551,0.8148999999761628,0.83159999996424,0.8483000000119176,0.8650999999642437,0.8815000000000026,0.8981999999880799,0.9148999999761571,0.9316999999880835,0.948199999988077,0.965099999964238,0.9814999999999969,0.9983999999761579,1.0150999999642352,1.0316999999880778,1.0483000000119205,1.0650999999642323,1.0815000000000055,1.0983999999761522,1.1149999999999949,1.1316999999880721,1.1483999999761636,1.1650999999642409,1.1815999999642344,1.1983999999761608,1.215199999988073,1.2315999999642315,1.248399999976158,1.2648999999761514,1.2816999999880778,1.298399999976155,1.3149999999999977,1.331699999988075,1.3481999999880827,1.3651999999880786,1.3818000000119213]",1,0,1,0,1,0.2655,,,,
K000000000-1,2025-06-18_09h26.34.444,GoFitts,2023.2.3,Win32,59.88023952,,,,,,"[108.46677044963273,-333.82639374340215]","[-175.5029212374385,303.9799764600026]",74,702.0116849,4.32,1,0.5331,"[131,131,131,131,131,131,131,131,131,127,107,66,17,-34,-65,-121,-187,-208,-211,-212,-212,-212,-212,-212,-212,-212,-212,-212,-212,-212,-211,-201,-182,-167,-155,-155,-155,-155,-155,-155,-155,-155,-159,-161,-162,-162,-162,-162,-162,-162,-162,-162,-162,-162,-162,-162,-162,-162,-162,-162,-162,-162,-162,-162,-162,-162,-162,-162,-162,-162,-162,-162,-162,-162,-162,-162]","[-315,-315,-315,-315,-315,-315,-315,-315,-315,-311,-273,-204,-131,-43,16,127,279,332,338,344,344,344,344,344,344,344,344,344,344,344,344,337,322,309,299,299,299,299,299,299,299,299,299,299,299,299,299,299,299,299,299,299,299,299,299,299,299,299,299,299,299,299,299,299,299,299,299,299,299,299,299,299,299,299,299,299]","[0,0,0,0,0,0,0,0,0,0,0,0,0,0,0,0,0,0,0,0,0,0,0,0,0,0,0,0,0,0,0,0,0,0,0,0,0,0,0,0,0,0,0,0,0,0,0,0,0,0,0,0,0,0,0,0,0,0,0,0,0,0,0,0,0,0,0,0,0,0,0,0,0,0,0,0]","[0,0,0,0,0,0,0,0,0,0,0,0,0,0,0,0,0,0,0,0,0,0,0,0,0,0,0,0,0,0,0,0,0,0,0,0,0,0,0,0,0,0,0,0,0,0,0,0,0,0,0,0,0,0,0,0,0,0,0,0,0,0,0,0,0,0,0,0,0,0,0,0,0,0,0,0]","[0,0,0,0,0,0,0,0,0,0,0,0,0,0,0,0,0,0,0,0,0,0,0,0,0,0,0,0,0,0,0,0,0,0,0,0,0,0,0,0,0,0,0,0,0,0,0,0,0,0,0,0,0,0,0,0,0,0,0,0,0,0,0,0,0,0,0,0,0,0,0,0,0,0,0,0]","[0,0.015999999999991132,0.03249999999999886,0.04909999996422698,0.0660000000000025,0.08319999998808214,0.09979999995231026,0.11669999998807157,0.1331999999880793,0.14999999999999147,0.1665999999642338,0.18319999998807646,0.19939999997615132,0.2161999999880777,0.23279999995232004,0.24939999997614848,0.2665999999642281,0.28350000000000364,0.299899999976148,0.316199999988072,0.33269999998807975,0.34949999999999193,0.3661999999880692,0.38289999997616064,0.3995000000000033,0.41619999998808055,0.43259999996423915,0.4492999999523164,0.4660999999642286,0.48289999997615496,0.4994999999999976,0.5160999999642399,0.5330999999642358,0.549899999976148,0.5660999999642371,0.5826999999880798,0.5994999999999919,0.6161999999880692,0.6327999999523115,0.6495000000000033,0.6660999999642314,0.6825999999642391,0.6995000000000005,0.715899999976159,0.73279999995232,0.749199999988079,0.7657999999523071,0.7824999999999989,0.7991999999880761,0.8156999999880696,0.832499999999996,0.8490999999642384,0.8657999999523156,0.8824999999999932,0.8997999999523074,0.9163999999761501,0.9330999999642273,0.9491999999880818,0.965999999999994,0.98279999995232,0.9993999999761485,1.0159999999999911,1.0326999999880826,1.0492999999523107,1.0660000000000025,1.0827999999523144,1.099499999999992,1.1160999999642343,1.1325999999642278,1.1493999999761542,1.1659999999999968,1.182699999988074,1.199599999964235,1.215899999976159,1.232899999976155,1.2498999999761509]",2,0,2,0,1,0.1665,,,,
K000000000-1,2025-06-18_09h26.34.444,GoFitts,2023.2.3,Win32,59.88023952,,,,,,"[-175.5029212374385,303.9799764600026]","[234.8687522107165,-260.84817554753823]",74,702.0116849,4.32,1,0.4484,"[-162,-161,-139,-110,-70,-43,7,52,65,83,96,103,108,112,115,119,119,119,119,120,123,130,136,154,186,212,227,238,239,239,239,239,239,239,239,239,240,240,241,241,241,241,241,241,241,241,241,241,241,241,241,241,241,241,241,241,241,241,241,241,241,241,241,241,241,241,241,241,241,241,241]","[299,291,250,201,137,94,18,-62,-86,-129,-160,-179,-199,-208,-216,-220,-221,-221,-221,-221,-221,-221,-221,-221,-222,-222,-224,-225,-225,-225,-225,-225,-225,-228,-234,-245,-254,-257,-259,-259,-259,-259,-259,-259,-259,-259,-259,-259,-259,-259,-259,-259,-259,-259,-259,-259,-259,-259,-259,-259,-259,-259,-259,-259,-259,-259,-259,-259,-259,-259,-259]","[0,0,0,0,0,0,0,0,0,0,0,0,0,0,0,0,0,0,0,0,0,0,0,0,0,0,0,0,0,0,0,0,0,0,0,0,0,0,0,0,0,0,0,0,0,0,0,0,0,0,0,0,0,0,0,0,0,0,0,0,0,0,0,0,0,0,0,0,0,0,0]","[0,0,0,0,0,0,0,0,0,0,0,0,0,0,0,0,0,0,0,0,0,0,0,0,0,0,0,0,0,0,0,0,0,0,0,0,0,0,0,0,0,0,0,0,0,0,0,0,0,0,0,0,0,0,0,0,0,0,0,0,0,0,0,0,0,0,0,0,0,0,0]","[0,0,0,0,0,0,0,0,0,0,0,0,0,0,0,0,0,0,0,0,0,0,0,0,0,0,0,0,0,0,0,0,0,0,0,0,0,0,0,0,0,0,0,0,0,0,0,0,0,0,0,0,0,0,0,0,0,0,0,0,0,0,0,0,0,0,0,0,0,0,0]","[0.00009999996424880919,0.016399999976158597,0.03239999997616394,0.04869999998808794,0.06500000000001194,0.08179999995232379,0.09850000000000136,0.1150000000000091,0.13169999998808635,0.1483999999761636,0.16550000000000864,0.18189999997616724,0.19839999997616076,0.2150000000000034,0.23150000000001114,0.248299999952323,0.26489999997616565,0.28189999997616155,0.2985000000000042,0.31500000000001194,0.3317999999523238,0.3481999999880827,0.36489999997615996,0.3815999999642372,0.3982999999523287,0.41489999997617133,0.4315999999642486,0.44839999997616076,0.46519999998808714,0.48179999995232947,0.4983999999761579,0.5150000000000006,0.5317999999523266,0.5482999999523201,0.5648999999761628,0.5815000000000055,0.5982999999523173,0.61489999997616,0.6315999999642372,0.6481999999880799,0.6650999999642409,0.6817999999523181,0.6982999999523258,0.7150000000000034,0.7315000000000111,0.7483999999761579,0.7650999999642494,0.7817999999523266,0.7983999999761693,0.8150999999642465,0.8317999999523238,0.8481999999880827,0.8651999999880786,0.8815999999642372,0.8983999999761636,0.9150999999642409,0.9316999999880835,0.9483999999761608,0.965099999964238,0.9816999999880807,0.998500000000007,1.0150999999642494,1.0317999999523266,1.0483999999761693,1.0647999999523279,1.0816999999880892,1.0985000000000014,1.1150999999642437,1.1315999999642372,1.1483999999761636,1.1650999999642409]",3,0,3,0,1,0.0323,,,,
K000000000-1,2025-06-18_09h26.34.444,GoFitts,2023.2.3,Win32,59.88023952,,,,,,"[234.8687522107165,-260.84817554753823]","[-283.96969168707136,206.3160576752278]",74,702.0116849,4.32,1,0.6996,"[241,241,241,241,241,241,241,241,241,241,241,241,239,231,190,140,83,29,-43,-93,-120,-156,-179,-201,-214,-220,-227,-232,-235,-238,-238,-240,-240,-240,-240,-240,-240,-241,-245,-249,-255,-258,-260,-262,-264,-265,-265,-265,-265,-265,-265,-265,-265,-265,-265,-265,-265,-265,-265,-265,-265,-265,-265,-265,-265,-265,-265,-265,-265,-265,-265,-265,-265,-265,-265,-265,-265,-265,-265,-265,-265,-265,-265,-265,-265,-265]","[-259,-259,-259,-259,-259,-259,-259,-259,-259,-259,-259,-259,-259,-259,-249,-232,-204,-171,-116,-64,-31,19,45,67,81,87,97,107,114,125,126,133,136,137,137,137,138,143,152,160,170,175,181,188,192,196,197,197,197,197,197,198,198,198,198,198,198,198,198,198,198,198,198,198,198,198,198,198,198,198,198,198,198,198,198,198,198,198,198,198,198,198,198,198,198,198]","[0,0,0,0,0,0,0,0,0,0,0,0,0,0,0,0,0,0,0,0,0,0,0,0,0,0,0,0,0,0,0,0,0,0,0,0,0,0,0,0,0,0,0,0,0,0,0,0,0,0,0,0,0,0,0,0,0,0,0,0,0,0,0,0,0,0,0,0,0,0,0,0,0,0,0,0,0,0,0,0,0,0,0,0,0,0]","[0,0,0,0,0,0,0,0,0,0,0,0,0,0,0,0,0,0,0,0,0,0,0,0,0,0,0,0,0,0,0,0,0,0,0,0,0,0,0,0,0,0,0,0,0,0,0,0,0,0,0,0,0,0,0,0,0,0,0,0,0,0,0,0,0,0,0,0,0,0,0,0,0,0,0,0,0,0,0,0,0,0,0,0,0,0]","[0,0,0,0,0,0,0,0,0,0,0,0,0,0,0,0,0,0,0,0,0,0,0,0,0,0,0,0,0,0,0,0,0,0,0,0,0,0,0,0,0,0,0,0,0,0,0,0,0,0,0,0,0,0,0,0,0,0,0,0,0,0,0,0,0,0,0,0,0,0,0,0,0,0,0,0,0,0,0,0,0,0,0,0,0,0]","[0,0.016300000011924,0.03280000001191752,0.04949999999999477,0.06619999998808623,0.08280000001191468,0.0993000000119224,0.11619999998808339,0.1326999999880769,0.14919999998808464,0.16619999998808055,0.18269999998807407,0.19930000001191672,0.21599999999999397,0.23260000002383663,0.2493000000119281,0.26600000000000534,0.282600000023848,0.29940000003576017,0.3160000000000025,0.33269999998807975,0.3491999999880733,0.36590000003576506,0.3826999999880769,0.39919999998808464,0.4159999999999968,0.43250000000000455,0.4493000000119167,0.46580000001192445,0.48260000002383663,0.49919999998807896,0.5160000000000053,0.5328000000119175,0.5491999999880761,0.5659000000357679,0.5828000000119147,0.5993000000119224,0.6161000000238488,0.6324999999999932,0.6491999999880846,0.6659999999999968,0.6826999999880741,0.6996000000238354,0.7163000000119268,0.7326000000238366,0.749199999988079,0.7661000000238403,0.7828000000119175,0.7994999999999948,0.8161000000238374,0.832499999999996,0.8493000000119224,0.8658000000119159,0.8829999999999956,0.8994000000357687,0.9159999999999968,0.9328000000119232,0.9493000000119167,0.9661000000238431,0.9826999999880854,0.9998000000119163,1.0164999999999935,1.0328000000119175,1.0494999999999948,1.0661000000238374,1.0826999999880798,1.0993000000119224,1.1159999999999997,1.132900000035761,1.1496999999880728,1.1664000000357646,1.1831999999880765,1.1993000000119167,1.2161999999880777,1.233000000000004,1.2494999999999976,1.2660000000000053,1.2828000000119175,1.299600000023844,1.3160000000000025,1.3329000000357638,1.3495000000000061,1.3661999999880834,1.382900000035761,1.3994000000357687,1.4164000000357646]",4,0,4,0,1,0.2326,,,,
K000000000-1,2025-06-18_09h26.34.444,GoFitts,2023.2.3,Win32,59.88023952,,,,,,"[-283.96969168707136,206.3160576752278]","[320.65979299893837,-142.76693806822465]",74,702.0116849,4.32,1,0.5327,"[-265,-265,-265,-265,-265,-265,-265,-265,-263,-259,-249,-237,-214,-172,-114,-64,11,75,105,133,157,175,194,205,220,234,254,270,282,286,287,287,289,293,299,302,306,316,323,331,334,335,335,335,335,335,335,335,335,335,335,335,335,335,335,335,335,335,335,335,335,335,335,335,335,335,335,335,335,335,335,335,335,335,335,335]","[198,198,198,198,198,198,198,198,197,193,185,176,159,128,84,46,-14,-65,-87,-108,-120,-126,-127,-127,-124,-124,-124,-124,-124,-124,-124,-124,-124,-125,-126,-127,-128,-130,-132,-133,-133,-133,-133,-133,-133,-133,-133,-133,-133,-133,-133,-133,-133,-133,-133,-133,-133,-133,-133,-133,-133,-133,-133,-133,-133,-133,-133,-133,-133,-133,-133,-133,-133,-133,-133,-133]","[0,0,0,0,0,0,0,0,0,0,0,0,0,0,0,0,0,0,0,0,0,0,0,0,0,0,0,0,0,0,0,0,0,0,0,0,0,0,0,0,0,0,0,0,0,0,0,0,0,0,0,0,0,0,0,0,0,0,0,0,0,0,0,0,0,0,0,0,0,0,0,0,0,0,0,0]","[0,0,0,0,0,0,0,0,0,0,0,0,0,0,0,0,0,0,0,0,0,0,0,0,0,0,0,0,0,0,0,0,0,0,0,0,0,0,0,0,0,0,0,0,0,0,0,0,0,0,0,0,0,0,0,0,0,0,0,0,0,0,0,0,0,0,0,0,0,0,0,0,0,0,0,0]","[0,0,0,0,0,0,0,0,0,0,0,0,0,0,0,0,0,0,0,0,0,0,0,0,0,0,0,0,0,0,0,0,0,0,0,0,0,0,0,0,0,0,0,0,0,0,0,0,0,0,0,0,0,0,0,0,0,0,0,0,0,0,0,0,0,0,0,0,0,0,0,0,0,0,0,0]","[0,0.016299999952309463,0.03259999996423346,0.049199999988076115,0.0660999999642371,0.08269999998807975,0.09919999998807327,0.1157999999523156,0.13249999999999318,0.14919999998807043,0.16609999996423142,0.18279999995230867,0.1991999999880818,0.21579999995230992,0.2325999999642363,0.24929999995231356,0.2656999999880725,0.28249999999999886,0.2991999999880761,0.31589999997615337,0.3325999999642306,0.3491999999880733,0.3658999999761505,0.3825999999642278,0.39929999995231924,0.4158999999761477,0.43249999999999034,0.44909999996423267,0.4657999999523099,0.4825000000000017,0.49919999998807896,0.5157999999523071,0.5327999999523172,0.5492999999523107,0.5657999999523184,0.582499999999996,0.5990999999642384,0.6157999999523156,0.6324999999999932,0.6491999999880704,0.6658999999761477,0.6824999999999903,0.6990999999642327,0.715899999976159,0.7325999999642363,0.7493999999761485,0.7658999999761562,0.7826999999880684,0.7991999999880761,0.8160000000000025,0.8325999999642306,0.8492999999523079,0.8659999999999997,0.8824999999999932,0.8990999999642355,0.9157999999523128,0.9324999999999903,0.9493999999761513,0.965999999999994,0.9825999999642363,0.9992999999523136,1.0159999999999911,1.0325999999642335,1.0492999999523107,1.0660000000000025,1.0826999999880798,1.0991999999880733,1.1157999999523156,1.132699999988077,1.1492999999523192,1.1659999999999968,1.1825999999642391,1.1993999999761513,1.21579999995231,1.2323999999761526,1.2493999999761485]",5,0,5,0,1,0.166,,,,
K000000000-1,2025-06-18_09h26.34.444,GoFitts,2023.2.3,Win32,59.88023952,,,,,,"[320.65979299893837,-142.76693806822465]","[-343.3355226603492,72.97821819586379]",74,702.0116849,4.32,1,0.583,"[335,335,335,334,334,334,334,330,328,325,318,296,253,228,147,45,-60,-157,-280,-330,-377,-395,-408,-410,-410,-410,-410,-410,-410,-410,-410,-407,-395,-386,-383,-377,-372,-372,-372,-372,-372,-372,-372,-372,-372,-372,-372,-372,-372,-372,-372,-372,-372,-372,-372,-372,-372,-372,-372,-372,-372,-372,-372,-372,-372,-372,-372,-372,-372,-372,-372,-372,-372,-372,-372,-372,-372,-372,-371,-358]","[-133,-133,-133,-133,-133,-133,-133,-134,-135,-135,-135,-135,-133,-130,-116,-93,-65,-42,-14,-4,10,16,22,24,24,24,24,24,24,24,25,30,45,56,57,61,64,65,65,65,65,65,65,65,65,65,65,65,65,65,65,65,65,65,65,65,65,65,65,65,65,65,65,65,65,65,65,65,65,65,65,65,65,65,65,65,65,65,65,65]","[0,0,0,0,0,0,0,0,0,0,0,0,0,0,0,0,0,0,0,0,0,0,0,0,0,0,0,0,0,0,0,0,0,0,0,0,0,0,0,0,0,0,0,0,0,0,0,0,0,0,0,0,0,0,0,0,0,0,0,0,0,0,0,0,0,0,0,0,0,0,0,0,0,0,0,0,0,0,0,0]","[0,0,0,0,0,0,0,0,0,0,0,0,0,0,0,0,0,0,0,0,0,0,0,0,0,0,0,0,0,0,0,0,0,0,0,0,0,0,0,0,0,0,0,0,0,0,0,0,0,0,0,0,0,0,0,0,0,0,0,0,0,0,0,0,0,0,0,0,0,0,0,0,0,0,0,0,0,0,0,0]","[0,0,0,0,0,0,0,0,0,0,0,0,0,0,0,0,0,0,0,0,0,0,0,0,0,0,0,0,0,0,0,0,0,0,0,0,0,0,0,0,0,0,0,0,0,0,0,0,0,0,0,0,0,0,0,0,0,0,0,0,0,0,0,0,0,0,0,0,0,0,0,0,0,0,0,0,0,0,0,0]","[0,0.017000000000010118,0.03369999998808737,0.05010000002384629,0.06619999998808623,0.08269999998807975,0.099399999976157,0.11599999999999966,0.1326000000238423,0.14939999997616837,0.1658999999761619,0.18269999998808828,0.19930000001193093,0.21589999997615905,0.23269999998808544,0.2493000000119281,0.26610000002384027,0.2826999999880826,0.29930000001192525,0.3160000000000025,0.33260000002384515,0.3493000000119224,0.3661000000238488,0.3830000000000098,0.3993999999761684,0.41610000002384595,0.4328000000119232,0.4491999999880818,0.46589999997615905,0.48260000002385084,0.4993999999761627,0.5160000000000053,0.532600000023848,0.5493000000119252,0.5658999999761676,0.5829999999999984,0.5995000000000061,0.6163000000119183,0.632800000011926,0.6493999999761684,0.666100000023846,0.6828000000119232,0.6993999999761655,0.7160000000000082,0.7326000000238508,0.7494999999999976,0.7660000000000053,0.782600000023848,0.7991999999880761,0.8158999999761676,0.8325000000000102,0.8491999999880875,0.8661000000238488,0.8826999999880769,0.8993999999761684,0.9159999999999968,0.9328000000119232,0.9493999999761655,0.9660000000000082,0.9825000000000017,0.999199999988079,1.0158999999761562,1.032399999976164,1.0491999999880761,1.0661000000238516,1.0826999999880798,1.099399999976157,1.1161000000238488,1.132800000011926,1.1493000000119196,1.166100000023846,1.1826000000238395,1.1993999999761655,1.2160000000000082,1.2326000000238508,1.2494999999999976,1.2660000000000053,1.2826999999880826,1.2993999999761598,1.3161999999880862]",6,0,6,0,1,0.1993,,,,
K000000000-1,2025-06-18_09h26.34.444,GoFitts,2023.2.3,Win32,59.88023952,,,,,,"[-343.3355226603492,72.97821819586379]","[351.00584247487717,0]",74,702.0116849,4.32,1,0.2162,"[-358,-327,-270,-184,-90,31,140,222,277,303,314,318,322,325,328,336,340,344,349,356,360,363,363,364,364,364,364,364,364,364,364,364,364,364,364,364,364,364,364,364,364,364,364,364,364,364,364,364,364,364,364,364,364,364,364,364,364]","[65,63,58,49,37,27,21,20,20,20,22,23,24,24,24,25,26,27,27,27,27,27,27,27,27,27,27,27,27,27,27,27,27,27,27,27,27,27,27,27,27,27,27,27,27,27,27,27,27,27,27,27,27,27,27,27,27]","[0,0,0,0,0,0,0,0,0,0,0,0,0,0,0,0,0,0,0,0,0,0,0,0,0,0,0,0,0,0,0,0,0,0,0,0,0,0,0,0,0,0,0,0,0,0,0,0,0,0,0,0,0,0,0,0,0]","[0,0,0,0,0,0,0,0,0,0,0,0,0,0,0,0,0,0,0,0,0,0,0,0,0,0,0,0,0,0,0,0,0,0,0,0,0,0,0,0,0,0,0,0,0,0,0,0,0,0,0,0,0,0,0,0,0]","[0,0,0,0,0,0,0,0,0,0,0,0,0,0,0,0,0,0,0,0,0,0,0,0,0,0,0,0,0,0,0,0,0,0,0,0,0,0,0,0,0,0,0,0,0,0,0,0,0,0,0,0,0,0,0,0,0]","[0,0.016300000011909788,0.032699999988068384,0.049199999988076115,0.06599999999998829,0.08260000002383094,0.09949999999999193,0.11599999999999966,0.1326000000238423,0.14919999998807043,0.16599999999999682,0.18260000002383947,0.19930000001191672,0.2161999999880777,0.23290000003575528,0.24919999998807896,0.26590000003575653,0.2826000000238338,0.29930000001191104,0.3159000000357537,0.33260000002383094,0.3493000000119082,0.3658000000119159,0.3826000000238423,0.3994000000357545,0.4159000000357622,0.43249999999999034,0.44940000003575165,0.465999999999994,0.4826999999880712,0.499400000035763,0.5161000000238403,0.5326999999880684,0.549300000011911,0.5661000000238374,0.5826999999880798,0.5994000000357573,0.6159999999999997,0.6328000000119118,0.6491999999880704,0.6659999999999968,0.6826999999880741,0.6991999999880676,0.715999999999994,0.7326000000238366,0.749400000035763,0.7664000000357589,0.7828000000119175,0.799300000011911,0.8161000000238374,0.8326000000238309,0.8493000000119082,0.8659999999999997,0.8826999999880769,0.8991999999880704,0.9158000000119131,0.932800000011909]",7,0,7,0,1,0.0327,,,,
K000000000-1,2025-06-18_09h26.34.444,GoFitts,2023.2.3,Win32,59.88023952,,,,,,"[351.00584247487717,0]","[-343.3355226603492,-72.9782181958637]",74,702.0116849,4.32,1,0.5162,"[364,364,364,364,364,364,362,352,337,299,236,132,28,-95,-213,-309,-370,-398,-418,-428,-445,-449,-456,-457,-457,-457,-456,-449,-431,-411,-382,-359,-354,-354,-354,-354,-354,-355,-357,-362,-366,-369,-371,-371,-371,-371,-368,-364,-360,-356,-356,-356,-356,-356,-356,-356,-356,-356,-356,-356,-356,-356,-356,-356,-356,-356,-356,-356,-356,-356,-356,-356,-356,-356,-356,-356]","[27,27,27,27,27,27,27,27,25,19,7,-15,-36,-61,-85,-104,-118,-124,-126,-126,-124,-123,-122,-121,-121,-121,-121,-113,-95,-79,-65,-58,-57,-57,-57,-57,-57,-57,-57,-58,-62,-65,-68,-70,-70,-70,-70,-70,-69,-69,-69,-69,-69,-69,-69,-69,-69,-69,-69,-69,-69,-69,-69,-69,-69,-69,-69,-69,-69,-69,-69,-69,-69,-69,-69,-69]","[0,0,0,0,0,0,0,0,0,0,0,0,0,0,0,0,0,0,0,0,0,0,0,0,0,0,0,0,0,0,0,0,0,0,0,0,0,0,0,0,0,0,0,0,0,0,0,0,0,0,0,0,0,0,0,0,0,0,0,0,0,0,0,0,0,0,0,0,0,0,0,0,0,0,0,0]","[0,0,0,0,0,0,0,0,0,0,0,0,0,0,0,0,0,0,0,0,0,0,0,0,0,0,0,0,0,0,0,0,0,0,0,0,0,0,0,0,0,0,0,0,0,0,0,0,0,0,0,0,0,0,0,0,0,0,0,0,0,0,0,0,0,0,0,0,0,0,0,0,0,0,0,0]","[0,0,0,0,0,0,0,0,0,0,0,0,0,0,0,0,0,0,0,0,0,0,0,0,0,0,0,0,0,0,0,0,0,0,0,0,0,0,0,0,0,0,0,0,0,0,0,0,0,0,0,0,0,0,0,0,0,0,0,0,0,0,0,0,0,0,0,0,0,0,0,0,0,0,0,0]","[0,0.01609999996423994,0.03249999999999886,0.04939999997615985,0.06569999998806964,0.08269999998807975,0.09929999995230787,0.11589999997615053,0.13259999996422778,0.14929999995231924,0.16619999998808055,0.18249999999999034,0.1992999999523164,0.21589999997615905,0.23239999997615257,0.24909999996422982,0.2658999999761562,0.28249999999999886,0.2991999999880761,0.31589999997615337,0.3325999999642306,0.349399999976157,0.3657999999523156,0.3826999999880769,0.39939999997615416,0.41579999995231276,0.43259999996423915,0.4493999999761513,0.46589999997615905,0.4825999999642363,0.49929999995231356,0.5161999999880749,0.5328999999761521,0.549099999964227,0.5658999999761534,0.5825999999642306,0.5990999999642384,0.6158999999761505,0.6325999999642278,0.6491999999880704,0.6658999999761477,0.6825999999642391,0.6991999999880818,0.7162999999523123,0.7323999999761526,0.7490999999642298,0.7657999999523071,0.7825999999642335,0.7992999999523107,0.8158999999761534,0.8325999999642306,0.849399999976157,0.8657999999523156,0.8825999999642278,0.8991999999880704,0.9159999999999968,0.9325999999642391,0.9492999999523164,0.965899999976159,0.9825000000000017,0.9993999999761485,1.0158999999761562,1.0326999999880684,1.0492999999523107,1.066099999964237,1.0825999999642306,1.0992999999523079,1.1159999999999997,1.1325999999642278,1.1493999999761542,1.1659999999999968,1.182699999988074,1.1990999999642327,1.215899999976159,1.2325000000000017,1.2492999999523136]",8,0,8,0,1,0.1493,,,,
K000000000-1,2025-06-18_09h26.34.444,GoFitts,2023.2.3,Win32,59.88023952,,,,,,"[-343.3355226603492,-72.9782181958637]","[320.6597929989383,142.76693806822465]",74,702.0116849,4.32,1,0.5831,"[-356,-356,-356,-356,-356,-356,-356,-356,-356,-356,-356,-356,-354,-304,-207,-109,16,134,284,318,358,382,391,393,395,397,398,399,399,399,399,399,399,391,360,329,309,296,296,296,296,296,298,301,305,309,313,313,313,313,313,313,313,313,313,313,313,313,313,313,313,313,313,313,313,313,313,313,313,313,313,313,313,313,313,313,313,313,313]","[-69,-69,-69,-69,-69,-69,-69,-69,-69,-69,-69,-69,-69,-53,-23,8,47,78,107,114,124,131,137,139,140,142,143,144,144,144,144,144,144,144,143,139,136,135,135,135,135,135,135,135,135,135,136,136,136,136,136,136,136,136,136,136,136,136,136,136,136,136,136,136,136,136,136,136,136,136,136,136,136,136,136,136,136,136,136]","[0,0,0,0,0,0,0,0,0,0,0,0,0,0,0,0,0,0,0,0,0,0,0,0,0,0,0,0,0,0,0,0,0,0,0,0,0,0,0,0,0,0,0,0,0,0,0,0,0,0,0,0,0,0,0,0,0,0,0,0,0,0,0,0,0,0,0,0,0,0,0,0,0,0,0,0,0,0,0]","[0,0,0,0,0,0,0,0,0,0,0,0,0,0,0,0,0,0,0,0,0,0,0,0,0,0,0,0,0,0,0,0,0,0,0,0,0,0,0,0,0,0,0,0,0,0,0,0,0,0,0,0,0,0,0,0,0,0,0,0,0,0,0,0,0,0,0,0,0,0,0,0,0,0,0,0,0,0,0]","[0,0,0,0,0,0,0,0,0,0,0,0,0,0,0,0,0,0,0,0,0,0,0,0,0,0,0,0,0,0,0,0,0,0,0,0,0,0,0,0,0,0,0,0,0,0,0,0,0,0,0,0,0,0,0,0,0,0,0,0,0,0,0,0,0,0,0,0,0,0,0,0,0,0,0,0,0,0,0]","[0,0.016300000011909788,0.03299999999998704,0.04939999997614564,0.06630000001192116,0.08299999999999841,0.09949999999999193,0.11619999998806918,0.13299999999999557,0.14949999999998909,0.16639999997615007,0.1828999999761578,0.19939999997615132,0.21630000001191263,0.23280000001192036,0.2494999999999976,0.26609999996422573,0.2828999999761521,0.29949999999999477,0.3164999999999907,0.33330000001191706,0.3498999999761452,0.3663999999761529,0.38309999996423016,0.3995999999642379,0.4164999999999992,0.432800000011909,0.44959999996423505,0.46630000001191263,0.48280000001192036,0.49969999998806713,0.5160999999642257,0.5328000000119175,0.5494999999999948,0.5660999999642371,0.583099999964233,0.5996999999880757,0.6160999999642343,0.6328999999761464,0.6496999999880728,0.6661999999880663,0.6829999999999927,0.6995000000000005,0.7161999999880777,0.732899999976155,0.7494999999999976,0.7660999999642257,0.7826999999880684,0.7994999999999948,0.816199999988072,0.8328999999761493,0.8495999999642265,0.8661999999880692,0.8828999999761464,0.8995999999642379,0.9161999999880663,0.9328999999761578,0.9495000000000005,0.9660999999642286,0.982899999976155,0.9996999999880671,1.0160999999642257,1.0328999999761521,1.0496999999880785,1.0663000000119212,1.0826999999880798,1.099499999999992,1.1163000000119183,1.1329999999999956,1.149499999999989,1.1661999999880663,1.1828999999761578,1.199599999964235,1.2161999999880777,1.232899999976155,1.2495999999642322,1.2663000000119098,1.2828999999761521,1.2995999999642294]",9,0,9,0,1,0.2163,,,,
K000000000-1,2025-06-18_09h26.34.444,GoFitts,2023.2.3,Win32,59.88023952,,,,,,"[320.6597929989383,142.76693806822465]","[-283.9696916870714,-206.3160576752277]",74,702.0116849,4.32,1,0.4828,"[313,313,313,313,313,312,298,261,216,145,68,-6,-65,-115,-143,-171,-192,-208,-219,-228,-238,-245,-262,-273,-275,-276,-277,-280,-285,-292,-298,-301,-302,-302,-302,-300,-298,-296,-294,-293,-293,-293,-293,-293,-293,-293,-293,-293,-293,-293,-293,-293,-293,-293,-293,-293,-293,-293,-293,-293,-293,-293,-293,-293,-293,-293,-293,-293,-293,-293,-293,-293,-293]","[136,136,136,136,136,136,128,99,66,11,-44,-101,-147,-188,-206,-223,-237,-244,-249,-253,-256,-257,-262,-264,-264,-264,-264,-259,-249,-232,-223,-219,-217,-214,-213,-210,-208,-206,-206,-205,-205,-205,-205,-205,-205,-205,-205,-205,-205,-205,-205,-205,-205,-205,-205,-205,-205,-205,-205,-205,-205,-205,-205,-205,-205,-205,-205,-205,-205,-205,-205,-205,-205]","[0,0,0,0,0,0,0,0,0,0,0,0,0,0,0,0,0,0,0,0,0,0,0,0,0,0,0,0,0,0,0,0,0,0,0,0,0,0,0,0,0,0,0,0,0,0,0,0,0,0,0,0,0,0,0,0,0,0,0,0,0,0,0,0,0,0,0,0,0,0,0,0,0]","[0,0,0,0,0,0,0,0,0,0,0,0,0,0,0,0,0,0,0,0,0,0,0,0,0,0,0,0,0,0,0,0,0,0,0,0,0,0,0,0,0,0,0,0,0,0,0,0,0,0,0,0,0,0,0,0,0,0,0,0,0,0,0,0,0,0,0,0,0,0,0,0,0]","[0,0,0,0,0,0,0,0,0,0,0,0,0,0,0,0,0,0,0,0,0,0,0,0,0,0,0,0,0,0,0,0,0,0,0,0,0,0,0,0,0,0,0,0,0,0,0,0,0,0,0,0,0,0,0,0,0,0,0,0,0,0,0,0,0,0,0,0,0,0,0,0,0]","[0,0.016199999988074865,0.03259999996423346,0.049299999952310714,0.06569999998808385,0.08249999999999602,0.09919999998807327,0.11619999998808339,0.1326999999880769,0.14919999998808464,0.16609999996423142,0.1828999999761578,0.1992999999523164,0.21589999997615905,0.2325999999642363,0.24929999995231356,0.2657999999523213,0.28249999999999886,0.2990999999642412,0.31589999997615337,0.3325999999642306,0.34969999998807566,0.36599999999999966,0.3826999999880769,0.3995000000000033,0.41629999995231515,0.43259999996423915,0.4491999999880818,0.46589999997615905,0.48279999995232004,0.4993999999761627,0.5157999999523213,0.5324999999999989,0.5491999999880761,0.5658999999761534,0.582499999999996,0.5992999999523221,0.6159999999999997,0.6327999999523115,0.6490999999642355,0.6658999999761619,0.6823999999761554,0.6991999999880818,0.715899999976159,0.7325000000000017,0.7492999999523136,0.7660000000000053,0.7825999999642335,0.7990999999642412,0.8160999999642371,0.8326999999880798,0.8491999999880733,0.8660999999642343,0.8826999999880769,0.8992999999523192,0.9159999999999968,0.9322999999523205,0.9492999999523164,0.9660999999642428,0.9825000000000017,0.9990999999642298,1.0157999999523213,1.032399999976164,1.0490999999642412,1.066199999988072,1.082499999999996,1.099499999999992,1.116299999952318,1.1327999999523115,1.1491999999880846,1.165899999976162,1.1823999999761554,1.1990999999642327]",10,0,10,0,1,0.1162,,,,
K000000000-1,2025-06-18_09h26.34.444,GoFitts,2023.2.3,Win32,59.88023952,,,,,,"[-283.9696916870714,-206.3160576752277]","[234.86875221071645,260.84817554753835]",74,702.0116849,4.32,1,0.3336,"[-293,-293,-293,-292,-272,-237,-173,-86,9,52,102,140,159,164,176,184,191,195,201,201,202,202,202,202,202,202,202,202,202,206,212,219,226,230,231,231,231,231,231,231,231,231,231,231,231,231,231,231,231,231,231,231,231,231,231,231,231,231,231,231,231,231,231,231,231]","[-205,-205,-205,-205,-186,-157,-108,-47,22,53,98,139,164,172,197,212,228,233,244,244,245,245,245,245,245,245,245,245,245,245,246,248,248,251,251,251,251,251,251,251,251,251,251,251,251,251,251,251,251,251,251,251,251,251,251,251,251,251,251,251,251,251,251,251,251]","[0,0,0,0,0,0,0,0,0,0,0,0,0,0,0,0,0,0,0,0,0,0,0,0,0,0,0,0,0,0,0,0,0,0,0,0,0,0,0,0,0,0,0,0,0,0,0,0,0,0,0,0,0,0,0,0,0,0,0,0,0,0,0,0,0]","[0,0,0,0,0,0,0,0,0,0,0,0,0,0,0,0,0,0,0,0,0,0,0,0,0,0,0,0,0,0,0,0,0,0,0,0,0,0,0,0,0,0,0,0,0,0,0,0,0,0,0,0,0,0,0,0,0,0,0,0,0,0,0,0,0]","[0,0,0,0,0,0,0,0,0,0,0,0,0,0,0,0,0,0,0,0,0,0,0,0,0,0,0,0,0,0,0,0,0,0,0,0,0,0,0,0,0,0,0,0,0,0,0,0,0,0,0,0,0,0,0,0,0,0,0,0,0,0,0,0,0]","[0,0.016699999988077252,0.03350000000000364,0.05029999995231549,0.0671999999880768,0.08400000000000318,0.10139999997615234,0.11709999996423903,0.13379999995231628,0.15059999996422846,0.16750000000000398,0.18319999998807646,0.20009999996423744,0.21659999996423096,0.2332999999523082,0.25,0.26669999998807725,0.2832999999523196,0.29989999997616223,0.31639999997615575,0.3335999999642354,0.3503999999761618,0.36659999996423664,0.38339999997616303,0.3999999999999915,0.41679999995231753,0.43319999998807646,0.4497999999523188,0.46639999997616144,0.4832999999523082,0.49989999997615087,0.5165999999642423,0.5332999999523196,0.5496999999880785,0.5662999999523208,0.5829999999999984,0.5996999999880757,0.616500000000002,0.6329999999999956,0.6496999999880728,0.6664999999999992,0.6829999999999927,0.6996999999880842,0.7163999999761614,0.732899999976155,0.7498999999761509,0.7663999999761586,0.7831999999880708,0.7997999999523131,0.8165000000000049,0.833099999964233,0.8497999999523103,0.866299999952318,0.8835999999642326,0.8998999999761566,0.9162999999523151,0.9330999999642415,0.9497999999523188,0.9663999999761614,0.9830000000000041,0.9997999999523159,1.0164999999999935,1.0328999999761521,1.0494999999999948,1.0662999999523208]",11,0,11,0,1,0.084,,,,
K000000000-1,2025-06-18_09h26.34.444,GoFitts,2023.2.3,Win32,59.88023952,,,,,,"[234.86875221071645,260.84817554753835]","[-175.50292123743873,-303.9799764600025]",74,702.0116849,4.32,1,0.5,"[231,231,231,231,231,229,223,217,210,202,187,166,140,131,71,36,9,-22,-40,-62,-74,-83,-92,-99,-109,-114,-121,-125,-129,-136,-144,-154,-159,-159,-159,-159,-159,-159,-160,-162,-162,-162,-162,-162,-162,-162,-162,-162,-162,-162,-162,-162,-162,-162,-162,-162,-162,-162,-162,-162,-162,-162,-162,-162,-162,-162,-162,-162,-162,-162,-162,-162,-162,-162,-162]","[251,251,251,251,250,246,238,226,216,201,178,142,101,86,-15,-67,-110,-150,-175,-199,-213,-225,-240,-253,-270,-282,-294,-302,-310,-317,-323,-328,-329,-329,-329,-329,-326,-318,-305,-299,-296,-296,-296,-296,-296,-296,-296,-296,-296,-296,-296,-296,-296,-296,-296,-296,-296,-296,-296,-296,-296,-296,-296,-296,-296,-296,-296,-296,-296,-296,-296,-296,-296,-296,-296]","[0,0,0,0,0,0,0,0,0,0,0,0,0,0,0,0,0,0,0,0,0,0,0,0,0,0,0,0,0,0,0,0,0,0,0,0,0,0,0,0,0,0,0,0,0,0,0,0,0,0,0,0,0,0,0,0,0,0,0,0,0,0,0,0,0,0,0,0,0,0,0,0,0,0,0]","[0,0,0,0,0,0,0,0,0,0,0,0,0,0,0,0,0,0,0,0,0,0,0,0,0,0,0,0,0,0,0,0,0,0,0,0,0,0,0,0,0,0,0,0,0,0,0,0,0,0,0,0,0,0,0,0,0,0,0,0,0,0,0,0,0,0,0,0,0,0,0,0,0,0,0]","[0,0,0,0,0,0,0,0,0,0,0,0,0,0,0,0,0,0,0,0,0,0,0,0,0,0,0,0,0,0,0,0,0,0,0,0,0,0,0,0,0,0,0,0,0,0,0,0,0,0,0,0,0,0,0,0,0,0,0,0,0,0,0,0,0,0,0,0,0,0,0,0,0,0,0]","[0,0.016199999988089075,0.032699999988082595,0.04939999997615985,0.0660999999642371,0.08299999999999841,0.099399999976157,0.11630000001191831,0.13339999997616303,0.15000000000000568,0.16630000001192968,0.1828999999761578,0.1996999999880842,0.21639999997616144,0.23289999997615496,0.24969999998808134,0.2661999999880891,0.28300000000000125,0.29999999999999716,0.31630000001192116,0.3330999999642472,0.34959999996424074,0.36659999996423664,0.3830999999642444,0.39969999998808703,0.4163999999761643,0.43300000000000693,0.4496999999880842,0.46630000001192684,0.4830000000000041,0.5,0.5165000000000077,0.5333999999761545,0.549500000000009,0.5663999999761558,0.5830999999642472,0.5995999999642407,0.6163000000119183,0.633399999976163,0.649699999988087,0.6663000000119297,0.6830999999642415,0.6998000000119191,0.7163000000119268,0.7330999999642387,0.7498000000119305,0.7661999999880891,0.7830999999642358,0.7998000000119276,0.8163999999761558,0.8330999999642472,0.8496999999880757,0.866500000000002,0.8830999999642444,0.899699999988087,0.9164999999999992,0.9330999999642415,0.9498000000119191,0.9663999999761614,0.9830999999642387,0.9998000000119305,1.0163999999761586,1.0330999999642358,1.0496999999880785,1.0663999999761558,1.0831999999880821,1.0995000000000061,1.1163000000119183,1.1331999999880793,1.149800000011922,1.1663000000119297,1.183000000000007,1.199800000011919,1.2163000000119268,1.2331999999880878]",12,0,12,0,1,0.1163,,,,
K000000000-1,2025-06-18_09h26.34.444,GoFitts,2023.2.3,Win32,59.88023952,,,,,,"[-175.50292123743873,-303.9799764600025]","[108.4667704496328,333.8263937434021]",74,702.0116849,4.32,1,0.4829,"[-162,-162,-162,-162,-162,-162,-162,-162,-162,-162,-162,-162,-162,-162,-162,-160,-120,-70,-48,5,71,93,107,111,112,113,114,116,118,120,121,121,121,121,121,121,121,121,121,121,121,121,121,121,121,121,121,121,121,121,121,121,121,121,121,121,121,121,121,121,121,121,121,121,121,121,121,121,121,120,116,111,107]","[-296,-296,-296,-296,-296,-296,-296,-296,-296,-296,-296,-296,-296,-296,-294,-287,-224,-143,-109,-18,117,175,222,239,247,258,268,284,293,303,309,310,310,310,310,310,310,310,310,310,310,310,310,310,310,310,310,310,310,310,310,310,310,310,310,310,310,310,310,310,310,310,310,310,310,310,310,310,308,301,283,260,227]","[0,0,0,0,0,0,0,0,0,0,0,0,0,0,0,0,0,0,0,0,0,0,0,0,0,0,0,0,0,0,0,0,0,0,0,0,0,0,0,0,0,0,0,0,0,0,0,0,0,0,0,0,0,0,0,0,0,0,0,0,0,0,0,0,0,0,0,0,0,0,0,0,0]","[0,0,0,0,0,0,0,0,0,0,0,0,0,0,0,0,0,0,0,0,0,0,0,0,0,0,0,0,0,0,0,0,0,0,0,0,0,0,0,0,0,0,0,0,0,0,0,0,0,0,0,0,0,0,0,0,0,0,0,0,0,0,0,0,0,0,0,0,0,0,0,0,0]","[0,0,0,0,0,0,0,0,0,0,0,0,0,0,0,0,0,0,0,0,0,0,0,0,0,0,0,0,0,0,0,0,0,0,0,0,0,0,0,0,0,0,0,0,0,0,0,0,0,0,0,0,0,0,0,0,0,0,0,0,0,0,0,0,0,0,0,0,0,0,0,0,0]","[0.00010000002384913387,0.016100000023854477,0.032699999988082595,0.04939999997615985,0.0660000000000025,0.08269999998807975,0.09939999997617122,0.11610000002384879,0.13280000001192604,0.14939999997616837,0.1658000000119273,0.18260000002385368,0.19950000000000045,0.2161000000238431,0.23269999998808544,0.2493000000119281,0.2661999999880891,0.2826999999880826,0.29939999997615985,0.31610000002385163,0.33260000002384515,0.3493000000119224,0.36599999999999966,0.3826999999880911,0.3993000000119338,0.416000000000011,0.43300000000000693,0.44930000001193093,0.4660000000000082,0.48289999997616917,0.4993999999761627,0.5158999999761704,0.5326999999880826,0.5493999999761598,0.5660000000000025,0.5826999999880798,0.5993999999761712,0.6158000000119301,0.632800000011926,0.6493000000119338,0.666000000000011,0.6826000000238537,0.6991999999880818,0.7160000000000082,0.7326000000238508,0.7493999999761627,0.7658999999761704,0.7826999999880826,0.7993999999761598,0.8160000000000025,0.8326999999880798,0.8493999999761712,0.8661000000238488,0.8826999999880911,0.8993999999761684,0.9158000000119273,0.9325000000000045,0.9491999999880818,0.965899999976159,0.9823000000119322,0.9988999999761603,1.015500000000003,1.0323000000119293,1.0488999999761575,1.0656000000238492,1.0823000000119265,1.0988999999761688,1.115699999988081,1.1323999999761583,1.149000000000001,1.1658000000119273,1.1823999999761696,1.1991000000238472]",13,0,13,0,1,0.2661,,,,
K000000000-1,2025-06-18_09h26.34.444,GoFitts,2023.2.3,Win32,59.88023952,,,,,,"[108.4667704496328,333.8263937434021]","[-36.690101311867224,-349.0829957434524]",74,702.0116849,4.32,1,0.2829,"[107,102,99,88,76,66,55,45,37,25,18,12,7,5,3,1,-2,-8,-19,-24,-25,-26,-26,-26,-26,-26,-26,-26,-26,-26,-26,-26,-26,-26,-26,-26,-26,-26,-30,-36,-43,-46,-47,-47,-47,-47,-47,-47,-47,-47,-47,-47,-47,-47,-47,-47,-47,-47,-47,-47,-47]","[227,204,170,99,28,-20,-70,-113,-151,-196,-227,-250,-271,-284,-293,-306,-319,-340,-367,-377,-380,-382,-382,-382,-382,-382,-382,-382,-382,-382,-382,-382,-382,-382,-382,-382,-382,-382,-380,-372,-363,-357,-355,-355,-355,-355,-355,-355,-355,-355,-355,-355,-355,-355,-355,-355,-355,-355,-355,-355,-355]","[0,0,0,0,0,0,0,0,0,0,0,0,0,0,0,0,0,0,0,0,0,0,0,0,0,0,0,0,0,0,0,0,0,0,0,0,0,0,0,0,0,0,0,0,0,0,0,0,0,0,0,0,0,0,0,0,0,0,0,0,0]","[0,0,0,0,0,0,0,0,0,0,0,0,0,0,0,0,0,0,0,0,0,0,0,0,0,0,0,0,0,0,0,0,0,0,0,0,0,0,0,0,0,0,0,0,0,0,0,0,0,0,0,0,0,0,0,0,0,0,0,0,0]","[0,0,0,0,0,0,0,0,0,0,0,0,0,0,0,0,0,0,0,0,0,0,0,0,0,0,0,0,0,0,0,0,0,0,0,0,0,0,0,0,0,0,0,0,0,0,0,0,0,0,0,0,0,0,0,0,0,0,0,0,0]","[0,0.016399999976158597,0.03309999996423585,0.049899999976162235,0.06619999998807202,0.08299999999999841,0.09959999996424074,0.11619999998808339,0.13289999997616064,0.1495000000000033,0.16629999995231515,0.1828999999761578,0.19950000000000045,0.2162999999523123,0.23289999997615496,0.2495999999642322,0.2664999999999935,0.2828999999761521,0.2996999999880785,0.3160999999642371,0.3329999999999984,0.34959999996424074,0.3663999999761529,0.38309999996423016,0.39939999997615416,0.41629999995231515,0.43309999996424153,0.44959999996423505,0.46639999997616144,0.4830000000000041,0.49969999998808134,0.5163999999761586,0.5330000000000013,0.5496999999880785,0.5662999999523208,0.583099999964233,0.5997999999523103,0.616500000000002,0.6327999999523115,0.6495000000000033,0.6660999999642314,0.6827999999523087,0.6995000000000005,0.715999999999994,0.73279999995232,0.7496999999880813,0.7663999999761586,0.7830999999642358,0.7996999999880785,0.8162999999523208,0.8329999999999984,0.8496999999880757,0.8663999999761529,0.8830999999642302,0.8997999999523216,0.9161999999880805,0.9329999999999927,0.9497999999523188,0.9664999999999964,0.98279999995232,0.9994999999999976]",14,0,14,0,1,,,,,
K000000000-1,2025-06-18_09h26.34.444,GoFitts,2023.2.3,Win32,59.88023952,,,,,,,,,,,1,,,,,,,,,,,,,,1,0,0,1
K000000000-1,2025-06-18_09h26.34.444,GoFitts,2023.2.3,Win32,59.88023952,,,,,,"[-47,-355]","[195.0333108389979,-216.60643582636297]",45,582.945419,4.75,2,0.9488,"[-47,-47,-47,-47,-47,-47,-47,-47,-47,-47,-47,-47,-47,-47,-47,-47,-47,-47,-47,-47,-47,-47,-47,-47,-47,-47,-47,-35,-3,39,97,146,180,193,195,195,195,195,199,208,215,218,218,218,218,218,218,218,218,218,218,218,218,218,218,218,218,216,212,208,205,203,200,198,197,197,197,197,197,197,197,197,197,197,197,197,197,197,197,197,197,197,197,197,197,197,197,197,197,197,197,197,197,197,197,197,197,197,197,197,197]","[-355,-355,-355,-355,-355,-355,-355,-355,-355,-355,-355,-355,-355,-355,-355,-355,-355,-355,-355,-355,-355,-355,-355,-355,-355,-355,-355,-343,-325,-306,-285,-271,-261,-257,-256,-256,-256,-255,-250,-238,-228,-218,-216,-211,-211,-211,-210,-209,-209,-209,-209,-209,-209,-209,-209,-209,-209,-209,-209,-209,-210,-210,-211,-211,-211,-211,-211,-211,-211,-211,-211,-211,-211,-211,-211,-211,-211,-211,-211,-211,-211,-211,-211,-211,-211,-211,-211,-211,-211,-211,-211,-211,-211,-211,-211,-211,-211,-211,-211,-211,-211]","[0,0,0,0,0,0,0,0,0,0,0,0,0,0,0,0,0,0,0,0,0,0,0,0,0,0,0,0,0,0,0,0,0,0,0,0,0,0,0,0,0,0,0,0,0,0,0,0,0,0,0,0,0,0,0,0,0,0,0,0,0,0,0,0,0,0,0,0,0,0,0,0,0,0,0,0,0,0,0,0,0,0,0,0,0,0,0,0,0,0,0,0,0,0,0,0,0,0,0,0,0]","[0,0,0,0,0,0,0,0,0,0,0,0,0,0,0,0,0,0,0,0,0,0,0,0,0,0,0,0,0,0,0,0,0,0,0,0,0,0,0,0,0,0,0,0,0,0,0,0,0,0,0,0,0,0,0,0,0,0,0,0,0,0,0,0,0,0,0,0,0,0,0,0,0,0,0,0,0,0,0,0,0,0,0,0,0,0,0,0,0,0,0,0,0,0,0,0,0,0,0,0,0]","[0,0,0,0,0,0,0,0,0,0,0,0,0,0,0,0,0,0,0,0,0,0,0,0,0,0,0,0,0,0,0,0,0,0,0,0,0,0,0,0,0,0,0,0,0,0,0,0,0,0,0,0,0,0,0,0,0,0,0,0,0,0,0,0,0,0,0,0,0,0,0,0,0,0,0,0,0,0,0,0,0,0,0,0,0,0,0,0,0,0,0,0,0,0,0,0,0,0,0,0,0]","[0,0.015500000000002956,0.03169999998807782,0.048500000000004206,0.06539999997616519,0.08200000000000784,0.09859999996423596,0.11519999998807862,0.132000000000005,0.14849999999999852,0.1653999999761595,0.18209999996423676,0.19880000001192855,0.2150000000000034,0.23209999996424813,0.24850000000000705,0.26509999996423517,0.2820000000000107,0.2985999999642388,0.31519999998808146,0.3318000000119241,0.34880000001192,0.3650999999642437,0.38180000001192127,0.3983999999761636,0.41509999996424085,0.43200000000000216,0.4486999999880794,0.46530000001192207,0.4819999999999993,0.4983999999761579,0.515500000000003,0.5320000000000107,0.5485999999642388,0.5653000000119306,0.5820000000000078,0.5986999999880851,0.6151999999880786,0.6318000000119213,0.6484999999999985,0.66519999998809,0.6820000000000022,0.6986999999880794,0.7153000000119221,0.7319999999999993,0.7483999999761579,0.765500000000003,0.7823000000119293,0.7986999999880879,0.8153999999761652,0.8320999999642424,0.8486999999880851,0.8653999999761623,0.8820999999642396,0.8986999999880823,0.9153000000119249,0.9320000000000022,0.9488000000119285,0.965899999976159,0.9820999999642481,0.9985999999642416,1.0158000000119216,1.0320000000000107,1.0485000000000042,1.0651999999880815,1.0818000000119241,1.0983999999761664,1.1150999999642437,1.1320999999642396,1.1484999999999985,1.165300000011925,1.1818000000119184,1.1985999999642445,1.215300000011922,1.2320999999642481,1.2485999999642416,1.2653000000119192,1.281800000011927,1.2988000000119229,1.3153000000119306,1.3320000000000078,1.348699999988085,1.3653999999761623,1.3818000000119213,1.3988000000119314,1.415300000011925,1.4320999999642368,1.4485999999642445,1.4653999999761567,1.4818000000119298,1.4986999999880766,1.515399999976168,1.5321999999880802,1.5485999999642388,1.5653999999761652,1.5820999999642424,1.598599999964236,1.6153000000119278,1.6320999999642396,1.6485999999642473,1.6653999999761595]",0,0,0,0,1,0.4486,,,,
K000000000-1,2025-06-18_09h26.34.444,GoFitts,2023.2.3,Win32,59.88023952,,,,,,"[195.0333108389979,-216.60643582636297]","[-235.80637537500385,171.32336008473644]",45,582.945419,4.75,2,0.6996,"[197,197,197,197,197,197,197,197,197,197,197,197,197,197,196,182,162,130,82,5,-45,-116,-150,-168,-186,-197,-204,-208,-210,-210,-210,-210,-208,-207,-204,-203,-202,-203,-205,-209,-212,-215,-216,-217,-218,-219,-220,-221,-221,-221,-221,-221,-221,-221,-221,-221,-221,-221,-221,-221,-221,-221,-221,-221,-221,-221,-221,-221,-221,-221,-221,-221,-221,-221,-221,-221,-221,-221,-221,-221,-221,-221,-221,-221,-221,-221]","[-211,-211,-211,-211,-211,-211,-211,-211,-211,-211,-211,-211,-211,-211,-211,-189,-161,-129,-91,-43,-17,15,34,48,61,73,82,94,100,105,107,108,111,115,124,131,141,150,152,158,161,162,163,163,164,164,165,165,165,165,165,165,165,165,165,165,165,165,165,165,165,165,165,165,165,165,165,165,165,165,165,165,165,165,165,165,165,165,165,165,165,165,165,165,165,165]","[0,0,0,0,0,0,0,0,0,0,0,0,0,0,0,0,0,0,0,0,0,0,0,0,0,0,0,0,0,0,0,0,0,0,0,0,0,0,0,0,0,0,0,0,0,0,0,0,0,0,0,0,0,0,0,0,0,0,0,0,0,0,0,0,0,0,0,0,0,0,0,0,0,0,0,0,0,0,0,0,0,0,0,0,0,0]","[0,0,0,0,0,0,0,0,0,0,0,0,0,0,0,0,0,0,0,0,0,0,0,0,0,0,0,0,0,0,0,0,0,0,0,0,0,0,0,0,0,0,0,0,0,0,0,0,0,0,0,0,0,0,0,0,0,0,0,0,0,0,0,0,0,0,0,0,0,0,0,0,0,0,0,0,0,0,0,0,0,0,0,0,0,0]","[0,0,0,0,0,0,0,0,0,0,0,0,0,0,0,0,0,0,0,0,0,0,0,0,0,0,0,0,0,0,0,0,0,0,0,0,0,0,0,0,0,0,0,0,0,0,0,0,0,0,0,0,0,0,0,0,0,0,0,0,0,0,0,0,0,0,0,0,0,0,0,0,0,0,0,0,0,0,0,0,0,0,0,0,0,0]","[0,0.016300000011924,0.03290000003576665,0.04940000003576017,0.0659000000357679,0.08249999999999602,0.09919999998807327,0.11610000002384879,0.13249999999999318,0.14930000001191956,0.16610000002384595,0.1828000000119232,0.19940000003576586,0.21599999999999397,0.23260000002383663,0.2494999999999976,0.26610000002384027,0.2826999999880826,0.29930000001192525,0.3161000000238374,0.33269999998807975,0.34940000003575733,0.3661000000238488,0.3826999999880769,0.3994000000357687,0.41610000002384595,0.4328000000119232,0.44940000003576586,0.4661000000238431,0.48269999998808544,0.499400000035763,0.5159000000357565,0.5326999999880826,0.5494000000357602,0.5660000000000025,0.5826999999880798,0.5993000000119224,0.6159999999999997,0.6326000000238423,0.6494000000357687,0.6659999999999968,0.6826999999880741,0.6996000000238354,0.7161999999880777,0.7326000000238366,0.7493000000119281,0.766300000011924,0.7826999999880826,0.7994000000357602,0.8161999999880862,0.8326999999880798,0.8494000000357573,0.8661999999880834,0.882800000011926,0.8991999999880846,0.9159000000357622,0.9328000000119232,0.9494000000357659,0.9666999999880801,0.9834000000357577,0.9998000000119163,1.0164999999999935,1.033400000035769,1.0499000000357626,1.0668000000119235,1.0834000000357662,1.0999000000357597,1.1166999999880858,1.1334000000357634,1.149800000011922,1.1668000000119179,1.1833000000119256,1.1999000000357682,1.2164999999999964,1.2333000000119227,1.2498000000119163,1.2664999999999935,1.283199999988085,1.2994999999999948,1.3161000000238374,1.3329000000357638,1.3498000000119248,1.366500000000002,1.3829999999999956,1.3996999999880728,1.416699999988083]",1,0,1,0,1,0.2495,,,,
