指定代號,date,expName,psychopyVersion,OS,frameRate,from,to,w,a,id,sequence_loop.thisN,enter_time,mouse.x,mouse.y,mouse.leftButton,mouse.midButton,mouse.rightButton,mouse.time,trial_loop.thisRepN,trial_loop.thisTrialN,trial_loop.thisN,trial_loop.thisIndex,trial_loop.ran,leave_time,sequence_loop.thisRepN,sequence_loop.thisTrialN,sequence_loop.thisIndex,sequence_loop.ran
L000000000-1,2025-04-25_10h29.38.041,GoFitts,2023.2.3,Win32,59.88023952,,,,,,,,,,,,,,,,,,,,,,,
L000000000-1,2025-04-25_10h29.38.041,GoFitts,2023.2.3,Win32,59.88023952,,,,,,,,,,,,,,,,,,,,,,,
L000000000-1,2025-04-25_10h29.38.041,GoFitts,2023.2.3,Win32,59.88023952,"[94.5,-122]","[-64.77171322029713,112.18789819083543]",20,259.0868529,4.75,0,0.8518,"[94.5,94.5,94.5,94.5,94.5,94.5,94.5,94.5,94.5,94.5,94.5,94.5,94.5,94.5,94.5,92.5,88,83,70,45.5,22,3.5,-9.5,-20,-28,-33.5,-36.5,-38.5,-41.5,-45,-45.5,-47,-47.5,-49,-49,-49.5,-49.5,-50,-50,-50.5,-51,-51.5,-51.5,-53,-53,-53.5,-53.5,-53.5,-53.5,-53.5,-54.5,-58,-59.5,-61,-61,-61,-61,-61,-61,-61.5,-61.5,-62.5,-62.5,-62.5,-62.5,-62.5,-62.5,-62.5,-62.5,-62.5,-62.5,-62.5,-62.5,-62.5,-62.5,-62.5,-62.5,-62.5,-62.5,-62.5,-62.5,-62.5,-62.5,-62.5,-62.5,-62.5,-62.5,-62.5,-62.5,-62.5,-62.5,-62.5,-62.5,-62.5,-62.5,-62.5]","[-122,-122,-122,-122,-122,-122,-122,-122,-122,-122,-122,-122,-122,-122,-122,-116,-102,-85,-51.5,-9.5,24,50.5,69,82.5,94.5,101,102.5,103,103,105,105.5,106.5,106.5,107.5,107.5,108,108,109.5,110.5,111.5,112.5,112.5,112.5,113.5,113.5,114,114,114,114,114,114,114,114,114,114,114,114,114,114,113.5,113.5,113.5,113.5,113.5,113.5,113.5,113.5,113.5,113.5,113.5,113.5,113.5,113.5,113.5,113.5,113.5,113.5,113.5,113.5,113.5,113.5,113.5,113.5,113.5,113.5,113.5,113.5,113.5,113.5,113.5,113.5,113.5,113.5,113.5,113.5,113.5]","[0,0,0,0,0,0,0,0,0,0,0,0,0,0,0,0,0,0,0,0,0,0,0,0,0,0,0,0,0,0,0,0,0,0,0,0,0,0,0,0,0,0,0,0,0,0,0,0,0,0,0,0,0,0,0,0,0,0,0,0,0,0,0,0,0,0,0,0,0,0,0,0,0,0,0,0,0,0,0,0,0,0,0,0,0,0,0,0,0,0,0,0,0,0,0,0]","[0,0,0,0,0,0,0,0,0,0,0,0,0,0,0,0,0,0,0,0,0,0,0,0,0,0,0,0,0,0,0,0,0,0,0,0,0,0,0,0,0,0,0,0,0,0,0,0,0,0,0,0,0,0,0,0,0,0,0,0,0,0,0,0,0,0,0,0,0,0,0,0,0,0,0,0,0,0,0,0,0,0,0,0,0,0,0,0,0,0,0,0,0,0,0,0]","[0,0,0,0,0,0,0,0,0,0,0,0,0,0,0,0,0,0,0,0,0,0,0,0,0,0,0,0,0,0,0,0,0,0,0,0,0,0,0,0,0,0,0,0,0,0,0,0,0,0,0,0,0,0,0,0,0,0,0,0,0,0,0,0,0,0,0,0,0,0,0,0,0,0,0,0,0,0,0,0,0,0,0,0,0,0,0,0,0,0,0,0,0,0,0,0]","[0.00020000004768405688,0.01839999985694618,0.030200000047685194,0.05159999990463149,0.06320000004767934,0.08029999995231663,0.10159999990462865,0.11289999985694976,0.13449999999999562,0.1517000000476827,0.1634999999999991,0.18379999995231344,0.19629999995231628,0.21289999985694408,0.22929999995231753,0.24729999995231822,0.26770000004768235,0.28429999995231725,0.3015999999046315,0.3182000000476819,0.33409999990463035,0.3513999998569446,0.3674999999999997,0.384999999999998,0.4017000000476827,0.4182999999523176,0.4357000000476816,0.4514999999999958,0.46439999985694413,0.48449999999999704,0.5013999998569503,0.5182000000476847,0.5345999999046285,0.5513999998569474,0.5677999999523138,0.5840999999046304,0.6003999998569469,0.6132000000476836,0.6342999999523116,0.6512999999523146,0.6680999999046335,0.6847000000476839,0.7007000000476822,0.7128999998569441,0.7293999998569447,0.7517999999523184,0.7672999999523142,0.7794999999999987,0.8007999999523179,0.8170999999046344,0.8303999998569509,0.851899999856947,0.867599999904634,0.8843999998569458,0.9002999999523169,0.9170999999046288,0.9342999999523158,0.9458999998569482,0.966899999856949,0.9840999999046289,1.0007000000476793,1.0128999998569483,1.0334999999999965,1.0504999999999995,1.062700000047684,1.0832999999523167,1.0959999999999965,1.1124999999999972,1.1292000000476818,1.145899999856944,1.1625999999046286,1.1834999999999951,1.195999999999998,1.2167000000476804,1.2290999999046335,1.2460999999046294,1.2674999999999983,1.2792999999523147,1.2962000000476834,1.3132000000476793,1.3292999999523119,1.3460999999046308,1.3627999999523155,1.3795000000000002,1.4017000000476827,1.4142000000476855,1.4363999998569454,1.4527000000476846,1.4630999999046281,1.4795000000000016,1.4960999999046294,1.5132999999523165,1.529399999856949,1.5460999999046336,1.5627999999523183,1.580399999856951]",0,0,0,0,1,,,,,
L000000000-1,2025-04-25_10h29.38.041,GoFitts,2023.2.3,Win32,59.88023952,"[-64.77171322029713,112.18789819083543]","[86.68147148399905,-96.2695270339391]",20,259.0868529,4.75,0,0.8819,"[-62.5,-62.5,-62.5,-63,-61.5,-56,-46.5,-33,-16.5,-5.5,-3.5,-3,-3,-3,-3,-3,-3,1.5,15,25.5,33.5,35.5,36.5,36.5,37.5,38,38,38,39,42,46.5,51,57,61,63,64.5,65,65,65,66,68,69.5,70,70,70,70,74,75.5,77,77,77,77,77,78.5,78.5,78.5,78.5,78.5,78.5,78.5,78.5,78.5,78.5,79,80.5,80.5,80.5,80.5,80.5,80.5,80.5,80.5,80.5,80.5,80.5,81,81,81,81,81,81,81,81,81,81,81,81,81,81,81,81,81,81,81,81,81]","[113.5,113.5,113.5,106,93.5,78,56,22,-7,-20.5,-21,-21,-21,-21,-21,-21,-21,-24.5,-45,-60,-69.5,-74,-75,-75,-75.5,-77,-77,-77,-78,-79.5,-82.5,-84,-84.5,-84.5,-84.5,-85.5,-86,-86,-89,-94,-96,-97,-97,-97,-97,-97,-99,-100,-101,-101,-101,-101,-101,-101,-101,-101,-101,-101,-101,-101,-101,-101,-101,-101,-103,-103,-103,-103,-103,-103,-103,-103,-103,-103,-103,-103.5,-103.5,-103.5,-103.5,-103.5,-103.5,-103.5,-103.5,-103.5,-103.5,-103.5,-103.5,-103.5,-103.5,-103.5,-103.5,-103.5,-103.5,-103.5,-103.5,-103.5]","[0,0,0,0,0,0,0,0,0,0,0,0,0,0,0,0,0,0,0,0,0,0,0,0,0,0,0,0,0,0,0,0,0,0,0,0,0,0,0,0,0,0,0,0,0,0,0,0,0,0,0,0,0,0,0,0,0,0,0,0,0,0,0,0,0,0,0,0,0,0,0,0,0,0,0,0,0,0,0,0,0,0,0,0,0,0,0,0,0,0,0,0,0,0,0,0]","[0,0,0,0,0,0,0,0,0,0,0,0,0,0,0,0,0,0,0,0,0,0,0,0,0,0,0,0,0,0,0,0,0,0,0,0,0,0,0,0,0,0,0,0,0,0,0,0,0,0,0,0,0,0,0,0,0,0,0,0,0,0,0,0,0,0,0,0,0,0,0,0,0,0,0,0,0,0,0,0,0,0,0,0,0,0,0,0,0,0,0,0,0,0,0,0]","[0,0,0,0,0,0,0,0,0,0,0,0,0,0,0,0,0,0,0,0,0,0,0,0,0,0,0,0,0,0,0,0,0,0,0,0,0,0,0,0,0,0,0,0,0,0,0,0,0,0,0,0,0,0,0,0,0,0,0,0,0,0,0,0,0,0,0,0,0,0,0,0,0,0,0,0,0,0,0,0,0,0,0,0,0,0,0,0,0,0,0,0,0,0,0,0]","[0.00010000014304978322,0.018400000095368796,0.035700000047683034,0.05250000000000199,0.07010000014305007,0.08660000014305069,0.10180000019073532,0.11920000004768383,0.13570000004768445,0.15230000019073486,0.1692000000476881,0.1866000001430521,0.20210000014305507,0.21890000009536692,0.23020000004768804,0.2527000000476818,0.26420000004768696,0.28260000014305575,0.30320000004768843,0.321200000047682,0.3370000000000033,0.3535000000000039,0.3702000000476815,0.3869000000953662,0.40370000004768514,0.4205000000000041,0.43560000014305444,0.44690000009536845,0.46399999999999864,0.486100000143054,0.5032000000476842,0.5202000000476872,0.5362000000476854,0.5533000001907382,0.5715000000000003,0.5878000001907395,0.604100000143049,0.6186000001430543,0.6317000000476867,0.6546000001430556,0.6706000001430539,0.686200000047684,0.7026000001430504,0.719300000190735,0.7304000000953721,0.7469999999999999,0.7641000001430527,0.785499999999999,0.8009000000953677,0.8138000001907386,0.8306000001430505,0.8472000000476854,0.863700000047686,0.8819000000953707,0.9023000001907349,0.9137000000476831,0.9304000000953678,0.9470000000000027,0.9638000001907372,0.980200000047688,0.9971000001430497,1.0137000000476846,1.0302000000476852,1.0480000000000018,1.0685000000000002,1.0853000001907347,1.1020000000000039,1.118300000190736,1.1346000001430525,1.1472000000476825,1.1636000001430489,1.1844000000953656,1.1968000001907342,1.2137000000476874,1.2358000001907357,1.253300000190734,1.2715000000000032,1.2869000000953719,1.3034000000953654,1.318800000190734,1.3353000001907347,1.3534000000953696,1.3725000000000023,1.3859000000953685,1.402000000000001,1.4213000001907332,1.4366000001430521,1.4542000000476847,1.469100000143051,1.4857000000476859,1.5017000000476841,1.514600000143055,1.5360000000000014,1.5518000001907382,1.569700000047682,1.5866000001430507]",1,0,1,0,1,0.0701,,,,
L000000000-1,2025-04-25_10h29.38.041,GoFitts,2023.2.3,Win32,59.88023952,"[86.68147148399905,-96.2695270339391]","[-104.8028335000017,76.14371559321619]",20,259.0868529,4.75,0,1.5469,"[81,81,81,81,81,81,81,81,81,81,81,81,81,81,81,77.5,66.5,52,33.5,17.5,6.5,-2.5,-30.5,-47.5,-63.5,-74.5,-82.5,-82.5,-82.5,-82.5,-82.5,-82.5,-83,-83.5,-84.5,-86,-88,-92.5,-98,-108,-109,-111.5,-113,-114.5,-114.5,-114.5,-114.5,-114.5,-114.5,-114.5,-114.5,-114.5,-114.5,-114.5,-114.5,-114.5,-114.5,-114.5,-114.5,-114.5,-114.5,-114.5,-114.5,-114.5,-114.5,-114.5,-114.5,-114.5,-114.5,-114.5,-114.5,-114.5,-114.5,-114.5,-114.5,-114.5,-114.5,-114.5,-114.5,-114.5,-114.5,-114.5,-114.5,-114.5,-114.5,-114.5,-114.5,-114.5,-114.5,-114.5,-114.5,-114.5,-114.5,-108,-104.5,-104,-103,-103,-101.5,-101.5,-101.5,-101.5,-101.5,-101.5,-101.5,-101.5,-101.5,-101.5,-101.5,-101.5,-101.5,-101.5,-101.5,-101.5,-101.5,-101.5,-101.5,-101.5,-101.5,-101.5,-101.5,-101.5,-101.5,-101.5,-101.5,-101.5,-101,-100,-98.5,-98.5,-98,-98,-98,-98,-98,-98,-98,-98]","[-103.5,-103.5,-103.5,-103.5,-103.5,-103.5,-103.5,-103.5,-103.5,-103.5,-103.5,-103.5,-103.5,-103.5,-103.5,-91.5,-72,-52,-34.5,-23.5,-13.5,-7,17.5,29.5,40,49,55,55.5,55.5,55.5,55.5,55.5,57.5,58,59,60,61,64,67,71.5,72.5,75,77,78.5,80,80,80,80,80,80,80,80,80,80,80,80,80,80,80,80,80,80,80,80,80,80,80,80,80,80,80,80,80,80,80,80,80,80,80,80,80,80,80,80,80,80,80,80,80,80,80,80,80,77.5,76,76,76,76,76,76,76,76,76,76,76,76,76,76,76,76,76,76,76,76,76,76,76,76,76,76,76,76,76,76,76,76,76,76,76,76,76,76,76,76,76,76,76,76]","[0,0,0,0,0,0,0,0,0,0,0,0,0,0,0,0,0,0,0,0,0,0,0,0,0,0,0,0,0,0,0,0,0,0,0,0,0,0,0,0,0,0,0,0,0,0,0,0,0,0,0,0,0,0,0,0,0,0,0,0,0,0,0,0,0,0,0,0,0,0,0,0,0,0,0,0,0,0,0,0,0,0,0,0,0,0,0,0,0,0,0,0,0,0,0,0,0,0,0,0,0,0,0,0,0,0,0,0,0,0,0,0,0,0,0,0,0,0,0,0,0,0,0,0,0,0,0,0,0,0,0,0,0,0,0,0,0,0]","[0,0,0,0,0,0,0,0,0,0,0,0,0,0,0,0,0,0,0,0,0,0,0,0,0,0,0,0,0,0,0,0,0,0,0,0,0,0,0,0,0,0,0,0,0,0,0,0,0,0,0,0,0,0,0,0,0,0,0,0,0,0,0,0,0,0,0,0,0,0,0,0,0,0,0,0,0,0,0,0,0,0,0,0,0,0,0,0,0,0,0,0,0,0,0,0,0,0,0,0,0,0,0,0,0,0,0,0,0,0,0,0,0,0,0,0,0,0,0,0,0,0,0,0,0,0,0,0,0,0,0,0,0,0,0,0,0,0]","[0,0,0,0,0,0,0,0,0,0,0,0,0,0,0,0,0,0,0,0,0,0,0,0,0,0,0,0,0,0,0,0,0,0,0,0,0,0,0,0,0,0,0,0,0,0,0,0,0,0,0,0,0,0,0,0,0,0,0,0,0,0,0,0,0,0,0,0,0,0,0,0,0,0,0,0,0,0,0,0,0,0,0,0,0,0,0,0,0,0,0,0,0,0,0,0,0,0,0,0,0,0,0,0,0,0,0,0,0,0,0,0,0,0,0,0,0,0,0,0,0,0,0,0,0,0,0,0,0,0,0,0,0,0,0,0,0,0]","[0,0.014399999856948398,0.030299999952312362,0.04809999990462899,0.06559999990463439,0.0755999999046324,0.09870000004768542,0.11350000000000193,0.13270000004768434,0.14799999999999613,0.1652000000476832,0.1805000000000021,0.19639999985695056,0.2153999998569489,0.23059999990463353,0.24759999990462944,0.263899999856946,0.28079999995231475,0.2972000000476811,0.3138999998569503,0.32970000004767996,0.34239999985695135,0.3635999999046291,0.3812000000476843,0.39659999990463035,0.41409999990462865,0.43079999995231333,0.44859999990462995,0.46479999995231225,0.4758999998569493,0.4922000000476814,0.5088999998569506,0.5263999998569489,0.5480000000000018,0.5645999999046296,0.5810999999046302,0.597999999999999,0.6147000000476837,0.6304999999999978,0.6475999999046351,0.6640000000000015,0.6814999999999998,0.6982999999523187,0.7137999999523146,0.732999999999997,0.7482000000476816,0.758499999999998,0.7752999999523169,0.7925999999046311,0.8089999999999975,0.8257000000476822,0.8425000000000011,0.8590000000000018,0.8755000000000024,0.8920999999046302,0.9089999999999989,0.9302000000476838,0.9465000000000003,0.958399999856951,0.9797000000476856,0.9915999999046292,1.0128999998569483,1.029599999904633,1.0463999998569449,1.0582000000476839,1.07970000004768,1.0963999998569491,1.1145999999046339,1.1300000000000026,1.1462000000476849,1.1583999998569467,1.1795999999046316,1.1962999999523163,1.2132999999523122,1.2293999998569447,1.2460000000000022,1.258499999999998,1.2764999999999986,1.2918999998569447,1.3085999999046294,1.325299999952314,1.3417000000476804,1.3583999998569496,1.3748999998569502,1.3918999998569461,1.4083999998569467,1.4248999998569474,1.4422000000476842,1.458799999952312,1.4750999999046286,1.495599999904634,1.508299999952314,1.5248999998569488,1.5468999998569473,1.5630000000000024,1.57970000004768,1.5963999998569491,1.6129999999999995,1.6262000000476817,1.6460000000000008,1.6632000000476808,1.6790999999046292,1.691599999904632,1.713000000000001,1.7248999998569445,1.7417999999523133,1.761299999952314,1.7748999998569488,1.792399999856947,1.8130000000000024,1.824899999856946,1.8455000000000013,1.8582999999523153,1.8797000000476842,1.8917000000476847,1.9082999999523125,1.9293999998569475,1.9414999999999978,1.9627000000476826,1.9793999998569447,1.99539999985695,2.008299999952314,2.0247999999523145,2.041499999999999,2.0625999999046343,2.0800999999046326,2.096399999856949,2.1128999998569498,2.129200000047682,2.1468999998569487,2.1597000000476854,2.179200000047686,2.191399999856948,2.2082999999523167,2.2248999998569445,2.241599999904629,2.258299999952314,2.275099999904633]",2,0,2,0,1,0.2476,,,,
L000000000-1,2025-04-25_10h29.38.041,GoFitts,2023.2.3,Win32,59.88023952,"[-104.8028335000017,76.14371559321619]","[118.34380879226335,-52.690058402984185]",20,259.0868529,4.75,0,0.5874,"[-98,-98,-98,-98,-98,-98,-98,-98,-98,-98,-98,-98,-98,-98,-98,-98,-88.5,-61,-36.5,-5.5,26.5,49,58.5,60,60,60,63.5,74,80.5,84.5,86.5,88,91.5,97,104.5,109,109,111,113,115,115,116,116,116,116,116,116,116,116,116,116,116,116,116,116,116,116,116,116,116,116,116,116,116,116,116,116,116,116,116,116,116,116,116,116,116,116,116,116,116]","[76,76,76,76,76,76,76,76,76,76,76,76,76,76,76,76,68.5,43,18,-1,-20,-32.5,-39,-39.5,-39.5,-39.5,-43,-47,-48,-48,-48,-48,-48,-48.5,-51,-53,-53,-54,-54,-54,-54,-54,-54,-54,-54,-54,-54,-54,-54,-54,-54,-54,-54,-54,-54,-54,-54,-54,-54,-54,-54,-54,-54,-54,-54,-54,-54,-54,-54,-54,-54,-54,-54,-54,-54,-54,-54,-54,-54,-54]","[0,0,0,0,0,0,0,0,0,0,0,0,0,0,0,0,0,0,0,0,0,0,0,0,0,0,0,0,0,0,0,0,0,0,0,0,0,0,0,0,0,0,0,0,0,0,0,0,0,0,0,0,0,0,0,0,0,0,0,0,0,0,0,0,0,0,0,0,0,0,0,0,0,0,0,0,0,0,0,0]","[0,0,0,0,0,0,0,0,0,0,0,0,0,0,0,0,0,0,0,0,0,0,0,0,0,0,0,0,0,0,0,0,0,0,0,0,0,0,0,0,0,0,0,0,0,0,0,0,0,0,0,0,0,0,0,0,0,0,0,0,0,0,0,0,0,0,0,0,0,0,0,0,0,0,0,0,0,0,0,0]","[0,0,0,0,0,0,0,0,0,0,0,0,0,0,0,0,0,0,0,0,0,0,0,0,0,0,0,0,0,0,0,0,0,0,0,0,0,0,0,0,0,0,0,0,0,0,0,0,0,0,0,0,0,0,0,0,0,0,0,0,0,0,0,0,0,0,0,0,0,0,0,0,0,0,0,0,0,0,0,0]","[0.00009999990463427366,0.019900000095368853,0.03190000009536931,0.048599999904631375,0.06529999995231606,0.08190000009536647,0.09859999990463564,0.11529999995232032,0.13620000004768684,0.15240000009536914,0.16529999995231748,0.1819000000953679,0.2027999999523189,0.21529999995231464,0.23190000009536504,0.24859999990463422,0.2662000000476823,0.28690000009537187,0.30349999999999966,0.32020000004768434,0.33709999990463047,0.35379999995231515,0.36999999999999744,0.38750000000000284,0.40320000004768275,0.4152000000476832,0.43720000004768167,0.453200000047687,0.47050000000000125,0.4867999999523178,0.5032000000476842,0.5202000000476872,0.532900000095367,0.5539000000953678,0.570599999904637,0.5874000000953714,0.6035999999046311,0.6199999999999974,0.6365999999046323,0.6532000000476827,0.6714000000953675,0.6820999999046364,0.7035999999046325,0.7152000000476875,0.7350999999046337,0.7484999999999999,0.7650999999046348,0.7817999999523195,0.7985000000000042,0.8152000000476818,0.8365999999046352,0.8525999999046334,0.869099999904634,0.8822999999523162,0.8987000000476826,0.9152999999523175,0.9317999999523181,0.948799999952314,0.9652999999523146,0.981900000095365,0.9984999999999999,1.0154000000953687,1.0375000000000014,1.0485999999046314,1.0695999999046322,1.0819000000953665,1.0987999999523197,1.1155999999046315,1.1367000000476821,1.1484999999999985,1.166000000000004,1.186400000095368,1.1987000000476868,1.2202999999523172,1.2320999999046336,1.2485,1.2652000000476846,1.2864000000953695,1.2987000000476812,1.315299999952316]",3,0,3,0,1,0.2661,,,,
L000000000-1,2025-04-25_10h29.38.041,GoFitts,2023.2.3,Win32,59.88023952,"[118.34380879226335,-52.690058402984185]","[-126.71259176370357,26.933592825589994]",20,259.0868529,4.75,0,0.704,"[116,116,116,116,116,116,116,116,116,116,116,116,116,116,116,116,116,108.5,90.5,66.5,37,10.5,-12,-34,-56.5,-78.5,-98,-108,-108.5,-109.5,-109.5,-111,-111.5,-112.5,-113.5,-114.5,-114.5,-114.5,-114.5,-114.5,-114.5,-114.5,-117,-120,-121.5,-123,-123,-123,-123.5,-123.5,-123.5,-123.5,-123.5,-123.5,-123.5,-123.5,-123.5,-123.5,-123.5,-123.5,-123.5,-123.5,-123.5,-123.5,-123.5,-123.5,-123.5,-123.5,-123.5,-123.5,-123.5,-123.5,-123.5,-123.5,-123.5,-123.5,-123.5,-123.5,-123.5,-123.5,-123.5,-123.5,-123.5,-123.5,-123.5,-123.5,-123.5]","[-54,-54,-54,-54,-54,-54,-54,-54,-54,-54,-54,-54,-54,-54,-54,-54,-54,-54,-52.5,-43.5,-31.5,-20,-8.5,3.5,15,22.5,30,32,32,32,32,32,32,32,31,29.5,27.5,27,27,27,27,27,26.5,26.5,26.5,25,25,25,25,25,25,25,25,25,25,25,25,25,25,25,25,25,25,25,25,25,25,25,25,25,25,25,25,25,25,25,25,25,25,25,25,25,25,25,25,25,25]","[0,0,0,0,0,0,0,0,0,0,0,0,0,0,0,0,0,0,0,0,0,0,0,0,0,0,0,0,0,0,0,0,0,0,0,0,0,0,0,0,0,0,0,0,0,0,0,0,0,0,0,0,0,0,0,0,0,0,0,0,0,0,0,0,0,0,0,0,0,0,0,0,0,0,0,0,0,0,0,0,0,0,0,0,0,0,0]","[0,0,0,0,0,0,0,0,0,0,0,0,0,0,0,0,0,0,0,0,0,0,0,0,0,0,0,0,0,0,0,0,0,0,0,0,0,0,0,0,0,0,0,0,0,0,0,0,0,0,0,0,0,0,0,0,0,0,0,0,0,0,0,0,0,0,0,0,0,0,0,0,0,0,0,0,0,0,0,0,0,0,0,0,0,0,0]","[0,0,0,0,0,0,0,0,0,0,0,0,0,0,0,0,0,0,0,0,0,0,0,0,0,0,0,0,0,0,0,0,0,0,0,0,0,0,0,0,0,0,0,0,0,0,0,0,0,0,0,0,0,0,0,0,0,0,0,0,0,0,0,0,0,0,0,0,0,0,0,0,0,0,0,0,0,0,0,0,0,0,0,0,0,0,0]","[0,0.020000000000003126,0.03190000009536931,0.04860000014305399,0.06570000004768417,0.08710000014305308,0.09860000014305115,0.11960000014305194,0.1364000000953709,0.14849999999999852,0.16540000009536726,0.18200000000000216,0.19860000014305257,0.21540000009537152,0.23190000009537215,0.24860000014304973,0.2698000001907346,0.2827000000476829,0.3042000000476861,0.32020000004768434,0.3374000000953714,0.35380000019073776,0.3702000000476886,0.38710000014305024,0.4035000000000011,0.41990000009536743,0.43720000004768167,0.4538000001907392,0.47050000000000125,0.4870000000000019,0.5038000001907363,0.5201000001430529,0.5367000000476878,0.5489999999999995,0.5707000000476867,0.586900000095369,0.6033000001907354,0.6201000001430543,0.6362000000476868,0.6484999999999985,0.665300000190733,0.6820000000000022,0.7040000000000006,0.720600000143051,0.7370000000000019,0.7537000000476866,0.7702000000476872,0.7819000000953693,0.7989000000953723,0.8154000000953658,0.8320000000000007,0.8486000001430511,0.8700000000000045,0.8821000001430548,0.9031000001430556,0.9198000001907332,0.9369000000953704,0.9529000000953687,0.9694000000953693,0.9819000000953721,0.9989000000953681,1.015900000095371,1.0365000000000038,1.048600000143054,1.0698000001907388,1.0820000000000007,1.1029000000953673,1.11540000009537,1.132200000047682,1.149400000095369,1.169600000143049,1.1820000000000022,1.1986000001430526,1.2153000001907373,1.2319999999999993,1.2530000000000001,1.2654000000953687,1.2821000001430534,1.298800000190738,1.3153000001907387,1.3319000000953665,1.3486000001430511,1.36540000009537,1.381999999999998,1.3984999999999985,1.4152000000476832,1.432100000143052]",4,0,4,0,1,0.3041,,,,
L000000000-1,2025-04-25_10h29.38.041,GoFitts,2023.2.3,Win32,59.88023952,"[-126.71259176370357,26.933592825589994]","[129.54342644059432,0]",20,259.0868529,4.75,0,0.9209,"[-123.5,-123.5,-123.5,-123.5,-123.5,-123,-123,-123,-123,-123,-121.5,-117,-105,-75.5,-53,-35.5,-22,-3.5,14.5,30,43,46,47.5,49,55,68.5,73.5,75,75,77,82.5,93.5,99,100.5,101,101,101,102.5,103.5,104,106.5,107,108,108,108,108,108,110,111,112,113,114,115,115,119,120,121,121,121,121,121,121,121,121,121,121,121,121,121,121,121,121,121,121,121,121,121,121,121,121,121,121,121,121,121,121,121,121,121,121,122,122,122,122,122,122,122,122,122,122]","[25,25,25,25,25,25.5,25.5,25.5,25.5,25.5,25.5,25.5,25.5,24,24,24,24,22,17.5,12.5,8.5,8,7.5,6.5,4.5,0.5,0,0,0,0,0,0.5,2,2,2,2,2,2,2,2,2,2,1.5,1.5,1.5,1.5,1.5,1.5,1.5,1.5,1.5,1.5,1.5,1.5,1,0,0,0,0,0,0,0,0,0,0,0,0,0,0,0,0,0,0,0,0,0,0,0,0,0,0,0,0,0,0,0,0,0,0,0,-0.5,-0.5,-0.5,-0.5,-0.5,-0.5,-0.5,-0.5,-0.5,-0.5]","[0,0,0,0,0,0,0,0,0,0,0,0,0,0,0,0,0,0,0,0,0,0,0,0,0,0,0,0,0,0,0,0,0,0,0,0,0,0,0,0,0,0,0,0,0,0,0,0,0,0,0,0,0,0,0,0,0,0,0,0,0,0,0,0,0,0,0,0,0,0,0,0,0,0,0,0,0,0,0,0,0,0,0,0,0,0,0,0,0,0,0,0,0,0,0,0,0,0,0,0]","[0,0,0,0,0,0,0,0,0,0,0,0,0,0,0,0,0,0,0,0,0,0,0,0,0,0,0,0,0,0,0,0,0,0,0,0,0,0,0,0,0,0,0,0,0,0,0,0,0,0,0,0,0,0,0,0,0,0,0,0,0,0,0,0,0,0,0,0,0,0,0,0,0,0,0,0,0,0,0,0,0,0,0,0,0,0,0,0,0,0,0,0,0,0,0,0,0,0,0,0]","[0,0,0,0,0,0,0,0,0,0,0,0,0,0,0,0,0,0,0,0,0,0,0,0,0,0,0,0,0,0,0,0,0,0,0,0,0,0,0,0,0,0,0,0,0,0,0,0,0,0,0,0,0,0,0,0,0,0,0,0,0,0,0,0,0,0,0,0,0,0,0,0,0,0,0,0,0,0,0,0,0,0,0,0,0,0,0,0,0,0,0,0,0,0,0,0,0,0,0,0]","[0,0.021000000000000796,0.03659999990463092,0.04839999985694732,0.06499999999999773,0.08189999985695096,0.10320000004768559,0.11520000004768605,0.1318999998569481,0.15270000004768747,0.16579999995231987,0.186200000047684,0.20379999995231657,0.22009999990463314,0.23709999990463615,0.2533999998569527,0.2700999999046303,0.28699999999999903,0.303799999952318,0.3203999998569529,0.33679999995231924,0.3532000000476856,0.37049999999999983,0.38649999999999807,0.403299999952317,0.420099999904636,0.43770000004768406,0.448799999952314,0.47039999985695147,0.4872999999523202,0.5037999999523137,0.5203999998569486,0.5372000000476831,0.5534999999999997,0.5705000000000027,0.586700000047685,0.6035000000000039,0.6205999999046341,0.6372999999523188,0.6537999999523194,0.6709999999999994,0.6868999998569478,0.7047999999523142,0.7205999999046355,0.7372999999523202,0.7484999999999999,0.7652000000476846,0.7837000000476877,0.8047000000476814,0.8205000000000027,0.8427999999523195,0.8622000000476859,0.8702000000476815,0.8819999999999979,0.9042000000476875,0.9209999999999994,0.9370999999046319,0.953200000047687,0.9699999999999989,0.9817999999523153,0.9984999999999999,1.0152000000476846,1.0317999999523195,1.0482999999523201,1.0649999999999977,1.0862000000476826,1.0983999998569516,1.1150999999046363,1.1362000000476868,1.1533999998569513,1.17029999995232,1.181799999952318,1.198399999856946,1.2150000000000034,1.2317999999523153,1.248700000047684,1.2650000000000006,1.2815999999046355,1.302700000047686,1.315099999904632,1.3365999999046352,1.3483999998569516,1.3650999999046363,1.3817999999523138,1.3984999999999985,1.4149999999999991,1.4365000000000023,1.4485000000000028,1.4707000000476853,1.4918999998569475,1.5045000000000002,1.5155999999046301,1.5324999999999989,1.5487000000476812,1.5697999999523162,1.581899999856951,1.6027999999523175,1.615200000047686,1.636499999999998,1.6540000000000035]",5,0,5,0,1,0.2036,,,,
L000000000-1,2025-04-25_10h29.38.041,GoFitts,2023.2.3,Win32,59.88023952,"[129.54342644059432,0]","[-126.71259176370357,-26.93359282558996]",20,259.0868529,4.75,0,0.7654,"[122,122,122,122,122,122,122,122,122,122,122,122,122,122,122,122,122,117,108.5,99.5,89.5,79,70,52,36,17,3.5,-6,-14.5,-17.5,-21,-28.5,-44.5,-68.5,-99,-138.5,-148.5,-148.5,-148.5,-148.5,-148.5,-148.5,-148.5,-147,-142,-137,-132.5,-127,-123.5,-122.5,-120.5,-119.5,-118.5,-118.5,-118.5,-118.5,-118.5,-118.5,-118.5,-118.5,-118.5,-118.5,-118.5,-119,-119,-119,-119,-119,-119,-119,-119,-119,-119,-119,-119,-119,-119,-119,-119,-119,-119,-119,-119,-119,-119,-119,-119,-119,-119,-119]","[-0.5,-0.5,-0.5,-0.5,-0.5,-0.5,-0.5,-0.5,-0.5,-0.5,-0.5,-0.5,-0.5,-0.5,-0.5,-0.5,-5,-9.5,-16,-19.5,-23.5,-27,-29.5,-32.5,-33.5,-34.5,-34.5,-35.5,-35.5,-35.5,-35.5,-37,-37,-37,-37,-38,-39,-39,-39,-39,-39,-39,-39,-38.5,-37,-36,-34.5,-33.5,-32.5,-31.5,-29.5,-28.5,-28,-28,-28,-28,-28,-28,-28,-28,-28,-28,-28,-27,-27,-27,-27,-27,-27,-27,-27,-27,-27,-27,-27,-27,-27,-27,-27,-27,-27,-27,-27,-27,-27,-27,-27,-27,-27,-27]","[0,0,0,0,0,0,0,0,0,0,0,0,0,0,0,0,0,0,0,0,0,0,0,0,0,0,0,0,0,0,0,0,0,0,0,0,0,0,0,0,0,0,0,0,0,0,0,0,0,0,0,0,0,0,0,0,0,0,0,0,0,0,0,0,0,0,0,0,0,0,0,0,0,0,0,0,0,0,0,0,0,0,0,0,0,0,0,0,0,0]","[0,0,0,0,0,0,0,0,0,0,0,0,0,0,0,0,0,0,0,0,0,0,0,0,0,0,0,0,0,0,0,0,0,0,0,0,0,0,0,0,0,0,0,0,0,0,0,0,0,0,0,0,0,0,0,0,0,0,0,0,0,0,0,0,0,0,0,0,0,0,0,0,0,0,0,0,0,0,0,0,0,0,0,0,0,0,0,0,0,0]","[0,0,0,0,0,0,0,0,0,0,0,0,0,0,0,0,0,0,0,0,0,0,0,0,0,0,0,0,0,0,0,0,0,0,0,0,0,0,0,0,0,0,0,0,0,0,0,0,0,0,0,0,0,0,0,0,0,0,0,0,0,0,0,0,0,0,0,0,0,0,0,0,0,0,0,0,0,0,0,0,0,0,0,0,0,0,0,0,0,0]","[0,0.015000000000000568,0.026799999952316966,0.047599999904633705,0.06450000000000244,0.0816999998092669,0.09299999999999642,0.11459999990463388,0.13119999980926167,0.1432999999523119,0.16449999999999676,0.17679999995231555,0.19779999995231634,0.21349999999999625,0.23149999999999693,0.24799999999999756,0.26339999985695073,0.282199999809265,0.298099999904629,0.31450000000000244,0.3316999998092669,0.3478999998569492,0.36509999990462916,0.38119999980926167,0.3981999998092647,0.4146999998092653,0.4317999999523181,0.4483999998569459,0.4654999999999987,0.48189999985694953,0.4978999998569478,0.5146999998092667,0.5313999998569514,0.5478999998569449,0.5646999998092639,0.5814999999999984,0.597999999999999,0.6143999998569498,0.6312999999523186,0.6431999998092621,0.6640000000000015,0.6764999999999972,0.697499999999998,0.714299999952317,0.7310000000000016,0.7470999999046342,0.7653999998569461,0.7820999999046307,0.7987999999523154,0.8155999999046344,0.832099999904635,0.8506999998092653,0.8654999999999973,0.8813999998569457,0.8981999998092647,0.9144999999999968,0.9265999999046315,0.9432999999523162,0.9598999998569511,0.9810000000000016,0.9930999999046293,1.0098999998569482,1.0264999999999986,1.048099999904629,1.0645999999046296,1.07659999990463,1.0930999999046307,1.1096999998092656,1.1265,1.1431999998092621,1.1600999999046309,1.1764999999999972,1.1931999998092664,1.209899999856951,1.2307999999523176,1.2430999999046293,1.2598999998569482,1.276599999904633,1.2932999999523176,1.3145999999046296,1.32659999990463,1.3430999999046307,1.3605000000000018,1.3765,1.397399999856951,1.414399999856947,1.4264999999999972,1.4473999998569482,1.4597999999523168,1.4808999998569448]",6,0,6,0,1,0.282,,,,
L000000000-1,2025-04-25_10h29.38.041,GoFitts,2023.2.3,Win32,59.88023952,"[-126.71259176370357,-26.93359282558996]","[118.34380879226333,52.690058402984185]",20,259.0868529,4.75,0,0.7504,"[-119,-119,-119,-119,-119,-119,-119,-119,-119,-119,-119,-119,-119,-119,-119,-115.5,-98,-78.5,-34.5,0.5,30,44,53,56.5,59.5,65,71,83.5,89,91,92,94.5,99,103,115,121,124.5,126.5,126.5,126.5,126.5,126.5,126.5,127,127,126,123,121,120,120,120,120,120,120,120,120,120,120,120,120,120,120,120,120,120,120,120,120,120,120,120,120,120,120,120,120,120,120,120,120,120,120,120,120,120,120,120,120,120]","[-27,-27,-27,-27,-27,-27,-27,-27,-27,-27,-27,-27,-27,-27,-27,-25.5,-21.5,-16,-8,-4.5,1.5,6.5,10.5,11.5,14,16,17,21,22.5,23,23.5,25.5,26,28,31,33.5,34.5,35.5,35.5,36.5,38,38.5,42,45,45.5,48.5,50,51,51.5,51.5,51.5,51.5,51.5,51.5,51.5,51.5,51.5,51.5,51.5,51.5,51.5,51.5,51.5,51.5,51.5,51.5,51.5,51.5,51.5,51.5,51.5,51.5,51.5,51.5,51.5,51.5,51.5,51.5,51.5,51.5,51.5,51.5,51.5,51.5,51.5,51.5,51.5,51.5,51.5]","[0,0,0,0,0,0,0,0,0,0,0,0,0,0,0,0,0,0,0,0,0,0,0,0,0,0,0,0,0,0,0,0,0,0,0,0,0,0,0,0,0,0,0,0,0,0,0,0,0,0,0,0,0,0,0,0,0,0,0,0,0,0,0,0,0,0,0,0,0,0,0,0,0,0,0,0,0,0,0,0,0,0,0,0,0,0,0,0,0]","[0,0,0,0,0,0,0,0,0,0,0,0,0,0,0,0,0,0,0,0,0,0,0,0,0,0,0,0,0,0,0,0,0,0,0,0,0,0,0,0,0,0,0,0,0,0,0,0,0,0,0,0,0,0,0,0,0,0,0,0,0,0,0,0,0,0,0,0,0,0,0,0,0,0,0,0,0,0,0,0,0,0,0,0,0,0,0,0,0]","[0,0,0,0,0,0,0,0,0,0,0,0,0,0,0,0,0,0,0,0,0,0,0,0,0,0,0,0,0,0,0,0,0,0,0,0,0,0,0,0,0,0,0,0,0,0,0,0,0,0,0,0,0,0,0,0,0,0,0,0,0,0,0,0,0,0,0,0,0,0,0,0,0,0,0,0,0,0,0,0,0,0,0,0,0,0,0,0,0]","[0,0.015599999904630124,0.028599999904628248,0.04899999999999949,0.06109999990462711,0.07770000004768463,0.0944000000953622,0.1109999999999971,0.127599999904632,0.14440000009536647,0.16109999990462853,0.17770000004767894,0.19440000009536362,0.21099999999999852,0.2277000000476832,0.24509999990463172,0.26629999995231657,0.2779000000953644,0.29920000004768355,0.3159000000953682,0.3330999999046327,0.3495999999046333,0.3664000000953678,0.3827999999523115,0.3994999999999962,0.4160999999046311,0.43249999999999744,0.4492999999523164,0.46620000004768514,0.48240000009536743,0.49929999995231356,0.5160999999046325,0.5325999999046331,0.5445999999046336,0.5662000000476795,0.582299999952312,0.599299999952315,0.6147000000476837,0.6320999999046322,0.6504000000953667,0.6659999999999968,0.6784000000953654,0.6992000000476821,0.7160999999046282,0.733200000047681,0.7504000000953681,0.7659999999999982,0.7827999999523172,0.8004000000953653,0.8159999999999954,0.833599999904628,0.8487000000476783,0.8609999999999971,0.8779000000953658,0.8987999999523169,0.9110000000000014,0.9277999999523132,0.9442000000476796,0.9610999999046328,0.9780000000000015,0.9977999999523135,1.0109999999999957,1.0275999999046306,1.044400000095365,1.061,1.0777999999523118,1.0994000000953648,1.110999999999997,1.127799999952316,1.1487000000476826,1.1612000000476783,1.1824999999999974,1.1944000000953636,1.2154000000953644,1.2277000000476832,1.2485,1.26109999990463,1.2779999999999987,1.2992000000476835,1.311400000095368,1.3279000000953687,1.349700000047683,1.3662000000476837,1.3780999999046273,1.3945000000000007,1.4162000000476809,1.4324000000953632,1.4442999999523138,1.4657000000476827]",7,0,7,0,1,0.2449,,,,
L000000000-1,2025-04-25_10h29.38.041,GoFitts,2023.2.3,Win32,59.88023952,"[118.34380879226333,52.690058402984185]","[-104.80283350000173,-76.14371559321616]",20,259.0868529,4.75,0,0.75,"[120,120,120,120,120,120,120,120,119.5,119.5,119.5,119.5,119.5,119.5,119,112.5,100,84,69,54,43.5,29,12,-2,-12,-24.5,-42.5,-57.5,-72.5,-83.5,-88.5,-91.5,-91.5,-91.5,-91,-90,-90,-88,-87,-87,-87,-87,-87,-87,-87.5,-97.5,-108.5,-112.5,-114,-114,-114,-114,-114,-114,-114,-113.5,-112.5,-109,-107,-106.5,-106.5,-106.5,-106.5,-106.5,-106,-106,-106,-106,-106,-106,-106,-106,-106,-106,-106,-106,-106,-106,-106,-106,-106,-106,-106,-106,-106,-106,-106,-106,-106,-106]","[51.5,51.5,51.5,51.5,51.5,51.5,51.5,51.5,51.5,51.5,51.5,51.5,51.5,51.5,51,43.5,31,16,3,-9.5,-16.5,-22.5,-31,-35,-37,-40,-41.5,-45,-47,-48,-50,-51,-52,-54,-56,-57,-57,-59,-63,-64.5,-65,-65,-65,-65,-66.5,-69.5,-73.5,-75.5,-77,-77,-77,-77,-77,-77,-77,-76.5,-76.5,-76.5,-76.5,-75.5,-75.5,-75.5,-75.5,-75.5,-74.5,-74.5,-74.5,-74.5,-74.5,-74.5,-74.5,-74.5,-74.5,-74.5,-74.5,-74.5,-74.5,-74.5,-74.5,-74.5,-74.5,-74.5,-74.5,-74.5,-74.5,-74.5,-74.5,-74.5,-74.5,-74.5]","[0,0,0,0,0,0,0,0,0,0,0,0,0,0,0,0,0,0,0,0,0,0,0,0,0,0,0,0,0,0,0,0,0,0,0,0,0,0,0,0,0,0,0,0,0,0,0,0,0,0,0,0,0,0,0,0,0,0,0,0,0,0,0,0,0,0,0,0,0,0,0,0,0,0,0,0,0,0,0,0,0,0,0,0,0,0,0,0,0,0]","[0,0,0,0,0,0,0,0,0,0,0,0,0,0,0,0,0,0,0,0,0,0,0,0,0,0,0,0,0,0,0,0,0,0,0,0,0,0,0,0,0,0,0,0,0,0,0,0,0,0,0,0,0,0,0,0,0,0,0,0,0,0,0,0,0,0,0,0,0,0,0,0,0,0,0,0,0,0,0,0,0,0,0,0,0,0,0,0,0,0]","[0,0,0,0,0,0,0,0,0,0,0,0,0,0,0,0,0,0,0,0,0,0,0,0,0,0,0,0,0,0,0,0,0,0,0,0,0,0,0,0,0,0,0,0,0,0,0,0,0,0,0,0,0,0,0,0,0,0,0,0,0,0,0,0,0,0,0,0,0,0,0,0,0,0,0,0,0,0,0,0,0,0,0,0,0,0,0,0,0,0]","[0,0.01549999999999585,0.027399999856946522,0.0484999999999971,0.06539999985695033,0.07720000004768224,0.0940000000000012,0.1148999998569451,0.12739999985694794,0.14389999985694857,0.16529999995231748,0.17720000004768366,0.19389999985694573,0.2105999999046304,0.23189999985694953,0.24849999999999994,0.26549999999999585,0.2823999998569491,0.29970000004768593,0.3152000000476818,0.3322000000476848,0.3487999999523126,0.3653999998569475,0.38089999985695044,0.39399999999999835,0.41489999985694936,0.43170000004768383,0.44820000004768445,0.4654999999999987,0.4815999999046312,0.49839999985695016,0.5157000000476799,0.5320999999046307,0.5483999998569473,0.5607000000476816,0.581899999856951,0.5982999999523173,0.6148999998569451,0.6319999999999979,0.6490999999046281,0.6655000000000015,0.6823999998569477,0.6937000000476843,0.7103999998569464,0.7274999999999991,0.75,0.7652000000476846,0.7818999998569467,0.7984999999999971,0.8153999998569503,0.832299999952312,0.8488999998569469,0.8653999998569475,0.8817000000476796,0.8982000000476802,0.9152000000476832,0.9272000000476837,0.9483999998569459,0.9603999998569464,0.9817999999523153,0.9984999999999999,1.0105000000000004,1.0313999998569443,1.0437999999523129,1.061,1.0813999998569486,1.0944999999999965,1.1145999999046339,1.1270999999046296,1.1479999999999961,1.1605999999046333,1.1772000000476837,1.1940999999046298,1.2105999999046304,1.2272000000476808,1.2480999999046318,1.2605000000000004,1.2819999999999965,1.298499999999997,1.3103999998569478,1.3269999999999982,1.3437000000476829,1.360399999856945,1.3770999999046296,1.3938999998569486,1.410499999999999,1.427299999952318,1.4440999999046298,1.4604999999999961,1.4813999998569471]",8,0,8,0,1,0.2485,,,,
L000000000-1,2025-04-25_10h29.38.041,GoFitts,2023.2.3,Win32,59.88023952,"[-104.80283350000173,-76.14371559321616]","[86.68147148399902,96.26952703393913]",20,259.0868529,4.75,0,1.1335,"[-106,-106,-106,-106,-106,-106,-106,-106,-106,-106,-106,-106,-106,-106,-106,-106,-106,-94.5,-76.5,-52.5,-30.5,-18.5,-13,-10.5,-9.5,-8,-4,-1.5,2,2,2,2,8.5,32.5,51,67,81,87.5,95,108,117.5,123.5,124,124,124,123,120,115.5,107.5,94,81.5,69,66.5,66.5,66.5,66.5,66.5,66.5,66.5,66.5,66.5,66.5,69.5,74.5,74.5,76,76,76.5,79.5,83,83,83,83,83,83,83,83,83,83,83,83,83,83,83,83,83,83,83,83,83,83,83,83,83,83,83,83,83,83,83,83,83,83,83,83,83,83,83,83,83,83,83]","[-74.5,-74.5,-74.5,-74.5,-74.5,-74.5,-74.5,-74.5,-74.5,-74.5,-74.5,-74.5,-74.5,-74.5,-74.5,-74.5,-74.5,-56,-34.5,-1.5,30,46,57.5,60.5,63,64.5,67,68,70.5,70.5,70.5,70.5,70.5,70.5,70.5,70.5,74.5,76.5,80,85,89.5,93,93.5,93.5,93.5,94,94,94,94,94,93.5,90.5,90,90,90,90,90,90,90,90,90,90,90,91.5,91.5,92,92,93,95,95.5,95.5,95.5,95.5,95.5,95.5,95.5,95.5,95.5,95.5,95.5,95.5,95.5,95.5,95.5,95.5,95.5,95.5,95.5,95.5,95.5,95.5,95.5,95.5,95.5,95.5,95.5,95.5,95.5,95.5,95.5,95.5,95.5,95.5,95.5,95.5,95.5,95.5,95.5,95.5,95.5,95.5,95.5]","[0,0,0,0,0,0,0,0,0,0,0,0,0,0,0,0,0,0,0,0,0,0,0,0,0,0,0,0,0,0,0,0,0,0,0,0,0,0,0,0,0,0,0,0,0,0,0,0,0,0,0,0,0,0,0,0,0,0,0,0,0,0,0,0,0,0,0,0,0,0,0,0,0,0,0,0,0,0,0,0,0,0,0,0,0,0,0,0,0,0,0,0,0,0,0,0,0,0,0,0,0,0,0,0,0,0,0,0,0,0,0,0]","[0,0,0,0,0,0,0,0,0,0,0,0,0,0,0,0,0,0,0,0,0,0,0,0,0,0,0,0,0,0,0,0,0,0,0,0,0,0,0,0,0,0,0,0,0,0,0,0,0,0,0,0,0,0,0,0,0,0,0,0,0,0,0,0,0,0,0,0,0,0,0,0,0,0,0,0,0,0,0,0,0,0,0,0,0,0,0,0,0,0,0,0,0,0,0,0,0,0,0,0,0,0,0,0,0,0,0,0,0,0,0,0]","[0,0,0,0,0,0,0,0,0,0,0,0,0,0,0,0,0,0,0,0,0,0,0,0,0,0,0,0,0,0,0,0,0,0,0,0,0,0,0,0,0,0,0,0,0,0,0,0,0,0,0,0,0,0,0,0,0,0,0,0,0,0,0,0,0,0,0,0,0,0,0,0,0,0,0,0,0,0,0,0,0,0,0,0,0,0,0,0,0,0,0,0,0,0,0,0,0,0,0,0,0,0,0,0,0,0,0,0,0,0,0,0]","[0,0.016200000047682295,0.028099999904632966,0.04479999995231054,0.061499999999995225,0.07829999995231418,0.09979999995231736,0.11170000004768355,0.12820000004768417,0.14490000009536175,0.16149999999999665,0.1782999999523156,0.19959999990462762,0.2115000000000009,0.2282000000476785,0.24499999999999744,0.2617000000476821,0.2837000000476806,0.2999000000953629,0.3169000000953659,0.3339999999999961,0.350599999904631,0.366700000047679,0.383700000047682,0.3999000000953643,0.4177999999523152,0.43420000004768156,0.45079999995231645,0.4662999999523123,0.48320000004768104,0.49929999995231356,0.5115999999046323,0.5289000000953621,0.5502999999523155,0.5669000000953659,0.5839000000953618,0.6002999999523126,0.6165999999046292,0.6337999999523163,0.650500000000001,0.6670999999046288,0.6834999999999951,0.6999000000953686,0.7174000000953669,0.7330999999046313,0.7499000000953657,0.76720000004768,0.7832999999523125,0.7999000000953629,0.8170999999046273,0.8327000000476801,0.8499999999999943,0.8660999999046268,0.8830999999046298,0.8947000000476848,0.9114999999999966,0.9339999999999975,0.9447999999523162,0.9615999999046281,0.9835999999046336,0.9950999999046317,1.0117000000476821,1.0285999999046282,1.0494000000953676,1.0662999999523137,1.0829999999999984,1.099700000047683,1.1117000000476835,1.133499999999998,1.1499999999999986,1.1669000000953673,1.1780999999046315,1.194900000095366,1.2114000000953666,1.2279000000953673,1.2449000000953632,1.2614000000953638,1.278299999952317,1.2949999999999946,1.3114999999999952,1.3280999999046301,1.3449999999999989,1.3614000000953652,1.3780000000000001,1.3949000000953617,1.4112999999523126,1.4282000000476813,1.4450000000000003,1.4617000000476779,1.4782000000476785,1.4947000000476791,1.511499999999998,1.5282000000476827,1.5489999999999995,1.561400000095368,1.5780999999046301,1.5995999999046333,1.6115999999046267,1.6282000000476842,1.644799999952312,1.6619000000953648,1.6824000000953632,1.694900000095366,1.711500000000001,1.7322000000476834,1.7447999999523134,1.7617999999523164,1.7784000000953668,1.7949000000953674,1.8117999999523136,1.82820000004768,1.8485999999046285]",9,0,9,0,1,0.2837,,,,
L000000000-1,2025-04-25_10h29.38.041,GoFitts,2023.2.3,Win32,59.88023952,"[86.68147148399902,96.26952703393913]","[-64.77171322029722,-112.18789819083538]",20,259.0868529,4.75,0,0.7006,"[83,83,83,83,83,83,83,83,83,83,83,84,84,84,84,84,77.5,69,46,39,28,21,14.5,7.5,-1.5,-11,-16.5,-19.5,-21,-29.5,-49,-71.5,-88.5,-97.5,-99.5,-100,-100,-98.5,-97,-94.5,-87.5,-78.5,-70.5,-70,-70,-70,-70,-68.5,-67.5,-67.5,-67.5,-67.5,-67.5,-67.5,-67.5,-67.5,-67,-67,-67,-67,-67,-67,-67,-67,-67,-67,-67,-67,-67,-67,-67,-67,-67,-67,-67,-67,-67,-67,-67,-67,-67,-67,-67,-67,-67,-67]","[95.5,95.5,95.5,95.5,95.5,95.5,95.5,95.5,95.5,95.5,95.5,95.5,95.5,95.5,95.5,95,84.5,65,21,10,-12,-22.5,-39.5,-52.5,-64.5,-72.5,-76.5,-79,-79,-81.5,-89,-100,-107.5,-113,-114.5,-115,-115,-115.5,-115.5,-115.5,-114.5,-112,-109.5,-109,-109,-109,-109,-109,-109,-109,-109,-109,-109,-109,-109,-109,-108,-107.5,-107.5,-107.5,-107.5,-107.5,-107.5,-107.5,-107.5,-107.5,-107.5,-107.5,-107.5,-107.5,-107.5,-107.5,-107.5,-107.5,-107.5,-107.5,-107.5,-107.5,-107.5,-107.5,-107.5,-107.5,-107.5,-107.5,-107.5,-107.5]","[0,0,0,0,0,0,0,0,0,0,0,0,0,0,0,0,0,0,0,0,0,0,0,0,0,0,0,0,0,0,0,0,0,0,0,0,0,0,0,0,0,0,0,0,0,0,0,0,0,0,0,0,0,0,0,0,0,0,0,0,0,0,0,0,0,0,0,0,0,0,0,0,0,0,0,0,0,0,0,0,0,0,0,0,0,0]","[0,0,0,0,0,0,0,0,0,0,0,0,0,0,0,0,0,0,0,0,0,0,0,0,0,0,0,0,0,0,0,0,0,0,0,0,0,0,0,0,0,0,0,0,0,0,0,0,0,0,0,0,0,0,0,0,0,0,0,0,0,0,0,0,0,0,0,0,0,0,0,0,0,0,0,0,0,0,0,0,0,0,0,0,0,0]","[0,0,0,0,0,0,0,0,0,0,0,0,0,0,0,0,0,0,0,0,0,0,0,0,0,0,0,0,0,0,0,0,0,0,0,0,0,0,0,0,0,0,0,0,0,0,0,0,0,0,0,0,0,0,0,0,0,0,0,0,0,0,0,0,0,0,0,0,0,0,0,0,0,0,0,0,0,0,0,0,0,0,0,0,0,0]","[0,0.01709999990463018,0.028700000047685137,0.04870000004768116,0.06199999999999761,0.07890000009536635,0.09540000009536698,0.11209999990462904,0.13299999999999557,0.14529999995231435,0.1620999999046333,0.18329999995231816,0.1954000000953684,0.21190000009536902,0.23199999999999932,0.2459999999999951,0.2680000000000007,0.28440000009536703,0.30049999999999955,0.31270000004768406,0.333799999952312,0.3514000000953672,0.36820000004767905,0.3847000000476797,0.4007999999523122,0.41720000004768565,0.43340000009536794,0.4497999999523117,0.46779999995231236,0.4834999999999994,0.5004000000953681,0.5170999999046302,0.5345999999046285,0.5499999999999972,0.5672999999523114,0.5842000000476801,0.6002999999523126,0.6164000000953678,0.6330999999046298,0.6455999999046327,0.6620999999046333,0.6834999999999951,0.7005999999046324,0.7167000000476804,0.7334000000953651,0.7500999999046343,0.7619000000953662,0.7789000000953692,0.8002000000476812,0.8120999999046319,0.8329999999999984,0.849499999999999,0.8619000000953676,0.8784999999999954,0.8952000000476801,0.911999999999999,0.928799999952318,0.9502000000476798,0.9619999999999962,0.9787000000476809,0.9954000000953656,1.0120000000000005,1.0289000000953692,1.045299999952313,1.0619999999999976,1.0785999999046325,1.099700000047683,1.1120000000000019,1.1285999999046297,1.1454000000953641,1.166099999904631,1.178799999952318,1.1954000000953684,1.2120999999046305,1.2287000000476809,1.2497000000476817,1.2620999999046276,1.2787999999523123,1.295499999999997,1.312299999952316,1.3287999999523166,1.345200000047683,1.3620000000000019,1.3787000000476795,1.3997000000476802,1.412200000047683]",10,0,10,0,1,0.2679,,,,
L000000000-1,2025-04-25_10h29.38.041,GoFitts,2023.2.3,Win32,59.88023952,"[-64.77171322029722,-112.18789819083538]","[40.03112027970455,123.20311985952911]",20,259.0868529,4.75,0,1.1825,"[-67,-67,-67,-67,-67,-67,-67,-67,-67,-67,-67,-67,-67,-61,-55,-41,-18.5,1.5,6.5,9.5,11,11,12,12,12,12,12,12,12,12,12,12,14.5,19,22,24.5,25,27,28.5,29,29,29.5,29.5,30,32,32.5,32.5,32.5,32.5,32.5,32.5,32.5,32.5,32.5,32.5,32.5,32.5,32.5,32.5,32.5,32.5,32.5,32.5,32.5,32.5,32.5,32.5,32.5,32.5,32.5,32.5,32.5,32.5,32.5,32.5,32.5,33.5,35.5,38.5,38.5,39,39,39,39,39,39,39,39,39,39,39,39.5,39.5,39.5,39.5,39.5,39.5,39.5,39.5,39.5,39.5,39.5,39.5,39.5,39.5,39.5,39.5,39.5,39.5,39.5,39.5,39.5,39.5,39.5,39.5]","[-107.5,-107.5,-107.5,-107.5,-107.5,-107.5,-107.5,-107.5,-107.5,-107.5,-107.5,-107.5,-107.5,-98.5,-83,-40.5,23,81.5,100.5,114.5,121,121.5,123,123,123,123,123,123,123,123,123,121,117,117,117,117,117,118,119.5,120,120.5,121.5,123.5,124.5,128,130,130,130,130,130,130,130,130,130,130,130,130,130,130,130,130,130,130,130,130,130,130,130,130,130,130,129,128,128,128,128,127,125,121,121,119.5,119.5,119.5,119.5,119.5,119.5,119.5,119.5,119.5,119.5,119.5,120.5,120.5,120.5,120.5,120.5,120.5,120.5,120.5,120.5,120.5,120.5,120.5,120.5,120.5,120.5,120.5,120.5,120.5,120.5,120.5,120.5,120.5,120.5,120.5]","[0,0,0,0,0,0,0,0,0,0,0,0,0,0,0,0,0,0,0,0,0,0,0,0,0,0,0,0,0,0,0,0,0,0,0,0,0,0,0,0,0,0,0,0,0,0,0,0,0,0,0,0,0,0,0,0,0,0,0,0,0,0,0,0,0,0,0,0,0,0,0,0,0,0,0,0,0,0,0,0,0,0,0,0,0,0,0,0,0,0,0,0,0,0,0,0,0,0,0,0,0,0,0,0,0,0,0,0,0,0,0,0,0,0,0]","[0,0,0,0,0,0,0,0,0,0,0,0,0,0,0,0,0,0,0,0,0,0,0,0,0,0,0,0,0,0,0,0,0,0,0,0,0,0,0,0,0,0,0,0,0,0,0,0,0,0,0,0,0,0,0,0,0,0,0,0,0,0,0,0,0,0,0,0,0,0,0,0,0,0,0,0,0,0,0,0,0,0,0,0,0,0,0,0,0,0,0,0,0,0,0,0,0,0,0,0,0,0,0,0,0,0,0,0,0,0,0,0,0,0,0]","[0,0,0,0,0,0,0,0,0,0,0,0,0,0,0,0,0,0,0,0,0,0,0,0,0,0,0,0,0,0,0,0,0,0,0,0,0,0,0,0,0,0,0,0,0,0,0,0,0,0,0,0,0,0,0,0,0,0,0,0,0,0,0,0,0,0,0,0,0,0,0,0,0,0,0,0,0,0,0,0,0,0,0,0,0,0,0,0,0,0,0,0,0,0,0,0,0,0,0,0,0,0,0,0,0,0,0,0,0,0,0,0,0,0,0]","[0.00009999990463427366,0.020599999904632682,0.03629999995231259,0.048299999952313044,0.065099999904632,0.08179999995231668,0.09840000009536709,0.11509999990462916,0.13670000004768212,0.14849999999999852,0.1652000000476832,0.1865999999046295,0.19829999995231873,0.21600000000000108,0.23640000009536521,0.25279999995231606,0.2700999999046303,0.2865999999046309,0.3029000000953701,0.3200000000000003,0.3369999999999962,0.3537000000476809,0.37049999999999983,0.38649999999999807,0.3984999999999985,0.4150999999046334,0.43170000004768383,0.44859999990462995,0.46529999995231464,0.481700000047681,0.4982999999523159,0.5152000000476846,0.5364999999999966,0.5529999999999973,0.5700000000000003,0.5864000000953666,0.6030000000000015,0.6150999999046292,0.63609999990463,0.653299999952317,0.6697999999523176,0.6870999999046319,0.7032999999523142,0.7194999999999965,0.737099999904629,0.7535999999046297,0.769599999904635,0.7819999999999965,0.798299999952313,0.8152999999523161,0.8365000000000009,0.848200000047683,0.8649000000953677,0.8817999999523138,0.8985999999046328,0.9149999999999991,0.9319000000953679,0.9484000000953685,0.9652000000476804,0.981700000047681,0.998700000047684,1.019999999999996,1.0317999999523124,1.04840000009537,1.065099999904632,1.0817000000476824,1.0985999999046285,1.115000000000002,1.1317000000476867,1.1484000000953642,1.1652000000476832,1.1824999999999974,1.203400000095364,1.2150999999046306,1.2319999999999993,1.2485,1.2712000000476849,1.2820999999046307,1.3032999999523156,1.3202000000476843,1.3320000000000007,1.3527999999523175,1.365000000000002,1.386299999952314,1.3987000000476826,1.4150999999046334,1.4362999999523183,1.4487000000476797,1.4652000000476804,1.4817999999523153,1.4985,1.5152000000476846,1.5319000000953693,1.54840000009537,1.565099999904632,1.5817999999523167,1.5985000000000014,1.6150999999046292,1.6317000000476867,1.6484999999999985,1.6652000000476832,1.6860999999046342,1.6987000000476797,1.7197999999523148,1.7319999999999993,1.7487999999523183,1.7650999999046348,1.7817999999523124,1.7985999999046314,1.815099999904632,1.8360999999046328,1.8530000000000015,1.8650999999046292,1.8817999999523138,1.8997000000476802]",11,0,11,0,1,0.2159,,,,
L000000000-1,2025-04-25_10h29.38.041,GoFitts,2023.2.3,Win32,59.88023952,"[40.03112027970455,123.20311985952911]","[-13.54097529226173,-128.83377399620034]",20,259.0868529,4.75,0,0.7709,"[39.5,39.5,39.5,39.5,39.5,39.5,39.5,39.5,39.5,39.5,39.5,39.5,39.5,39.5,39.5,39.5,39.5,33,23.5,12,8,3.5,3.5,2.5,2.5,2.5,2.5,2.5,0.5,-0.5,-3.5,-4,-5.5,-6,-11.5,-17,-24.5,-28,-29,-29,-29,-29,-29,-24.5,-15,-10.5,-8,-7,-5.5,-5,-5,-5,-5,-5,-5,-5,-5,-5,-5,-5,-5.5,-6.5,-8.5,-8.5,-8.5,-8.5,-8.5,-8.5,-8.5,-8.5,-8.5,-8.5,-8.5,-8.5,-8.5,-8.5,-8.5,-8.5,-8.5,-8.5,-8.5,-8.5,-8.5,-8.5,-8.5,-8.5,-8.5,-8.5,-8.5,-8.5]","[120.5,120.5,120.5,120.5,120.5,120.5,120.5,120.5,120.5,120.5,120.5,120.5,120.5,120.5,120.5,120.5,120.5,100,61,17.5,-25.5,-62,-71.5,-76,-79.5,-81,-82,-82,-85.5,-87.5,-91,-92,-94,-96.5,-107,-126,-143,-153,-155,-155,-155,-155,-155,-153.5,-145,-139.5,-136,-133.5,-131.5,-130.5,-130.5,-130.5,-130.5,-129.5,-129.5,-129.5,-129.5,-129.5,-130,-130,-130,-130,-130.5,-130.5,-130.5,-130.5,-130.5,-130.5,-130.5,-130.5,-130.5,-130.5,-130.5,-130.5,-130.5,-130.5,-130.5,-130.5,-130.5,-130.5,-130.5,-130.5,-130.5,-130.5,-130.5,-130.5,-130.5,-130.5,-130.5,-130.5]","[0,0,0,0,0,0,0,0,0,0,0,0,0,0,0,0,0,0,0,0,0,0,0,0,0,0,0,0,0,0,0,0,0,0,0,0,0,0,0,0,0,0,0,0,0,0,0,0,0,0,0,0,0,0,0,0,0,0,0,0,0,0,0,0,0,0,0,0,0,0,0,0,0,0,0,0,0,0,0,0,0,0,0,0,0,0,0,0,0,0]","[0,0,0,0,0,0,0,0,0,0,0,0,0,0,0,0,0,0,0,0,0,0,0,0,0,0,0,0,0,0,0,0,0,0,0,0,0,0,0,0,0,0,0,0,0,0,0,0,0,0,0,0,0,0,0,0,0,0,0,0,0,0,0,0,0,0,0,0,0,0,0,0,0,0,0,0,0,0,0,0,0,0,0,0,0,0,0,0,0,0]","[0,0,0,0,0,0,0,0,0,0,0,0,0,0,0,0,0,0,0,0,0,0,0,0,0,0,0,0,0,0,0,0,0,0,0,0,0,0,0,0,0,0,0,0,0,0,0,0,0,0,0,0,0,0,0,0,0,0,0,0,0,0,0,0,0,0,0,0,0,0,0,0,0,0,0,0,0,0,0,0,0,0,0,0,0,0,0,0,0,0]","[0,0.019199999809259793,0.03109999990463308,0.047599999904633705,0.06429999995231128,0.08099999999999596,0.10239999985694936,0.11429999995231555,0.13089999985694334,0.1476999998092623,0.16419999980926292,0.18109999990463166,0.19769999980925945,0.21419999980926008,0.23089999985694476,0.24739999985694539,0.2655999999046301,0.2858999998569445,0.3027999999523132,0.32059999990462984,0.3320999999046279,0.3543999998569447,0.37119999980926366,0.38749999999999574,0.4037999999523123,0.42059999990463126,0.43769999980926144,0.4540999999046278,0.4698999998569491,0.4871999998092633,0.5034999999999954,0.5213999998569463,0.5356999998092604,0.5541999998092635,0.5706999998092641,0.58619999980926,0.6025999999046334,0.6206999998092613,0.6371999998092619,0.6539999999999964,0.6647999999523151,0.6810999999046317,0.6978999998569435,0.7148999998569465,0.7374999999999972,0.7539999999999978,0.7708999998569439,0.7874999999999943,0.8026999998092634,0.8201999998092617,0.8374999999999986,0.8476999998092651,0.8645999999046339,0.8811999998092617,0.8976999998092623,0.914399999856947,0.9307999999523133,0.9481999998092618,0.9697999999523148,0.9809999999999945,1.0031999998092616,1.0218999998569487,1.0326999998092603,1.0540999999046292,1.0655000000000001,1.0814999999999984,1.0981999998092604,1.1147999999523108,1.1361999998092642,1.1482999999523145,1.164799999952315,1.1812999999523157,1.1978999998569435,1.2194999999999965,1.2350999999046337,1.2479999999999976,1.2643999998569484,1.281099999904633,1.3030999999046315,1.3203999998569458,1.3313999998569486,1.3480999999046333,1.364899999856945,1.381699999809264,1.3983999998569487,1.4148999998569494,1.4314999999999998,1.4481999998092618,1.4652999999523146,1.4815999999046312]",12,0,12,0,1,0.2858,,,,
L000000000-1,2025-04-25_10h29.38.041,GoFitts,2023.2.3,Win32,59.88023952,"[-13.54097529226173,-128.83377399620034]","[-13.540975292261615,128.83377399620036]",20,259.0868529,4.75,0,0.6065,"[-8.5,-8.5,-8.5,-8.5,-8.5,-8.5,-8.5,-8.5,-8.5,-8.5,-8.5,-8.5,-8.5,-8.5,-8.5,-8.5,-9.5,-7,1.5,7.5,7.5,7.5,7.5,7.5,7.5,8,8,8,8,6.5,5,4,2.5,1.5,-2.5,-5,-6.5,-7,-7.5,-7.5,-7.5,-7.5,-7.5,-7.5,-7.5,-7.5,-7.5,-7.5,-7.5,-7.5,-7.5,-7.5,-7.5,-7.5,-7.5,-7.5,-7.5,-7.5,-7.5,-7.5,-7.5,-7.5,-7.5,-7.5,-7.5,-7.5,-7.5,-7.5,-7.5,-7.5,-7.5,-7.5,-7.5,-7.5,-7.5,-7.5,-7.5,-7.5,-7.5,-7.5,-7.5]","[-130.5,-130.5,-130.5,-130.5,-130.5,-130.5,-130.5,-130.5,-130.5,-130.5,-130.5,-130.5,-130.5,-130.5,-130.5,-130.5,-129.5,-115,-66.5,-20,11,35,47,56.5,61,62,62.5,64.5,71,76.5,80.5,85,92.5,100.5,113.5,122.5,125,129.5,130.5,132,132,132,132,132,132,132,132,132,132,132,132,132,132,132,132,132,132,132,132,132,132,132,132,132,132,132,132,132,132,132,132,132,132,132,132,132,132,132,132,132,132]","[0,0,0,0,0,0,0,0,0,0,0,0,0,0,0,0,0,0,0,0,0,0,0,0,0,0,0,0,0,0,0,0,0,0,0,0,0,0,0,0,0,0,0,0,0,0,0,0,0,0,0,0,0,0,0,0,0,0,0,0,0,0,0,0,0,0,0,0,0,0,0,0,0,0,0,0,0,0,0,0,0]","[0,0,0,0,0,0,0,0,0,0,0,0,0,0,0,0,0,0,0,0,0,0,0,0,0,0,0,0,0,0,0,0,0,0,0,0,0,0,0,0,0,0,0,0,0,0,0,0,0,0,0,0,0,0,0,0,0,0,0,0,0,0,0,0,0,0,0,0,0,0,0,0,0,0,0,0,0,0,0,0,0]","[0,0,0,0,0,0,0,0,0,0,0,0,0,0,0,0,0,0,0,0,0,0,0,0,0,0,0,0,0,0,0,0,0,0,0,0,0,0,0,0,0,0,0,0,0,0,0,0,0,0,0,0,0,0,0,0,0,0,0,0,0,0,0,0,0,0,0,0,0,0,0,0,0,0,0,0,0,0,0,0,0]","[0.00010000014304978322,0.021200000047684853,0.03230000019073742,0.04840000009536993,0.06510000014304751,0.08170000004768241,0.09890000009536948,0.11549999999999727,0.1319999999999979,0.14840000009536425,0.1652000000476832,0.1819000000953679,0.19860000014305257,0.21530000019073725,0.2321000001430491,0.24860000014304973,0.2654000000953687,0.2827000000476829,0.3033000001907382,0.3203000001907341,0.3366000001430507,0.354100000143049,0.37090000009536794,0.3869000000953662,0.4039000000953692,0.42070000004768104,0.4366000001430521,0.45480000019073685,0.4721000001430511,0.4883000001907334,0.504800000190734,0.5204999999999984,0.5376000001430512,0.5544000000953702,0.5703000001907341,0.5870000000000033,0.6064999999999969,0.6217000000476816,0.6373000001907343,0.6546000001430485,0.6715000000000018,0.6820000000000022,0.6985000000000028,0.7148000001907349,0.7318000001907379,0.7528000001907316,0.7702000000476801,0.7817000000476853,0.7983000001907357,0.8196000001430477,0.8359999999999985,0.848200000047683,0.8695000000000022,0.8863000001907366,0.898100000143053,0.9191000001430538,0.9314000000953655,0.9482000000476845,0.9649999999999963,0.9859999999999971,0.9981000001430544,1.014800000190732,1.0315000000000012,1.0482000000476859,1.0649000000953706,1.085600000143053,1.098200000047683,1.1149000000953677,1.1316000001430524,1.1524000000953691,1.1647000000476808,1.1817000000476838,1.1982000000476845,1.2149000000953691,1.231499999999997,1.2479999999999976,1.264800000190732,1.281400000095367,1.2981000001430516,1.3148000001907363,1.3318000001907322]",13,0,13,0,1,0.2826,,,,
L000000000-1,2025-04-25_10h29.38.041,GoFitts,2023.2.3,Win32,59.88023952,"[-13.540975292261615,128.83377399620036]","[40.031120279704524,-123.20311985952912]",20,259.0868529,4.75,0,0.637,"[-7.5,-7.5,-7.5,-7.5,-7.5,-7.5,-7.5,-7.5,-7.5,-7.5,-7.5,-7.5,-9,-10,-10,-10,-7,0.5,4,5,5,5,4.5,4.5,4.5,4.5,4.5,4.5,4.5,4.5,13.5,21.5,24,26,26,26,26.5,27,31.5,35,36.5,37,37,37,37,37,38.5,40,40,40,40,40,40,40,40,40,40,40,40,40,40,40,40,40,40,40,40,40,40,40,40,40,40,40,40,40,40,40,40,40,40,40,40]","[132,132,132,132,132,132,132,132,132,132,132,132,131.5,129.5,112.5,19,-58,-110,-130.5,-138,-141,-141,-142,-142,-142,-142,-142,-142,-142,-142,-130,-120,-118.5,-118.5,-118.5,-118.5,-119,-120,-125,-128.5,-129.5,-130,-130,-130,-130,-130,-128,-125.5,-125.5,-125.5,-125.5,-125.5,-125.5,-125.5,-125.5,-125.5,-125.5,-125.5,-125.5,-125.5,-125.5,-125.5,-125.5,-125.5,-125.5,-125.5,-125.5,-125.5,-125.5,-125.5,-125.5,-125.5,-125.5,-125.5,-125.5,-125.5,-125.5,-125.5,-125.5,-125.5,-125.5,-125.5,-125.5]","[0,0,0,0,0,0,0,0,0,0,0,0,0,0,0,0,0,0,0,0,0,0,0,0,0,0,0,0,0,0,0,0,0,0,0,0,0,0,0,0,0,0,0,0,0,0,0,0,0,0,0,0,0,0,0,0,0,0,0,0,0,0,0,0,0,0,0,0,0,0,0,0,0,0,0,0,0,0,0,0,0,0,0]","[0,0,0,0,0,0,0,0,0,0,0,0,0,0,0,0,0,0,0,0,0,0,0,0,0,0,0,0,0,0,0,0,0,0,0,0,0,0,0,0,0,0,0,0,0,0,0,0,0,0,0,0,0,0,0,0,0,0,0,0,0,0,0,0,0,0,0,0,0,0,0,0,0,0,0,0,0,0,0,0,0,0,0]","[0,0,0,0,0,0,0,0,0,0,0,0,0,0,0,0,0,0,0,0,0,0,0,0,0,0,0,0,0,0,0,0,0,0,0,0,0,0,0,0,0,0,0,0,0,0,0,0,0,0,0,0,0,0,0,0,0,0,0,0,0,0,0,0,0,0,0,0,0,0,0,0,0,0,0,0,0,0,0,0,0,0,0]","[0,0.019900000095368853,0.03670000004768781,0.04829999995232015,0.06929999995231384,0.08160000014304813,0.09829999995232441,0.11479999995231793,0.1316000001430453,0.14840000009537135,0.16950000000000642,0.18160000014305666,0.20310000014304563,0.21520000004768036,0.23220000004769048,0.2534999999999954,0.26979999995231907,0.28699999999999903,0.29870000004768116,0.3204000000953684,0.337100000143046,0.35300000000000153,0.371100000143052,0.3869000000953733,0.4026000001430461,0.4192000000476881,0.4315000000000069,0.44829999995231873,0.46490000009536203,0.48150000000000404,0.5032000000476913,0.5200000000000031,0.536999999999999,0.5536000001430565,0.5696000001430477,0.5817999999523167,0.5984000000953742,0.6151000001430518,0.6370000000000076,0.6532000000476827,0.6652000000476832,0.6854000000953633,0.7034999999999982,0.7207999999523125,0.731500000000004,0.7482999999523159,0.7651000001430575,0.7864000000953624,0.8022000000476837,0.8192000000476796,0.8317000000476824,0.8482999999523244,0.8651000001430518,0.8814999999999955,0.8982999999523216,0.9149999999999991,0.9315000000000069,0.9527000000476917,0.964900000095362,0.9852000000476906,0.9982999999523159,1.0150000000000077,1.0319000000953693,1.048499999999997,1.0651000001430546,1.0814999999999984,1.0982000000476901,1.115000000000002,1.1316000001430453,1.1485000000000056,1.1649999999999991,1.181799999952311,1.1982000000476845,1.2196000001430534,1.231700000047688,1.2482000000476816,1.2649000000953734,1.281600000143051,1.2984000000953628,1.3152000000476889,1.3316000001430481,1.3482000000476901,1.365000000000002]",14,0,14,0,1,0.2321,,,,
L000000000-1,2025-04-25_10h29.38.041,GoFitts,2023.2.3,Win32,59.88023952,,,,,,0,,,,,,,,,,,,,,0,0,0,1
L000000000-1,2025-04-25_10h29.38.041,GoFitts,2023.2.3,Win32,59.88023952,"[38.5,-102]","[121.89662837468663,-375.15924638594316]",20,788.9315513,6.32,1,1.1826,"[38.5,38.5,38.5,38.5,38.5,38.5,38.5,38.5,38.5,38.5,38.5,38.5,38.5,38.5,38.5,38.5,38.5,38.5,38.5,38.5,38.5,38.5,38.5,38.5,38.5,36.5,32.5,27,23,21,18,17,16.5,14,15,24.5,40.5,58.5,71.5,77,78,78,78,78,78,78,79,80.5,81.5,86,100,110.5,117,120.5,121,121,121,121,121,121,121,121,121.5,122.5,122.5,122.5,122.5,122.5,122.5,122.5,122.5,122.5,122.5,122.5,122.5,122.5,122.5,122.5,122.5,122.5,122.5,122.5,122.5,122.5,122.5,122.5,122.5,122.5,122.5,122.5,122.5,122.5,122.5,122.5,122.5,122.5,122.5,122.5,122.5,122.5,122.5,122.5,122.5,122.5,122.5,122.5,122.5,122.5,122.5,122.5,122.5,122.5,122.5,122.5,122.5]","[-102,-102,-102,-102,-102,-102,-102,-102,-102,-102,-102,-102,-102,-102,-102,-102,-102,-102,-102,-102,-102,-102,-102,-102,-102,-101.5,-87,-71.5,-57.5,-40,-22.5,-16.5,-16,-21.5,-54.5,-115,-230.5,-288,-329.5,-350,-362,-365,-366,-366,-366,-366,-366.5,-366.5,-367.5,-376.5,-392.5,-399.5,-399.5,-399.5,-395,-390.5,-388.5,-388.5,-388.5,-388.5,-388.5,-388.5,-387.5,-387,-385.5,-385.5,-385.5,-385.5,-385.5,-385.5,-385.5,-384.5,-382.5,-382.5,-382.5,-382.5,-382.5,-382.5,-382.5,-381.5,-380,-380,-380,-380,-380,-380,-380,-380,-380,-380,-380,-380,-380,-380,-380,-380,-380,-380,-380,-380,-380,-380,-380,-380,-380,-380,-380,-380,-380,-380,-380,-380,-380,-380,-380]","[0,0,0,0,0,0,0,0,0,0,0,0,0,0,0,0,0,0,0,0,0,0,0,0,0,0,0,0,0,0,0,0,0,0,0,0,0,0,0,0,0,0,0,0,0,0,0,0,0,0,0,0,0,0,0,0,0,0,0,0,0,0,0,0,0,0,0,0,0,0,0,0,0,0,0,0,0,0,0,0,0,0,0,0,0,0,0,0,0,0,0,0,0,0,0,0,0,0,0,0,0,0,0,0,0,0,0,0,0,0,0,0,0,0,0]","[0,0,0,0,0,0,0,0,0,0,0,0,0,0,0,0,0,0,0,0,0,0,0,0,0,0,0,0,0,0,0,0,0,0,0,0,0,0,0,0,0,0,0,0,0,0,0,0,0,0,0,0,0,0,0,0,0,0,0,0,0,0,0,0,0,0,0,0,0,0,0,0,0,0,0,0,0,0,0,0,0,0,0,0,0,0,0,0,0,0,0,0,0,0,0,0,0,0,0,0,0,0,0,0,0,0,0,0,0,0,0,0,0,0,0]","[0,0,0,0,0,0,0,0,0,0,0,0,0,0,0,0,0,0,0,0,0,0,0,0,0,0,0,0,0,0,0,0,0,0,0,0,0,0,0,0,0,0,0,0,0,0,0,0,0,0,0,0,0,0,0,0,0,0,0,0,0,0,0,0,0,0,0,0,0,0,0,0,0,0,0,0,0,0,0,0,0,0,0,0,0,0,0,0,0,0,0,0,0,0,0,0,0,0,0,0,0,0,0,0,0,0,0,0,0,0,0,0,0,0,0]","[0,0.02019999980926457,0.031099999904625975,0.04800000000000182,0.06429999995231128,0.08099999999998886,0.09769999980926514,0.11439999985694271,0.13519999980925945,0.14759999990462802,0.16879999995231287,0.18109999990463166,0.19769999980925945,0.21429999995231697,0.23089999985694476,0.24759999990462234,0.26459999990463245,0.28600000000000136,0.2980000000000018,0.31449999999999534,0.3317999999523096,0.3481999998092675,0.3700999999046246,0.38169999980925695,0.4025999999046235,0.41489999985694226,0.43719999980926616,0.4536999998092597,0.4732999999523173,0.4871999998092633,0.5041999998092592,0.5201999998092646,0.5358999998569516,0.5478999998569378,0.5644999999999953,0.5812999999523072,0.602499999999992,0.621699999809266,0.6372999999523188,0.6551999998092555,0.6713999998569449,0.6881999998092567,0.7046999998092645,0.7207999999523054,0.7378999998569498,0.7475999999046223,0.7645999999046325,0.7857999999523173,0.8029999999999973,0.8192999999523067,0.8358999998569487,0.8521999998092582,0.8691999998092541,0.8855999999046276,0.9028999998569418,0.9192999999523153,0.9361999998092614,0.9522999999523165,0.9690999999046284,0.9857999999523059,0.9975999999046223,1.0143999998569484,1.0355999999046333,1.0525999999046292,1.069199999809257,1.0851999998092623,1.0975999999046309,1.1141999998092587,1.1307999999523162,1.147799999952312,1.1644999999999897,1.1825999999046246,1.204499999999996,1.2202999999523172,1.2307999999523105,1.2479999999999905,1.2696999998092622,1.280899999856942,1.2978999998569378,1.3144999999999953,1.3355999999046304,1.3519999999999897,1.3642999999523084,1.3810999999046345,1.4022999999523051,1.4184999999999945,1.4310999999046317,1.4512999999523117,1.464500000000001,1.4849999999999994,1.4979999999999905,1.5141999998092643,1.5309999999999917,1.5475999999046337,1.5641999998092615,1.5809999999999889,1.5976999998092651,1.6142999999523084,1.6308999998569504,1.6518999998569512,1.6642999999523056,1.6810999999046317,1.697499999999991,1.7188999998569443,1.7350999999046337,1.7475000000000023,1.7691999998092598,1.7857999999523173,1.7977999999523178,1.8183999998569504,1.8309999999999889,1.8474999999999966,1.8641999998092587,1.8808999998569504,1.8976999998092623]",0,0,0,0,1,0.4148,,,,
L000000000-1,2025-04-25_10h29.38.041,GoFitts,2023.2.3,Win32,59.88023952,"[121.89662837468663,-375.15924638594316]","[-197.23288782425786,341.6173826351478]",20,788.9315513,6.32,1,1.288,"[122.5,122.5,122.5,122.5,122.5,122.5,122.5,122.5,122.5,122.5,122.5,122.5,122.5,122.5,122.5,122.5,122.5,122.5,122.5,122.5,109.5,79.5,37,-0.5,-28,-42,-48.5,-50.5,-53.5,-58,-63,-73,-78,-104,-125,-147.5,-161.5,-173.5,-188,-194.5,-199.5,-201,-203,-203,-203,-202.5,-202,-201,-199,-196.5,-196,-192.5,-189.5,-188.5,-188.5,-188.5,-190,-192,-197,-198.5,-204,-204.5,-205.5,-207,-207,-207.5,-207.5,-207.5,-207.5,-207.5,-207.5,-207.5,-207.5,-207.5,-207.5,-207.5,-207.5,-206.5,-206.5,-206.5,-206.5,-206.5,-206.5,-206.5,-206.5,-206.5,-206.5,-206.5,-206.5,-206.5,-206.5,-206.5,-206.5,-206.5,-206.5,-206,-206,-206,-206,-206,-206,-206,-206,-206,-206,-206,-206,-206,-206,-206,-206,-206,-206,-206,-206,-206,-206,-206,-206,-206,-206]","[-380,-380,-380,-380,-380,-380,-380,-380,-380,-380,-380,-380,-380,-380,-380,-380,-380,-380,-380,-376.5,-321,-243.5,-169,-105,-55,-24.5,-5.5,13.5,22.5,37,47.5,58.5,64.5,85,98.5,113,128,147.5,175,198.5,211.5,218.5,233,246,251.5,260,262.5,263,263,263.5,264,267.5,274,280.5,284.5,291.5,299,305,315.5,320,331,337.5,341.5,346,349,351.5,351.5,351.5,352.5,352.5,352.5,352.5,352.5,352.5,351.5,349,346.5,345,345,345,343.5,343.5,343.5,343.5,343.5,343.5,343.5,343.5,343.5,343.5,343.5,343.5,343.5,343.5,343.5,343,343,343,343,343,343,343,343,343,343,343,343,343,343,343,343,343,343,343,343,343,343,343,343,343,343]","[0,0,0,0,0,0,0,0,0,0,0,0,0,0,0,0,0,0,0,0,0,0,0,0,0,0,0,0,0,0,0,0,0,0,0,0,0,0,0,0,0,0,0,0,0,0,0,0,0,0,0,0,0,0,0,0,0,0,0,0,0,0,0,0,0,0,0,0,0,0,0,0,0,0,0,0,0,0,0,0,0,0,0,0,0,0,0,0,0,0,0,0,0,0,0,0,0,0,0,0,0,0,0,0,0,0,0,0,0,0,0,0,0,0,0,0,0,0,0,0,0]","[0,0,0,0,0,0,0,0,0,0,0,0,0,0,0,0,0,0,0,0,0,0,0,0,0,0,0,0,0,0,0,0,0,0,0,0,0,0,0,0,0,0,0,0,0,0,0,0,0,0,0,0,0,0,0,0,0,0,0,0,0,0,0,0,0,0,0,0,0,0,0,0,0,0,0,0,0,0,0,0,0,0,0,0,0,0,0,0,0,0,0,0,0,0,0,0,0,0,0,0,0,0,0,0,0,0,0,0,0,0,0,0,0,0,0,0,0,0,0,0,0]","[0,0,0,0,0,0,0,0,0,0,0,0,0,0,0,0,0,0,0,0,0,0,0,0,0,0,0,0,0,0,0,0,0,0,0,0,0,0,0,0,0,0,0,0,0,0,0,0,0,0,0,0,0,0,0,0,0,0,0,0,0,0,0,0,0,0,0,0,0,0,0,0,0,0,0,0,0,0,0,0,0,0,0,0,0,0,0,0,0,0,0,0,0,0,0,0,0,0,0,0,0,0,0,0,0,0,0,0,0,0,0,0,0,0,0,0,0,0,0,0,0]","[0,0.019899999856946238,0.03189999985694669,0.053099999904631545,0.06939999985694101,0.08189999985694385,0.09859999990462143,0.11519999980926343,0.131899999856941,0.1485999999046328,0.17019999980925604,0.18229999995230628,0.20289999985693896,0.21519999980925775,0.23189999985694953,0.2485999999046271,0.2652999999523047,0.2819999999999965,0.29859999990462427,0.3155000000000001,0.33709999990462336,0.35379999995231515,0.3701999998092589,0.3866999998092666,0.4032999999523099,0.4203999998569401,0.43689999985694783,0.4531999998092573,0.47009999990463314,0.48659999990462666,0.5035999999046226,0.5203999998569486,0.532199999809265,0.553799999952318,0.5704999999999956,0.5870999999046234,0.5990999999046238,0.6198999998569406,0.6323999998569434,0.6532999999523099,0.6698999998569377,0.6821999998092565,0.7043999998569461,0.7203999998569373,0.7321999998092537,0.7487999999523112,0.7654999999999887,0.782199999809265,0.7987999999523083,0.8155000000000001,0.8319999999999936,0.8534999999999968,0.8703999998569429,0.8875999999046229,0.8990000000000009,0.9204999999999899,0.9373999998569502,0.9538999998569437,0.9707999999523054,0.9825000000000017,1.0028999998569503,1.0211999998092551,1.0374999999999943,1.0542999999523062,1.0703999998569458,1.086999999999989,1.1045999999046217,1.1197999999523063,1.137599999904623,1.154199999809265,1.1698999998569377,1.1820999999046222,1.1984999999999957,1.2152999999523075,1.232699999809256,1.254099999904625,1.265799999952307,1.2879999999999967,1.3029999999999973,1.3151999998092663,1.332099999904628,1.3485000000000014,1.3650999999046292,1.381699999809257,1.3983999998569487,1.4193999998569495,1.4318999998569382,1.452899999856939,1.4652999999523075,1.4863999998569426,1.4984999999999928,1.515199999809255,1.5351999998092651,1.5485999999046243,1.5697999999523091,1.582099999904628,1.6029999999999944,1.6153999998569475,1.6319999999999908,1.6485999999046328,1.665899999856947,1.6855999999046247,1.7019999999999982,1.7152999999523075,1.7319999999999993,1.7485999999046271,1.765199999809255,1.7819999999999965,1.8028999998569475,1.815099999904632,1.836500000000001,1.8485000000000014,1.8653999998569475,1.8819999999999908,1.904199999809265,1.9154999999999944,1.9318999998569382,1.9484999999999957,1.9694999999999965,1.9861999998092585,2.0028999998569503]",1,0,1,0,1,0.3371,,,,
L000000000-1,2025-04-25_10h29.38.041,GoFitts,2023.2.3,Win32,59.88023952,"[-197.23288782425786,341.6173826351478]","[263.9491236475089,-293.1452000011212]",20,788.9315513,6.32,1,1.2622,"[-206,-206,-206,-206,-206,-206,-206,-206,-206,-206,-206,-206,-206,-206,-206,-206,-206,-206,-205,-189.5,-144.5,-85,-15.5,78.5,188,292,363,402,414.5,414.5,414.5,412,402,396.5,392.5,387.5,387.5,386.5,386.5,385,384,379,370.5,358.5,344,335.5,332,331.5,331.5,331.5,331.5,331.5,331.5,329.5,324.5,324.5,319.5,316.5,315,312.5,309,305,302,299.5,299.5,298.5,298.5,296,287.5,283.5,280,274.5,274.5,274.5,274.5,274.5,273.5,270,267.5,267.5,267.5,267.5,267.5,267.5,267.5,267.5,267.5,267.5,267.5,267.5,267.5,267.5,267.5,267.5,267.5,267.5,267.5,267.5,267.5,267.5,267.5,267.5,267.5,267.5,267.5,267.5,267.5,267.5,267.5,267.5,267.5,267.5,267.5,267.5,267.5,267.5,267.5,267.5,267.5,267.5]","[343,343,343,343,343,343,343,343,343,343,343,343,343,343,343,343,343,343,343,327.5,295.5,257,214.5,154.5,94.5,37.5,-14.5,-50,-84.5,-106,-116.5,-138,-171,-190,-198.5,-208.5,-211,-218,-224,-227,-229,-233,-242.5,-261,-278.5,-289.5,-291,-291,-291,-291,-291,-291,-291,-291,-291,-291,-291,-291,-291,-289.5,-289.5,-289.5,-289.5,-289.5,-289.5,-289.5,-289.5,-289.5,-290,-290,-290,-290,-290,-290,-290,-290,-290.5,-293,-293.5,-293.5,-293.5,-293.5,-293.5,-293.5,-293.5,-293.5,-293.5,-293.5,-293.5,-293.5,-293.5,-293.5,-293.5,-293.5,-293.5,-293.5,-293.5,-293.5,-293.5,-293.5,-293.5,-293.5,-293.5,-293.5,-293.5,-293.5,-293.5,-293.5,-293.5,-293.5,-293.5,-293.5,-293.5,-293.5,-293.5,-293.5,-293.5,-293.5,-293.5,-293.5]","[0,0,0,0,0,0,0,0,0,0,0,0,0,0,0,0,0,0,0,0,0,0,0,0,0,0,0,0,0,0,0,0,0,0,0,0,0,0,0,0,0,0,0,0,0,0,0,0,0,0,0,0,0,0,0,0,0,0,0,0,0,0,0,0,0,0,0,0,0,0,0,0,0,0,0,0,0,0,0,0,0,0,0,0,0,0,0,0,0,0,0,0,0,0,0,0,0,0,0,0,0,0,0,0,0,0,0,0,0,0,0,0,0,0,0,0,0,0,0,0]","[0,0,0,0,0,0,0,0,0,0,0,0,0,0,0,0,0,0,0,0,0,0,0,0,0,0,0,0,0,0,0,0,0,0,0,0,0,0,0,0,0,0,0,0,0,0,0,0,0,0,0,0,0,0,0,0,0,0,0,0,0,0,0,0,0,0,0,0,0,0,0,0,0,0,0,0,0,0,0,0,0,0,0,0,0,0,0,0,0,0,0,0,0,0,0,0,0,0,0,0,0,0,0,0,0,0,0,0,0,0,0,0,0,0,0,0,0,0,0,0]","[0,0,0,0,0,0,0,0,0,0,0,0,0,0,0,0,0,0,0,0,0,0,0,0,0,0,0,0,0,0,0,0,0,0,0,0,0,0,0,0,0,0,0,0,0,0,0,0,0,0,0,0,0,0,0,0,0,0,0,0,0,0,0,0,0,0,0,0,0,0,0,0,0,0,0,0,0,0,0,0,0,0,0,0,0,0,0,0,0,0,0,0,0,0,0,0,0,0,0,0,0,0,0,0,0,0,0,0,0,0,0,0,0,0,0,0,0,0,0,0]","[0,0.015400000095368682,0.027299999952319354,0.044100000143046714,0.06079999995232299,0.0774000000953663,0.0944000000953622,0.11079999995232015,0.12740000009536345,0.14410000014305524,0.16100000000000136,0.18220000004768622,0.1941000001430524,0.21060000014304592,0.22750000000000625,0.24770000004768633,0.26110000014304546,0.2814999999999941,0.29440000009536504,0.3160000000000025,0.3327000000476801,0.3489000000953695,0.36599999999999966,0.38220000004768906,0.39920000004768497,0.41590000009536254,0.4322999999523205,0.44429999995232095,0.46570000004768985,0.48279999995232004,0.49450000000000216,0.5111000001430455,0.5324000000953646,0.5492999999523107,0.5609000000953728,0.5819000000953736,0.5990000000000038,0.6112000000476883,0.6312999999523186,0.6491000001430507,0.6654000000953744,0.6822000000476862,0.6989999999999981,0.7157000000476899,0.73279999995232,0.7494000000953633,0.7664000000953735,0.782900000095367,0.7990000000000066,0.8109000000953728,0.8317000000476895,0.8481000001430488,0.8609000000953699,0.8779000000953658,0.8991000001430507,0.9107999999523173,0.9274999999999949,0.9491000001430479,0.9664000000953621,0.9822999999523176,0.9989999999999952,1.015700000047687,1.0322000000476805,1.0490000000000066,1.0657999999523184,1.0826000001430458,1.0942999999523124,1.11090000009537,1.132200000047689,1.1442000000476895,1.1612000000476854,1.1822999999523205,1.1992999999523164,1.216100000143058,1.2275000000000063,1.2447000000476862,1.2622000000476845,1.2827999999523172,1.3002999999523155,1.31560000014305,1.3316000001430552,1.349299999952322,1.3607999999523201,1.3774999999999977,1.3982999999523145,1.4110000000000014,1.431799999952318,1.4441000001430524,1.4651000001430532,1.4775000000000063,1.4941000001430496,1.5107000000476773,1.5307000000476876,1.543999999999997,1.560799999952323,1.582299999952312,1.5942000000476781,1.6116000001430564,1.6274999999999977,1.6447000000476777,1.6612000000476854,1.678100000143047,1.694700000047689,1.7152999999523217,1.7281000001430584,1.7447000000476862,1.7662000000476894,1.778400000095374,1.7994000000953747,1.8112999999523112,1.8281000001430527,1.8447000000476805,1.8614000000953723,1.877799999952316,1.8944999999999936,1.9112000000476854,1.927700000047679,1.944500000000005,1.961500000000001,1.9781000001430584]",2,0,2,0,1,0.316,,,,
L000000000-1,2025-04-25_10h29.38.041,GoFitts,2023.2.3,Win32,59.88023952,"[263.9491236475089,-293.1452000011212]","[-319.1295161989446,231.86116546030905]",20,788.9315513,6.32,1,1.2865,"[267.5,267.5,267.5,267.5,267.5,267.5,267.5,267.5,267.5,267.5,267.5,267.5,267.5,267.5,267.5,267.5,267.5,267.5,267.5,261.5,200.5,101,-24,-146,-245,-313,-348,-364,-377,-395,-408.5,-417.5,-420.5,-425,-441.5,-458,-474.5,-477,-477,-476,-462.5,-440.5,-431.5,-428,-425,-425,-419.5,-388.5,-352,-317.5,-297,-294.5,-294.5,-294.5,-294.5,-294.5,-294,-294,-294,-296.5,-301,-304,-306,-306.5,-307,-307,-307,-307,-307.5,-307.5,-307.5,-307.5,-307.5,-307.5,-307.5,-308.5,-310,-310.5,-311.5,-311.5,-311.5,-311.5,-311.5,-311.5,-311.5,-311.5,-311.5,-311.5,-311.5,-311.5,-311.5,-311.5,-311.5,-311.5,-311.5,-311.5,-311.5,-311.5,-311.5,-311.5,-311.5,-311.5,-311.5,-311.5,-311.5,-311.5,-311.5,-311.5,-311.5,-311.5,-311.5,-311.5,-311.5,-311.5,-311.5,-311.5,-311.5,-311.5,-311.5,-311.5,-311.5]","[-293.5,-293.5,-293.5,-293.5,-293.5,-293.5,-293.5,-293.5,-293.5,-293.5,-293.5,-293.5,-293.5,-293.5,-293.5,-293.5,-293.5,-293.5,-293.5,-277.5,-220,-133,-45,42.5,101.5,147,177.5,199,215.5,236.5,245.5,250.5,251,251,255,258.5,263.5,263.5,263.5,263.5,259.5,255.5,254,254,252,252,249,234.5,218,205,199.5,198.5,198.5,198.5,198.5,198.5,198.5,199.5,202.5,208,213.5,219,221.5,224,225,225,225,225,225.5,225.5,225.5,225.5,225.5,225.5,225.5,226,227.5,228.5,229.5,229.5,229.5,229.5,229.5,229.5,229.5,229.5,229.5,229.5,229.5,229.5,229.5,229.5,229.5,229.5,229.5,229.5,229.5,229.5,229.5,229.5,229.5,229.5,229.5,229.5,229.5,229.5,229.5,229.5,229.5,229.5,229.5,229.5,229.5,229.5,229.5,229.5,229.5,229.5,229.5,229.5,229.5]","[0,0,0,0,0,0,0,0,0,0,0,0,0,0,0,0,0,0,0,0,0,0,0,0,0,0,0,0,0,0,0,0,0,0,0,0,0,0,0,0,0,0,0,0,0,0,0,0,0,0,0,0,0,0,0,0,0,0,0,0,0,0,0,0,0,0,0,0,0,0,0,0,0,0,0,0,0,0,0,0,0,0,0,0,0,0,0,0,0,0,0,0,0,0,0,0,0,0,0,0,0,0,0,0,0,0,0,0,0,0,0,0,0,0,0,0,0,0,0,0,0]","[0,0,0,0,0,0,0,0,0,0,0,0,0,0,0,0,0,0,0,0,0,0,0,0,0,0,0,0,0,0,0,0,0,0,0,0,0,0,0,0,0,0,0,0,0,0,0,0,0,0,0,0,0,0,0,0,0,0,0,0,0,0,0,0,0,0,0,0,0,0,0,0,0,0,0,0,0,0,0,0,0,0,0,0,0,0,0,0,0,0,0,0,0,0,0,0,0,0,0,0,0,0,0,0,0,0,0,0,0,0,0,0,0,0,0,0,0,0,0,0,0]","[0,0,0,0,0,0,0,0,0,0,0,0,0,0,0,0,0,0,0,0,0,0,0,0,0,0,0,0,0,0,0,0,0,0,0,0,0,0,0,0,0,0,0,0,0,0,0,0,0,0,0,0,0,0,0,0,0,0,0,0,0,0,0,0,0,0,0,0,0,0,0,0,0,0,0,0,0,0,0,0,0,0,0,0,0,0,0,0,0,0,0,0,0,0,0,0,0,0,0,0,0,0,0,0,0,0,0,0,0,0,0,0,0,0,0,0,0,0,0,0,0]","[0,0.02170000004768724,0.031999999999996476,0.04840000009536993,0.06510000014304751,0.0818000001907393,0.09840000009536709,0.11520000004767894,0.13249999999999318,0.14880000019073236,0.1664999999999992,0.18760000014304978,0.19870000004767974,0.2155000000000058,0.231700000047681,0.24890000009536095,0.2654000000953687,0.2819000000953622,0.29830000019073566,0.31540000009536584,0.3366000001430507,0.3534999999999968,0.3703000001907384,0.3867000000476821,0.403499999999994,0.42020000004768576,0.43690000009536334,0.45340000009537107,0.4651000001430532,0.4866000001430564,0.5034000000953682,0.5198000001907275,0.5316000001430439,0.5485000000000042,0.5701000001430572,0.5866000001430507,0.6044000000953673,0.6195000000000022,0.6364999999999981,0.6484000000953642,0.6699000000953674,0.6867000000476793,0.7037000000476894,0.7199000000953646,0.7371000001430446,0.7484999999999928,0.7651000001430504,0.7867000000476878,0.8032000000476813,0.8199000000953731,0.8364000000953666,0.8529999999999944,0.8694000000953679,0.8816000001430524,0.8982000000476802,0.914900000095372,0.9318000001907336,0.9535000000000053,0.9696000001430463,0.9868000001907404,1.0030000000000001,1.0197000000476777,1.0363000001907352,1.0532000000476813,1.0696000001430548,1.0863000001907324,1.0983000001907328,1.1148000001907405,1.1359999999999957,1.14830000019073,1.1656000001430442,1.1859000000953728,1.1982000000476773,1.2192000000476781,1.2313000001907284,1.2529000000953658,1.2650000000000006,1.2865000000000038,1.302700000047679,1.3196000001430548,1.331300000190737,1.3481000001430488,1.3647000000476766,1.3817000000476867,1.39830000019073,1.4148000001907377,1.4314000000953655,1.4479999999999933,1.468999999999994,1.4814000000953627,1.4980000000000047,1.514800000190732,1.531499999999994,1.5483000001907357,1.5649999999999977,1.5816000001430552,1.598200000047683,1.6147000000476766,1.6314000000953683,1.6482000000476802,1.6650000000000063,1.6814000000953655,1.6983000001907271,1.7148000001907349,1.7316000001430467,1.7482000000476887,1.7697000000476777,1.7813000001907398,1.7980000000000018,1.8149999999999977,1.8359000000953642,1.8481000001430488,1.8647000000476766,1.8814000000953683,1.8979999999999961,1.914700000047688,1.9353000001907361,1.9481000001430573,1.964700000047685,1.9814000000953627,1.9984000000953728]",3,0,3,0,1,0.3153,,,,
L000000000-1,2025-04-25_10h29.38.041,GoFitts,2023.2.3,Win32,59.88023952,"[-319.1295161989446,231.86116546030905]","[360.362417539167,-160.44368539556908]",20,788.9315513,6.32,1,0.9379,"[-311.5,-311.5,-311.5,-311.5,-311.5,-311.5,-311.5,-311.5,-311.5,-311.5,-311.5,-312.5,-312.5,-312.5,-312.5,-312.5,-313.5,-313.5,-269.5,-246,-181.5,-41,49,133,206.5,263,311,336.5,353,369.5,373,374,374,389.5,401,427.5,448.5,449.5,449.5,445.5,434,423,418,415.5,415.5,415.5,415.5,415.5,415.5,410,408,406.5,404.5,401,399.5,383.5,369,359,356,355,355,355,355,355,355,355,355,355,356.5,356.5,358,358,358,358,358,358,358,358,358,358,358,358,358,358,358,358,358,358,358,358,358,358,358,358,358,358,358,358,358,358,358]","[229.5,229.5,229.5,229.5,229.5,229.5,229.5,229.5,229.5,229.5,229.5,230,230,230,230,230,229.5,223.5,193.5,181,153,82,35,-3,-26.5,-41,-51.5,-54,-57,-59,-60.5,-61,-61,-74.5,-82.5,-100.5,-115,-117,-119,-129,-152,-179,-193,-198,-198,-198,-198,-196.5,-189.5,-183.5,-181.5,-179.5,-177.5,-174.5,-172,-164,-157.5,-156,-156,-155.5,-155.5,-155.5,-155.5,-155.5,-155.5,-155.5,-155.5,-155.5,-157,-157,-158,-158,-158,-158,-158,-158,-158,-158,-158,-158,-158,-158,-158,-158,-158,-158,-158,-158,-158,-158,-158,-158,-158,-158,-158,-158,-158,-158,-158,-158,-158]","[0,0,0,0,0,0,0,0,0,0,0,0,0,0,0,0,0,0,0,0,0,0,0,0,0,0,0,0,0,0,0,0,0,0,0,0,0,0,0,0,0,0,0,0,0,0,0,0,0,0,0,0,0,0,0,0,0,0,0,0,0,0,0,0,0,0,0,0,0,0,0,0,0,0,0,0,0,0,0,0,0,0,0,0,0,0,0,0,0,0,0,0,0,0,0,0,0,0,0,0,0]","[0,0,0,0,0,0,0,0,0,0,0,0,0,0,0,0,0,0,0,0,0,0,0,0,0,0,0,0,0,0,0,0,0,0,0,0,0,0,0,0,0,0,0,0,0,0,0,0,0,0,0,0,0,0,0,0,0,0,0,0,0,0,0,0,0,0,0,0,0,0,0,0,0,0,0,0,0,0,0,0,0,0,0,0,0,0,0,0,0,0,0,0,0,0,0,0,0,0,0,0,0]","[0,0,0,0,0,0,0,0,0,0,0,0,0,0,0,0,0,0,0,0,0,0,0,0,0,0,0,0,0,0,0,0,0,0,0,0,0,0,0,0,0,0,0,0,0,0,0,0,0,0,0,0,0,0,0,0,0,0,0,0,0,0,0,0,0,0,0,0,0,0,0,0,0,0,0,0,0,0,0,0,0,0,0,0,0,0,0,0,0,0,0,0,0,0,0,0,0,0,0,0,0]","[0,0.01940000009537357,0.03210000014304626,0.052499999999994884,0.06499999999999773,0.08660000014305069,0.09820000004768303,0.11529999995231321,0.13150000000000261,0.14840000009536425,0.16529999995232458,0.18679999995231356,0.19860000014304546,0.2151000001430532,0.23190000009536504,0.2527000000476818,0.2652000000476846,0.2822999999523148,0.30349999999999966,0.31529999995231606,0.33200000000000784,0.35379999995231515,0.37050000000000693,0.38700000000000045,0.4035000000000082,0.42070000004768815,0.4366000001430592,0.4536000001430551,0.4702999999523172,0.4869000000953747,0.5032999999523184,0.5187999999523214,0.5319000000953622,0.5529999999999973,0.5654000000953658,0.5821000001430576,0.6034000000953625,0.6202999999523229,0.6319000000953707,0.6486000001430483,0.6654000000953744,0.6820000000000022,0.6987000000476797,0.7205000000000013,0.7367999999523107,0.7484000000953728,0.7652999999523189,0.7821000001430463,0.798600000143054,0.8197000000476891,0.8367999999523192,0.8539999999999992,0.870700000047691,0.8870000000000005,0.8989000000953666,0.9201000001430515,0.9379000000953681,0.9540000000000077,0.9707000000476853,0.9856000001430516,1.0032000000476842,1.015500000000003,1.035499999999999,1.0485000000000042,1.065299999952316,1.0820000000000078,1.0987000000476854,1.1152999999523132,1.1364000000953638,1.1484999999999985,1.165100000143056,1.186000000000007,1.1986000001430455,1.2197000000476805,1.2317999999523153,1.248299999952323,1.2650000000000006,1.2819000000953622,1.2982999999523201,1.3149999999999977,1.3317999999523238,1.3517000000476855,1.3649999999999949,1.3819000000953707,1.3982999999523145,1.4150000000000063,1.4317000000476838,1.4484000000953756,1.4649000000953691,1.4864000000953723,1.498299999952323,1.5150000000000006,1.5317000000476781,1.5534000000953654,1.5651000001430475,1.5819000000953736,1.5985000000000014,1.619600000143052,1.631799999952321,1.6484000000953642,1.669200000047681]",4,0,4,0,1,0.2822,,,,
L000000000-1,2025-04-25_10h29.38.041,GoFitts,2023.2.3,Win32,59.88023952,"[360.362417539167,-160.44368539556908]","[-385.8457520221955,82.01404638482185]",20,788.9315513,6.32,1,1.3331,"[358,358,358,358,358,358,358,358,358,358,358,358,358,358,358,358,358,358,317.5,214.5,63,-85.5,-204.5,-313,-335.5,-339,-338.5,-335,-333.5,-332.5,-332.5,-332.5,-332.5,-324,-298.5,-255,-215.5,-195.5,-186,-186,-189,-203.5,-224,-239,-253.5,-270,-287.5,-308,-330.5,-347,-349,-349,-349,-349,-349.5,-349.5,-353,-353,-353.5,-355,-361,-369.5,-376,-384,-387,-388,-388,-388,-388,-388,-388,-388,-388,-388,-388,-388,-388,-388,-388,-388,-388,-388,-387.5,-387.5,-387.5,-387.5,-387.5,-387.5,-387.5,-387.5,-387.5,-387.5,-387.5,-387.5,-387.5,-387.5,-387.5,-387.5,-387.5,-387.5,-387.5,-387.5,-387.5,-387.5,-387.5,-387.5,-386,-386,-386,-386,-386,-386,-386,-386,-386,-386,-386,-386,-386,-386,-386,-386,-386,-386,-386]","[-158,-158,-158,-158,-158,-158,-158,-158,-158,-158,-158,-158,-158,-158,-158,-158,-158,-158,-155.5,-142.5,-116.5,-95.5,-79.5,-62,-53,-48,-42,-34.5,-27.5,-24.5,-23,-23,-23,-16.5,-10,-4,4,16,31.5,36.5,42,46.5,51,52,52,55,57,60.5,61.5,61.5,61.5,61.5,61.5,61.5,62.5,64,68.5,69.5,71,74.5,80.5,88,92,93,93.5,94.5,94.5,94.5,94.5,94.5,94.5,94.5,94.5,94.5,94.5,94.5,94.5,94,92.5,92,86,84,81.5,81.5,81.5,81.5,81.5,81.5,81.5,81.5,81.5,81.5,81.5,81.5,81.5,81.5,81.5,81.5,81.5,81.5,81.5,81.5,81.5,81.5,81.5,81.5,81.5,81.5,81.5,81.5,81.5,81.5,81.5,81.5,81.5,81.5,81.5,81.5,81.5,81.5,81.5,81.5,81.5,81.5,81.5]","[0,0,0,0,0,0,0,0,0,0,0,0,0,0,0,0,0,0,0,0,0,0,0,0,0,0,0,0,0,0,0,0,0,0,0,0,0,0,0,0,0,0,0,0,0,0,0,0,0,0,0,0,0,0,0,0,0,0,0,0,0,0,0,0,0,0,0,0,0,0,0,0,0,0,0,0,0,0,0,0,0,0,0,0,0,0,0,0,0,0,0,0,0,0,0,0,0,0,0,0,0,0,0,0,0,0,0,0,0,0,0,0,0,0,0,0,0,0,0,0,0,0,0,0,0]","[0,0,0,0,0,0,0,0,0,0,0,0,0,0,0,0,0,0,0,0,0,0,0,0,0,0,0,0,0,0,0,0,0,0,0,0,0,0,0,0,0,0,0,0,0,0,0,0,0,0,0,0,0,0,0,0,0,0,0,0,0,0,0,0,0,0,0,0,0,0,0,0,0,0,0,0,0,0,0,0,0,0,0,0,0,0,0,0,0,0,0,0,0,0,0,0,0,0,0,0,0,0,0,0,0,0,0,0,0,0,0,0,0,0,0,0,0,0,0,0,0,0,0,0,0]","[0,0,0,0,0,0,0,0,0,0,0,0,0,0,0,0,0,0,0,0,0,0,0,0,0,0,0,0,0,0,0,0,0,0,0,0,0,0,0,0,0,0,0,0,0,0,0,0,0,0,0,0,0,0,0,0,0,0,0,0,0,0,0,0,0,0,0,0,0,0,0,0,0,0,0,0,0,0,0,0,0,0,0,0,0,0,0,0,0,0,0,0,0,0,0,0,0,0,0,0,0,0,0,0,0,0,0,0,0,0,0,0,0,0,0,0,0,0,0,0,0,0,0,0,0]","[0,0.016600000143057514,0.028499999999993975,0.04510000014305149,0.06170000004767928,0.07860000014305513,0.09510000014304865,0.11170000004767644,0.1285000000000025,0.14520000004768008,0.1617000000476878,0.1782999999523156,0.19510000014305717,0.21179999995231924,0.2286000001430466,0.24510000014305433,0.26240000009536857,0.27899999999999636,0.30179999995232265,0.3177999999523138,0.3365000000000009,0.3511000001430489,0.3676000001430566,0.3857999999523116,0.4016000001430484,0.42279999995231776,0.4369999999999976,0.45120000004767746,0.46829999995232185,0.4866000001430564,0.5002999999523183,0.5157999999523213,0.5282999999523099,0.5456000001430539,0.5665000000000049,0.5834000000953665,0.6006000001430465,0.615600000143047,0.6332999999523139,0.6454000000953641,0.6664000000953649,0.6832000000476768,0.7005000000000052,0.7167999999523147,0.7336000001430563,0.7507999999523207,0.7667999999523119,0.778499999999994,0.8002000000476812,0.8171000001430571,0.8334000000953665,0.8451000001430486,0.8617000000476764,0.8784000000953682,0.8954000000953641,0.9121000001430559,0.9332000000476768,0.9500000000000028,0.9662999999523123,0.9784999999999968,0.9952000000476886,1.0164999999999935,1.028900000095362,1.0502000000476812,1.066799999952309,1.0829999999999984,1.099600000143056,1.1117999999523107,1.1282000000476842,1.1451000001430458,1.1617000000476878,1.1782999999523156,1.1952000000476772,1.2116000001430507,1.2282999999523128,1.2450000000000045,1.2617000000476821,1.2787999999523123,1.2992999999523107,1.3117000000476793,1.3331000001430482,1.349600000143056,1.366700000047686,1.3834000000953637,1.3951000001430458,1.4117000000476878,1.4284000000953654,1.4449999999999932,1.461700000047685,1.4782000000476785,1.4951000001430543,1.5116000001430479,1.528400000095374,1.5450000000000017,1.5659000000953682,1.5782999999523213,1.5949999999999989,1.6116000001430564,1.6284000000953682,1.6451000001430458,1.6637999999523174,1.6842000000476816,1.6951000001430572,1.7131000001430436,1.7357000000476859,1.751900000095361,1.7682000000476847,1.778400000095374,1.79529999995232,1.8117000000476793,1.8282999999523213,1.849600000143056,1.862600000143047,1.886299999952314,1.902000000000001,1.9184000000953603,1.9339999999999975,1.9451000001430572,1.961900000095369,1.9784000000953625,1.9951000001430543,2.0117999999523164,2.028400000095374,2.04529999995232,2.068200000047682]",5,0,5,0,1,0.3017,,,,
L000000000-1,2025-04-25_10h29.38.041,GoFitts,2023.2.3,Win32,59.88023952,"[-385.8457520221955,82.01404638482185]","[394.4657756485159,0]",20,788.9315513,6.32,1,0.8621,"[-386,-386,-386,-386,-386,-386,-386,-386,-386,-386,-386,-386,-386,-386,-386,-386,-386,-386,-369,-314,-206.5,-73,143,210.5,362.5,419,435.5,438,438,438,438,438,438,437.5,437.5,436,435,433.5,430.5,429,425,422.5,419.5,419,418.5,416.5,416.5,414.5,413.5,410,408.5,407,404,401.5,400,400,400,400,400,400,400,400,400,400,400,400,400,400,400,400,400,400,400,400,400,400,400,400,400,400,400,400,400,400,400,400,400,400,400,400,400,400,400,400,400,400]","[81.5,81.5,81.5,81.5,81.5,81.5,81.5,81.5,81.5,81.5,81.5,81.5,81.5,81.5,81.5,81.5,81.5,81.5,80.5,73,61,55,55,55,53.5,46.5,44.5,44,44,44,40.5,37,34.5,31.5,30,27.5,26,24,19.5,16.5,11,8,4.5,4,3.5,1.5,1.5,1.5,1,-0.5,-1,-1,-2,-2,-2.5,-2.5,-2.5,-2.5,-2.5,-2.5,-2.5,-2.5,-2.5,-2.5,-2.5,-2.5,-2.5,-2.5,-2.5,-2.5,-2.5,-2.5,-2.5,-2.5,-2.5,-2.5,-2.5,-2.5,-2.5,-2.5,-2.5,-2.5,-2.5,-2.5,-2.5,-2.5,-2.5,-2.5,-2.5,-2.5,-2.5,-2.5,-2.5,-2.5,-2.5,-2.5]","[0,0,0,0,0,0,0,0,0,0,0,0,0,0,0,0,0,0,0,0,0,0,0,0,0,0,0,0,0,0,0,0,0,0,0,0,0,0,0,0,0,0,0,0,0,0,0,0,0,0,0,0,0,0,0,0,0,0,0,0,0,0,0,0,0,0,0,0,0,0,0,0,0,0,0,0,0,0,0,0,0,0,0,0,0,0,0,0,0,0,0,0,0,0,0,0]","[0,0,0,0,0,0,0,0,0,0,0,0,0,0,0,0,0,0,0,0,0,0,0,0,0,0,0,0,0,0,0,0,0,0,0,0,0,0,0,0,0,0,0,0,0,0,0,0,0,0,0,0,0,0,0,0,0,0,0,0,0,0,0,0,0,0,0,0,0,0,0,0,0,0,0,0,0,0,0,0,0,0,0,0,0,0,0,0,0,0,0,0,0,0,0,0]","[0,0,0,0,0,0,0,0,0,0,0,0,0,0,0,0,0,0,0,0,0,0,0,0,0,0,0,0,0,0,0,0,0,0,0,0,0,0,0,0,0,0,0,0,0,0,0,0,0,0,0,0,0,0,0,0,0,0,0,0,0,0,0,0,0,0,0,0,0,0,0,0,0,0,0,0,0,0,0,0,0,0,0,0,0,0,0,0,0,0,0,0,0,0,0,0]","[0,0.012200000047684512,0.027999999999991587,0.0392999999523056,0.055999999999997385,0.07270000004767496,0.08950000000000102,0.10599999999999454,0.1270999999046296,0.14439999985694385,0.16070000004768303,0.17279999995231776,0.18929999995231128,0.20600000000000307,0.22689999985693987,0.23929999995230844,0.2560000000000002,0.27299999999999613,0.29429999995231526,0.3107000000476745,0.3277999999523189,0.3443999998569467,0.36099999999999,0.3727999999523064,0.39439999985694385,0.4115999999046238,0.4282999999523156,0.44459999990462507,0.4610999999046328,0.47259999990463086,0.4898999998569451,0.51109999990463,0.5228999998569464,0.5448999998569519,0.5609999999999928,0.5777999999523189,0.5950999999046331,0.6112999999523083,0.6278999998569503,0.6444999999999936,0.6610000000000014,0.6779999999999973,0.6942999999523067,0.7112000000476826,0.7280999999046287,0.7445999999046222,0.7609999999999957,0.7727999999523121,0.7945999999046336,0.8114999999999952,0.8277000000476846,0.8399999999999892,0.8622000000476788,0.8780000000000001,0.8944999999999936,0.9107999999523173,0.9224999999999994,0.9393999998569456,0.9560000000000031,0.9725999999046309,0.9892000000476742,1.0062000000476843,1.0229999999999961,1.0447999999523176,1.0600999999046223,1.072700000047675,1.089299999952317,1.1058999998569448,1.1225999999046223,1.1392000000476799,1.155899999856942,1.1727000000476835,1.189200000047677,1.206200000047673,1.2225999999046309,1.2392999999523084,1.2558999998569504,1.2724999999999937,1.2892000000476855,1.3057999999523133,1.322499999999991,1.3437000000476758,1.3558999998569448,1.3727999999523064,1.3892000000476799,1.410299999952315,1.4270999999046268,1.4423999998569457,1.460099999904628,1.4767999999523056,1.4892999999523084,1.5060999999046345,1.522599999904628,1.5434999999999945,1.5558999998569476,1.5728999998569435]",6,0,6,0,1,0.2943,,,,
L000000000-1,2025-04-25_10h29.38.041,GoFitts,2023.2.3,Win32,59.88023952,"[394.4657756485159,0]","[-385.8457520221955,-82.01404638482175]",20,788.9315513,6.32,1,0.8882,"[400,400,400,400,400,400,400,400,400,400,400,400,400,400,400,400,400,400,389,337.5,224.5,9.5,-92,-161.5,-197,-201.5,-201.5,-201.5,-201.5,-200.5,-200.5,-200.5,-200.5,-200.5,-201.5,-229.5,-262,-293,-318.5,-334.5,-342,-342.5,-344.5,-347.5,-355.5,-362.5,-366.5,-368.5,-369.5,-369.5,-369.5,-369.5,-370.5,-378,-383.5,-385.5,-385.5,-385.5,-385.5,-385.5,-385.5,-385.5,-385.5,-385.5,-385.5,-385.5,-385.5,-385.5,-385.5,-385.5,-385.5,-385.5,-385.5,-385.5,-385.5,-385.5,-385.5,-385.5,-385.5,-385.5,-385.5,-385.5,-385.5,-385.5,-385.5,-385.5,-385.5,-385.5,-385.5,-385.5,-385.5,-385.5,-385.5,-385.5,-385.5,-385.5,-385.5,-385.5]","[-2.5,-2.5,-2.5,-2.5,-2.5,-2.5,-2.5,-2.5,-2.5,-2.5,-2.5,-2.5,-2.5,-2.5,-2.5,-2.5,-2.5,-2.5,-10.5,-30.5,-60.5,-90,-113.5,-129,-134,-134,-134,-134,-133,-131.5,-131.5,-130.5,-130.5,-130.5,-129.5,-127.5,-127.5,-127.5,-126.5,-124.5,-122.5,-122,-121,-117,-110,-103,-98.5,-94.5,-94,-94,-92.5,-91.5,-88,-79.5,-74,-73.5,-73.5,-73.5,-73.5,-73.5,-73.5,-73.5,-73.5,-73.5,-73.5,-73.5,-73.5,-73.5,-73.5,-73.5,-73.5,-73.5,-73.5,-73.5,-73.5,-73.5,-73.5,-73.5,-73.5,-73.5,-73.5,-73.5,-73.5,-73.5,-73.5,-73.5,-73.5,-73.5,-73.5,-73.5,-73.5,-73.5,-73.5,-73.5,-73.5,-73.5,-73.5,-73.5]","[0,0,0,0,0,0,0,0,0,0,0,0,0,0,0,0,0,0,0,0,0,0,0,0,0,0,0,0,0,0,0,0,0,0,0,0,0,0,0,0,0,0,0,0,0,0,0,0,0,0,0,0,0,0,0,0,0,0,0,0,0,0,0,0,0,0,0,0,0,0,0,0,0,0,0,0,0,0,0,0,0,0,0,0,0,0,0,0,0,0,0,0,0,0,0,0,0,0]","[0,0,0,0,0,0,0,0,0,0,0,0,0,0,0,0,0,0,0,0,0,0,0,0,0,0,0,0,0,0,0,0,0,0,0,0,0,0,0,0,0,0,0,0,0,0,0,0,0,0,0,0,0,0,0,0,0,0,0,0,0,0,0,0,0,0,0,0,0,0,0,0,0,0,0,0,0,0,0,0,0,0,0,0,0,0,0,0,0,0,0,0,0,0,0,0,0,0]","[0,0,0,0,0,0,0,0,0,0,0,0,0,0,0,0,0,0,0,0,0,0,0,0,0,0,0,0,0,0,0,0,0,0,0,0,0,0,0,0,0,0,0,0,0,0,0,0,0,0,0,0,0,0,0,0,0,0,0,0,0,0,0,0,0,0,0,0,0,0,0,0,0,0,0,0,0,0,0,0,0,0,0,0,0,0,0,0,0,0,0,0,0,0,0,0,0,0]","[0,0.01969999980926218,0.03159999990462836,0.04839999985694021,0.065099999904632,0.08689999985695351,0.09839999985695158,0.11539999985694749,0.13179999995232095,0.15319999980926013,0.16509999990462632,0.18169999980926832,0.20300000000000296,0.21959999990463075,0.23719999980926332,0.24839999985694305,0.2648999998569508,0.2817999999523124,0.30400000000000205,0.3215999999046346,0.3377999999523098,0.3539999999999992,0.370599999904627,0.3866999998092666,0.4041999998092649,0.42029999995232004,0.43679999995231356,0.4482999999523116,0.4653999998569418,0.4867999999523107,0.49839999985694305,0.5151999998092691,0.5362999999523197,0.5485999999046243,0.5657999999523184,0.5870000000000033,0.6037999999523151,0.6208999998569453,0.637799999952307,0.6539999999999964,0.6705000000000041,0.6875,0.7038999998569437,0.7202999999523172,0.7378999998569498,0.754299999952309,0.7702999999523144,0.7870999999046262,0.8036999998092682,0.8204999999999956,0.8370999999046234,0.8555999999046264,0.8706999998092613,0.8881999998092596,0.9050999999046354,0.9250999999046314,0.9396999998092639,0.9552999999523166,0.9718999998569444,0.9891999998092587,1.0052999999523138,1.0224999999999937,1.0371999998092605,1.049199999809261,1.0723999998569411,1.089299999952317,1.1063999998569471,1.1209999999999951,1.1322999999523091,1.1488999998569511,1.1700000000000017,1.1821999998092565,1.198999999999998,1.21579999995231,1.2320999999046336,1.252799999952316,1.265500000000003,1.2820999999046307,1.3033999998569499,1.3155999999046344,1.3321999998092622,1.3490000000000038,1.3653999998569475,1.3822999999523091,1.3990999999046352,1.4155999999046287,1.4381999998092567,1.4484999999999957,1.4655999999046259,1.4825000000000017,1.5036999998092568,1.515500000000003,1.5372999999523103,1.5490999999046267,1.5655999999046344,1.5873999998569417,1.5987999999523197,1.6157999999523156]",7,0,7,0,1,0.3038,,,,
L000000000-1,2025-04-25_10h29.38.041,GoFitts,2023.2.3,Win32,59.88023952,"[-385.8457520221955,-82.01404638482175]","[360.362417539167,160.44368539556908]",20,788.9315513,6.32,1,0.7721,"[-385.5,-385.5,-385.5,-385.5,-385.5,-385.5,-385.5,-385.5,-385.5,-385.5,-385.5,-385.5,-385.5,-385.5,-385.5,-385.5,-385.5,-385,-373.5,-349,-234,-113,11.5,128,236,312,335,341,341,341,341,341,341,341,341,342,346.5,351,352.5,353,354,354.5,356,358.5,358.5,360.5,360.5,361.5,361.5,361.5,361.5,361.5,361.5,361.5,361.5,361.5,361.5,361.5,361.5,361.5,361.5,361.5,361.5,361.5,361.5,361.5,361.5,361.5,361.5,361.5,361.5,361.5,361.5,361.5,361.5,361.5,361.5,361.5,361.5,361.5,361.5,361.5,361.5,361.5,361.5,361.5,361.5,361.5,361,361]","[-73.5,-73.5,-73.5,-73.5,-73.5,-73.5,-73.5,-73.5,-73.5,-73.5,-73.5,-73.5,-73.5,-73.5,-73.5,-73.5,-73.5,-71,-66,-58,-32,-1,36,69,101,122.5,129,131,131,131,131,131,131,131,131,131.5,133.5,135.5,137,137.5,138,139.5,140.5,144,145.5,150,150.5,152,152,152.5,153.5,154.5,154.5,154.5,154.5,154.5,154.5,154.5,154.5,154.5,154.5,154.5,154.5,154.5,154.5,154.5,154.5,154.5,154.5,154.5,154.5,154.5,154.5,154.5,154.5,154.5,154.5,154.5,154.5,154.5,154.5,154.5,154.5,154.5,154.5,154.5,154.5,154.5,156,156]","[0,0,0,0,0,0,0,0,0,0,0,0,0,0,0,0,0,0,0,0,0,0,0,0,0,0,0,0,0,0,0,0,0,0,0,0,0,0,0,0,0,0,0,0,0,0,0,0,0,0,0,0,0,0,0,0,0,0,0,0,0,0,0,0,0,0,0,0,0,0,0,0,0,0,0,0,0,0,0,0,0,0,0,0,0,0,0,0,0,0]","[0,0,0,0,0,0,0,0,0,0,0,0,0,0,0,0,0,0,0,0,0,0,0,0,0,0,0,0,0,0,0,0,0,0,0,0,0,0,0,0,0,0,0,0,0,0,0,0,0,0,0,0,0,0,0,0,0,0,0,0,0,0,0,0,0,0,0,0,0,0,0,0,0,0,0,0,0,0,0,0,0,0,0,0,0,0,0,0,0,0]","[0,0,0,0,0,0,0,0,0,0,0,0,0,0,0,0,0,0,0,0,0,0,0,0,0,0,0,0,0,0,0,0,0,0,0,0,0,0,0,0,0,0,0,0,0,0,0,0,0,0,0,0,0,0,0,0,0,0,0,0,0,0,0,0,0,0,0,0,0,0,0,0,0,0,0,0,0,0,0,0,0,0,0,0,0,0,0,0,0,0]","[0.00009999990463427366,0.021000000000000796,0.03159999990464257,0.05320000004769554,0.06489999985694794,0.08159999990463973,0.10309999990464291,0.1202000000476886,0.13800000000000523,0.1533999998569584,0.1700000000000017,0.18629999995232538,0.2053999998569509,0.22179999995232436,0.2377999999523155,0.2538999998569551,0.27070000004768247,0.29220000004768565,0.30879999995232765,0.3212999999523163,0.337799999952324,0.35429999995231753,0.37039999985695715,0.38750000000000284,0.4037999999523265,0.42150000000000887,0.43809999990463666,0.45479999995232845,0.4712000000476877,0.4815999999046312,0.498299999952323,0.5148999998569508,0.5315999999046426,0.5482999999523201,0.5688999998569528,0.5822999999523262,0.6039999999999992,0.6218999998569501,0.6377999999523212,0.6530999999046401,0.6708999998569567,0.6885000000000048,0.7050000000000125,0.7217000000476901,0.7379999999999995,0.7545000000000073,0.7720999999046398,0.788299999952315,0.803799999952318,0.8213999998569506,0.837799999952324,0.8545999999046359,0.8710999999046436,0.8820999999046393,0.9035000000000082,0.9155000000000086,0.9367000000476935,0.9477999999523234,0.9643999998569512,0.981099999904643,1.0020999999046438,1.0143999998569484,1.0315000000000083,1.0530000000000115,1.065000000000012,1.0817000000476895,1.1030000000000086,1.1198999998569548,1.1360999999046442,1.1483999998569487,1.1697999999523176,1.181599999904634,1.1980000000000075,1.2145999999046353,1.231299999952327,1.2478999998569549,1.2643999998569484,1.281000000000006,1.2977999999523178,1.3187999999523186,1.3313999998569557,1.3477000000476949,1.3685000000000116,1.3810000000000002,1.3978999998569606,1.4188999998569614,1.4312000000476957,1.4478999998569577,1.4647999999523194,1.4858999998569544]",8,0,8,0,1,0.2913,,,,
L000000000-1,2025-04-25_10h29.38.041,GoFitts,2023.2.3,Win32,59.88023952,"[360.362417539167,160.44368539556908]","[-319.1295161989447,-231.86116546030897]",20,788.9315513,6.32,1,1.3663,"[361,361,361,361,361,361,361,361,361,361,361,361,361,361,359,355.5,352,346.5,340.5,330.5,317.5,315.5,314,314,314,314,314,314,314,313,312.5,310.5,309.5,306.5,300,288,266,231,197,166.5,146.5,130,127,127,127,127,127,127,127,127,127,127,126.5,111,88,39.5,-37,-102.5,-155,-196.5,-214,-215,-215,-216.5,-216.5,-222.5,-232.5,-245.5,-255.5,-262,-268,-268.5,-269.5,-271,-277,-284.5,-289.5,-297.5,-303,-311,-313,-314.5,-315.5,-317,-318,-318.5,-318.5,-318.5,-318.5,-318.5,-318.5,-318.5,-318.5,-318,-318,-318,-318,-318,-318,-318,-318,-318,-318,-318,-318,-318,-318,-318,-318,-318,-318,-318,-318,-318,-318,-318,-318,-318,-318,-318,-318,-318,-318,-318,-318,-318]","[156,156,156,156,156,156,156,156,156,156,156,156,156,156,152,144,137.5,119,86,20.5,-35.5,-57,-66,-67.5,-67.5,-67.5,-67.5,-67.5,-67.5,-61.5,-57,-54.5,-52,-49,-49,-49,-59.5,-86.5,-126.5,-172.5,-209,-255.5,-272,-277.5,-278.5,-278.5,-278.5,-278.5,-278.5,-280.5,-280.5,-280.5,-281,-273.5,-268,-268,-271,-279.5,-288.5,-295.5,-295.5,-295.5,-295.5,-295.5,-295.5,-293,-284,-275,-266,-262,-258.5,-258,-257,-255,-252.5,-252,-252,-248.5,-247,-243.5,-242.5,-241,-239,-236.5,-234.5,-233.5,-233.5,-233.5,-233.5,-232,-231.5,-231.5,-231.5,-230.5,-230.5,-230.5,-230.5,-230.5,-230.5,-230.5,-230.5,-230.5,-230.5,-230.5,-230.5,-230.5,-230.5,-230.5,-230.5,-230.5,-230.5,-230.5,-230.5,-230.5,-230.5,-230.5,-230.5,-230.5,-230.5,-230.5,-230.5,-230.5,-230.5,-230.5,-230.5,-230.5]","[0,0,0,0,0,0,0,0,0,0,0,0,0,0,0,0,0,0,0,0,0,0,0,0,0,0,0,0,0,0,0,0,0,0,0,0,0,0,0,0,0,0,0,0,0,0,0,0,0,0,0,0,0,0,0,0,0,0,0,0,0,0,0,0,0,0,0,0,0,0,0,0,0,0,0,0,0,0,0,0,0,0,0,0,0,0,0,0,0,0,0,0,0,0,0,0,0,0,0,0,0,0,0,0,0,0,0,0,0,0,0,0,0,0,0,0,0,0,0,0,0,0,0,0,0,0]","[0,0,0,0,0,0,0,0,0,0,0,0,0,0,0,0,0,0,0,0,0,0,0,0,0,0,0,0,0,0,0,0,0,0,0,0,0,0,0,0,0,0,0,0,0,0,0,0,0,0,0,0,0,0,0,0,0,0,0,0,0,0,0,0,0,0,0,0,0,0,0,0,0,0,0,0,0,0,0,0,0,0,0,0,0,0,0,0,0,0,0,0,0,0,0,0,0,0,0,0,0,0,0,0,0,0,0,0,0,0,0,0,0,0,0,0,0,0,0,0,0,0,0,0,0,0]","[0,0,0,0,0,0,0,0,0,0,0,0,0,0,0,0,0,0,0,0,0,0,0,0,0,0,0,0,0,0,0,0,0,0,0,0,0,0,0,0,0,0,0,0,0,0,0,0,0,0,0,0,0,0,0,0,0,0,0,0,0,0,0,0,0,0,0,0,0,0,0,0,0,0,0,0,0,0,0,0,0,0,0,0,0,0,0,0,0,0,0,0,0,0,0,0,0,0,0,0,0,0,0,0,0,0,0,0,0,0,0,0,0,0,0,0,0,0,0,0,0,0,0,0,0,0]","[0,0.017499999999998295,0.03360000014303921,0.04970000004767883,0.06140000009536095,0.07780000019073441,0.09420000004767815,0.11110000014303978,0.1276000001430475,0.1442000000476753,0.1609000000953671,0.17749999999999488,0.19910000014304785,0.21570000004767564,0.2277000000476761,0.2494999999999976,0.2658000001907368,0.28340000009536936,0.2998000001907286,0.31580000019073395,0.3323000001907275,0.3489000000953695,0.3653000001907287,0.38230000019072463,0.3990000000000009,0.41499999999999204,0.4274999999999949,0.44830000019072713,0.46080000019073,0.48230000019073316,0.4989999999999952,0.5161000001430409,0.5326000001430486,0.5491000001430422,0.5659999999999883,0.5824000000953617,0.5994999999999919,0.6159999999999997,0.632800000190727,0.6496000001430531,0.6659999999999968,0.6824999999999903,0.6993000001907319,0.7159000000953597,0.7326000001430515,0.7487000000476769,0.7654999999999887,0.7826000001430486,0.7943000001907308,0.8156000001430499,0.8324000000953617,0.8449000000953646,0.8658000001907311,0.8829999999999956,0.8999999999999915,0.9184000000953603,0.9344999999999999,0.9504000000953567,0.9661000001430438,0.9825000000000017,0.999100000143045,1.0159000000953569,1.0274000000953691,1.0444999999999993,1.0674000000953612,1.0864000000953666,1.0989000000953695,1.1161000001430494,1.132400000095359,1.149400000095369,1.1661000001430466,1.1829000000953585,1.1997000000476845,1.2175000000000011,1.2324000000953674,1.25,1.2659000000953569,1.282900000095367,1.2991000001430422,1.315800000190734,1.3326000001430458,1.3486000001430511,1.3663000001907335,1.3829000000953613,1.3991000001430507,1.4154999999999944,1.4319000000953679,1.4491000001430479,1.4652000000476733,1.4776000001430418,1.4984000000953586,1.5154000000953687,1.531499999999994,1.5488000001907238,1.5648000001907292,1.5814999999999912,1.598400000095367,1.6136000001430517,1.6274000000953635,1.64830000019073,1.6653000001907259,1.6774000000953606,1.6939999999999884,1.7149000000953691,1.7316000001430467,1.7482000000476745,1.760600000143043,1.7817000000476781,1.7973000001907309,1.8149999999999977,1.8311000001430529,1.8486000001430511,1.8607000000476859,1.8774000000953635,1.8989000000953666,1.915200000047676,1.9320000000000022,1.9487000000476797,1.9607000000476802,1.9818000001907308,1.9941000001430496,2.010800000190727,2.027400000095369,2.0441000001430467,2.0608000001907243,2.0777000000476846]",9,0,9,0,1,0.2493,,,,
L000000000-1,2025-04-25_10h29.38.041,GoFitts,2023.2.3,Win32,59.88023952,"[-319.1295161989447,-231.86116546030897]","[263.94912364750877,293.1452000011213]",20,788.9315513,6.32,1,0.9703,"[-318,-318,-318,-318,-318,-318,-318,-318,-318,-318,-318,-318,-318,-318,-318,-313,-281.5,-226,-148.5,-63,19,89,145.5,177.5,204,212.5,218,219.5,223,229.5,247,264,273.5,276.5,277,278.5,273,262.5,253,252,251.5,251.5,250.5,248.5,247.5,246.5,246.5,246.5,246.5,246.5,247,249.5,250,252.5,253,253,253,254,255,255,255,256,256,256,256,256,256,256,256,256,256,256,256,256,256,256,256,256,256,256,256,256,256,256,256,256,256,256,256,256,256,256,256,256,256,256,256,256,256,256,256,256,256]","[-230.5,-230.5,-230.5,-230.5,-230.5,-230.5,-230.5,-230.5,-230.5,-230.5,-230.5,-230.5,-230.5,-230.5,-230.5,-229,-198.5,-134,-52.5,19.5,80,124.5,158.5,175.5,186,188,188.5,188.5,189.5,191,193,200.5,206,209,211.5,217.5,229.5,244,258.5,266,273,280.5,285.5,288.5,290,291.5,291.5,291.5,291.5,291.5,292,293,293,293.5,293.5,293.5,293.5,294.5,294.5,294.5,294.5,294.5,294.5,294.5,294.5,294.5,294.5,294.5,294.5,294.5,294.5,294.5,294.5,294.5,294.5,294.5,294.5,294.5,294.5,294.5,294.5,294.5,294.5,294.5,294.5,294.5,294.5,294.5,294.5,294.5,294.5,294.5,294.5,294.5,294.5,294.5,294.5,294.5,294.5,294.5,294.5,294.5,294.5]","[0,0,0,0,0,0,0,0,0,0,0,0,0,0,0,0,0,0,0,0,0,0,0,0,0,0,0,0,0,0,0,0,0,0,0,0,0,0,0,0,0,0,0,0,0,0,0,0,0,0,0,0,0,0,0,0,0,0,0,0,0,0,0,0,0,0,0,0,0,0,0,0,0,0,0,0,0,0,0,0,0,0,0,0,0,0,0,0,0,0,0,0,0,0,0,0,0,0,0,0,0,0,0]","[0,0,0,0,0,0,0,0,0,0,0,0,0,0,0,0,0,0,0,0,0,0,0,0,0,0,0,0,0,0,0,0,0,0,0,0,0,0,0,0,0,0,0,0,0,0,0,0,0,0,0,0,0,0,0,0,0,0,0,0,0,0,0,0,0,0,0,0,0,0,0,0,0,0,0,0,0,0,0,0,0,0,0,0,0,0,0,0,0,0,0,0,0,0,0,0,0,0,0,0,0,0,0]","[0,0,0,0,0,0,0,0,0,0,0,0,0,0,0,0,0,0,0,0,0,0,0,0,0,0,0,0,0,0,0,0,0,0,0,0,0,0,0,0,0,0,0,0,0,0,0,0,0,0,0,0,0,0,0,0,0,0,0,0,0,0,0,0,0,0,0,0,0,0,0,0,0,0,0,0,0,0,0,0,0,0,0,0,0,0,0,0,0,0,0,0,0,0,0,0,0,0,0,0,0,0,0]","[0.00009999990463427366,0.01939999985695806,0.031700000047692356,0.04829999995232015,0.06489999985694794,0.08159999990463973,0.10279999995232458,0.1148999998569451,0.13150000000000261,0.15270000004768747,0.16500000000000625,0.18159999990463405,0.20250000000000057,0.21489999985695363,0.23579999995232015,0.24859999990464132,0.2695999999046421,0.28639999985695397,0.3032999999523156,0.32020000004769145,0.3363999998569511,0.35379999995231515,0.37000000000000455,0.38649999999999807,0.40329999995232413,0.420099999904636,0.43650000000000944,0.45339999985695556,0.4697999999523148,0.4865000000000066,0.5035000000000025,0.5195999999046421,0.5370999999046404,0.5537000000476837,0.5700000000000074,0.5865999999046352,0.6037000000476809,0.6200000000000045,0.6364999999999981,0.6532000000476899,0.6697999999523176,0.6865999999046295,0.7032999999523213,0.7202000000476829,0.7367999999523249,0.7537999999523208,0.7698999998569462,0.7865000000000038,0.8029999999999973,0.8148999998569479,0.8362999999523169,0.8530000000000086,0.8700999999046388,0.8868999998569507,0.9025999999046377,0.9195999999046336,0.9363999998569454,0.9535000000000053,0.9702999999523172,0.9863999998569568,1.0032000000476842,1.0195000000000078,1.0362000000476854,1.0482000000476859,1.0679999999999978,1.0815000000000055,1.0982999999523173,1.115000000000009,1.131799999952321,1.1483999998569487,1.1650999999046405,1.1860999999046413,1.198399999856946,1.2152000000476875,1.2362000000476883,1.2528999998569503,1.269399999856958,1.286599999904638,1.3032999999523156,1.319299999952321,1.3360999999046328,1.3527999999523246,1.3697999999523205,1.386499999999998,1.3983999998569487,1.4192999999523153,1.4317000000476838,1.4525999999046348,1.4697999999523148,1.481700000047681,1.498299999952323,1.5190999999046397,1.5315999999046426,1.5525999999046292,1.565099999904632,1.5817000000476895,1.5982999999523173,1.615000000000009,1.6317000000476867,1.6483999998569487,1.6648999998569565,1.681599999904634,1.69850000000001]",10,0,10,0,1,0.2696,,,,
