身分證字號,date,expName,psychopyVersion,OS,frameRate,from,to,w,a,id,sequence_loop.thisN,enter_time,mouse.x,mouse.y,mouse.leftButton,mouse.midButton,mouse.rightButton,mouse.time,trial_loop.thisRepN,trial_loop.thisTrialN,trial_loop.thisN,trial_loop.thisIndex,trial_loop.ran,leave_time,sequence_loop.thisRepN,sequence_loop.thisTrialN,sequence_loop.thisIndex,sequence_loop.ran
O211111111,2024-11-28_16h21.41.769,GoFitts,2023.2.3,Win32,64.51612903,,,,,,,,,,,,,,,,,,,,,,,
O211111111,2024-11-28_16h21.41.769,GoFitts,2023.2.3,Win32,64.51612903,,,,,,,,,,,,,,,,,,,,,,,
O211111111,2024-11-28_16h21.41.769,GoFitts,2023.2.3,Win32,64.51612903,"[56,-22]","[-323.1171089974442,-68.68066170525441]",51,660.6714748,4.75,0,0.853,"[56,56,56,56,56,56,56,56,56,57,63,70,87,107,107,107,107,107,107,107,107,107,107,107,107,107,107,107,107,102,88,66,37,4,-30,-60,-92,-131,-167,-198,-213,-222,-227,-239,-244,-257,-271,-283,-293,-302,-308,-314,-316,-317,-317,-317,-317,-317,-317,-317,-317,-317,-317,-317,-317,-317,-317,-317,-317,-317,-317,-317,-317,-317,-317,-317,-317,-317,-317,-317,-317,-317]","[-22,-22,-22,-22,-22,-22,-22,-22,-22,-21,-18,-16,-19,-55,-55,-55,-55,-55,-55,-55,-55,-55,-55,-55,-55,-55,-55,-55,-55,-47,-44,-40,-33,-29,-25,-19,-9,4,15,21,21,18,16,11,9,4,1,-4,-10,-19,-32,-45,-55,-61,-66,-69,-71,-71,-71,-71,-71,-71,-71,-71,-71,-71,-71,-71,-71,-71,-71,-71,-71,-71,-71,-71,-71,-71,-71,-71,-71,-71]","[0,0,0,0,0,0,0,0,0,0,0,0,0,0,0,0,0,0,0,0,0,0,0,0,0,0,0,0,0,0,0,0,0,0,0,0,0,0,0,0,0,0,0,0,0,0,0,0,0,0,0,0,0,0,0,0,0,0,0,0,0,0,0,0,0,0,0,0,0,0,0,0,0,0,0,0,0,0,0,0,0,0]","[0,0,0,0,0,0,0,0,0,0,0,0,0,0,0,0,0,0,0,0,0,0,0,0,0,0,0,0,0,0,0,0,0,0,0,0,0,0,0,0,0,0,0,0,0,0,0,0,0,0,0,0,0,0,0,0,0,0,0,0,0,0,0,0,0,0,0,0,0,0,0,0,0,0,0,0,0,0,0,0,0,0]","[0,0,0,0,0,0,0,0,0,0,0,0,0,0,0,0,0,0,0,0,0,0,0,0,0,0,0,0,0,0,0,0,0,0,0,0,0,0,0,0,0,0,0,0,0,0,0,0,0,0,0,0,0,0,0,0,0,0,0,0,0,0,0,0,0,0,0,0,0,0,0,0,0,0,0,0,0,0,0,0,0,0]","[0,0.020300000011914676,0.03630000001192002,0.052400000035760286,0.06930000001192127,0.08669999998807043,0.10260000002384118,0.11940000003575335,0.1361999999880794,0.15260000002383833,0.1694000000357505,0.18599999999999284,0.20290000003575415,0.219699999988066,0.2359000000357554,0.2524999999999977,0.26890000003575665,0.28590000003575256,0.3024999999999949,0.3189999999999884,0.3358000000119148,0.35240000003575744,0.3691999999880693,0.38580000001191195,0.40280000001190785,0.4194000000357505,0.4358000000119091,0.4526999999880701,0.4689000000357595,0.48599999999999,0.5029000000357513,0.5198000000119123,0.5361000000238363,0.5526999999880786,0.5694999999999908,0.5859999999999985,0.6026999999880758,0.6204000000357581,0.6359000000357611,0.6524999999999892,0.6691000000238319,0.6859999999999928,0.7026999999880701,0.7306000000238413,0.7356999999880713,0.7524999999999977,0.7691000000238404,0.7858000000119176,0.8023000000119112,0.8191000000238375,0.8356999999880657,0.8529999999999944,0.8693000000119184,0.885800000011912,0.9024999999999892,0.9191999999880665,0.9529999999999887,0.9693000000119127,0.9861000000238391,1.0024999999999977,1.0189999999999912,1.0366000000238387,1.0524000000357603,1.0689999999999884,1.081900000035759,1.0984999999999872,1.1199000000357557,1.1371000000238354,1.152699999988073,1.1693000000119156,1.182100000023837,1.2034999999999911,1.219699999988066,1.2364000000357578,1.250699999988072,1.2706000000238333,1.2858000000119176,1.3024000000357603,1.3189999999999884,1.336199999988068,1.3484000000357526,1.3709000000357605]",0,0,0,0,1,,,,,
O211111111,2024-11-28_16h21.41.769,GoFitts,2023.2.3,Win32,64.51612903,"[-323.1171089974442,-68.68066170525441]","[301.77671242027156,134.3596489276097]",51,660.6714748,4.75,0,0.831,"[-317,-317,-317,-317,-317,-317,-317,-317,-317,-317,-314,-308,-304,-291,-271,-219,-158,-75,-13,48,105,158,202,239,258,274,285,294,302,311,318,326,331,338,345,349,351,351,351,351,351,351,351,351,351,349,345,340,334,328,324,321,318,316,314,312,312,312,312,312,312,312,312,312,312,312,312,312,312,312,312,312,312,312,312,312,312,312,312,312,312]","[-71,-71,-71,-71,-71,-71,-71,-71,-71,-71,-69,-65,-62,-58,-54,-46,-35,-19,-4,13,32,52,67,81,90,100,107,112,116,120,124,129,132,136,140,144,146,146,147,148,148,148,148,148,148,148,148,148,148,147,146,145,145,145,145,144,143,143,143,143,143,143,143,143,143,143,143,143,143,143,143,143,143,143,143,143,143,143,143,143,143]","[0,0,0,0,0,0,0,0,0,0,0,0,0,0,0,0,0,0,0,0,0,0,0,0,0,0,0,0,0,0,0,0,0,0,0,0,0,0,0,0,0,0,0,0,0,0,0,0,0,0,0,0,0,0,0,0,0,0,0,0,0,0,0,0,0,0,0,0,0,0,0,0,0,0,0,0,0,0,0,0,0]","[0,0,0,0,0,0,0,0,0,0,0,0,0,0,0,0,0,0,0,0,0,0,0,0,0,0,0,0,0,0,0,0,0,0,0,0,0,0,0,0,0,0,0,0,0,0,0,0,0,0,0,0,0,0,0,0,0,0,0,0,0,0,0,0,0,0,0,0,0,0,0,0,0,0,0,0,0,0,0,0,0]","[0,0,0,0,0,0,0,0,0,0,0,0,0,0,0,0,0,0,0,0,0,0,0,0,0,0,0,0,0,0,0,0,0,0,0,0,0,0,0,0,0,0,0,0,0,0,0,0,0,0,0,0,0,0,0,0,0,0,0,0,0,0,0,0,0,0,0,0,0,0,0,0,0,0,0,0,0,0,0,0,0]","[0,0.014400000035763583,0.026900000035766425,0.04840000003576961,0.06030000001192093,0.08310000002384754,0.09740000003576199,0.11640000003576745,0.1307000000476961,0.14750000000000796,0.1641000000238506,0.18120000004769565,0.19780000001192377,0.21680000001192923,0.23110000002384368,0.24750000000000227,0.26420000004769406,0.2820000000000107,0.2977000000476835,0.3146000000238445,0.33100000000000307,0.3475000000000108,0.36410000002385345,0.3854000000357729,0.39750000000000796,0.4164000000357646,0.4311000000238465,0.4477000000476892,0.46410000002384777,0.4819000000357647,0.49770000004768633,0.5165000000000077,0.5313000000119246,0.5474000000357648,0.5672000000476913,0.5807000000476847,0.5976000000238457,0.6141000000238535,0.6310000000000002,0.647700000047692,0.6643000000119201,0.6810000000000116,0.6974000000357705,0.710200000047692,0.7338000000119251,0.7478000000119209,0.7641000000238449,0.7809000000357713,0.7976000000238486,0.8143000000119258,0.8310000000000031,0.8475000000000108,0.8641000000238535,0.8808000000119307,0.8976000000238429,0.9142000000476855,0.9330000000000069,0.9474000000357705,0.9641000000238478,0.9807000000476904,0.9977000000476863,1.014100000023845,1.0319000000357619,1.043300000011925,1.0651000000238469,1.076700000047694,1.0978000000119295,1.1140000000000043,1.1331000000238447,1.1474000000357734,1.1603000000119295,1.1814000000357652,1.1978000000119238,1.2143000000119315,1.2268000000119201,1.2481000000238538,1.2645000000000124,1.2808000000119222,1.2976000000238486,1.3139000000357726,1.3328000000119289]",1,0,1,0,1,0.2168,,,,
O211111111,2024-11-28_16h21.41.769,GoFitts,2023.2.3,Win32,64.51612903,"[301.77671242027156,134.3596489276097]","[-267.24722542500444,-194.16647476270123]",51,660.6714748,4.75,0,0.781,"[312,312,312,312,312,312,312,312,312,312,312,312,312,312,312,312,305,282,253,203,154,99,60,33,16,-1,-41,-58,-71,-81,-86,-90,-93,-94,-96,-101,-112,-125,-141,-162,-186,-216,-241,-261,-267,-272,-274,-277,-279,-282,-283,-285,-286,-286,-287,-287,-287,-287,-287,-287,-287,-287,-287,-287,-287,-287,-287,-287,-287,-287,-287,-287,-287,-287,-287,-287,-287,-287]","[143,143,143,143,143,143,143,143,143,143,143,143,143,143,143,143,140,124,102,64,34,1,-21,-39,-50,-63,-97,-113,-126,-135,-139,-143,-144,-145,-146,-148,-148,-148,-148,-148,-147,-148,-152,-160,-164,-167,-170,-173,-178,-181,-185,-188,-192,-194,-197,-197,-197,-197,-197,-197,-197,-197,-197,-197,-197,-197,-197,-197,-197,-197,-197,-197,-197,-197,-197,-197,-197,-197]","[0,0,0,0,0,0,0,0,0,0,0,0,0,0,0,0,0,0,0,0,0,0,0,0,0,0,0,0,0,0,0,0,0,0,0,0,0,0,0,0,0,0,0,0,0,0,0,0,0,0,0,0,0,0,0,0,0,0,0,0,0,0,0,0,0,0,0,0,0,0,0,0,0,0,0,0,0,0]","[0,0,0,0,0,0,0,0,0,0,0,0,0,0,0,0,0,0,0,0,0,0,0,0,0,0,0,0,0,0,0,0,0,0,0,0,0,0,0,0,0,0,0,0,0,0,0,0,0,0,0,0,0,0,0,0,0,0,0,0,0,0,0,0,0,0,0,0,0,0,0,0,0,0,0,0,0,0]","[0,0,0,0,0,0,0,0,0,0,0,0,0,0,0,0,0,0,0,0,0,0,0,0,0,0,0,0,0,0,0,0,0,0,0,0,0,0,0,0,0,0,0,0,0,0,0,0,0,0,0,0,0,0,0,0,0,0,0,0,0,0,0,0,0,0,0,0,0,0,0,0,0,0,0,0,0,0]","[0,0.014499999999998181,0.030699999988073046,0.047600000023834355,0.06449999999999534,0.08090000003575426,0.0981000000238339,0.11419999998807384,0.13069999998806736,0.14740000003575915,0.16390000003575267,0.1809000000357628,0.1974999999999909,0.21590000003575938,0.2306999999880759,0.24749999999998806,0.2633000000119097,0.28119999998807543,0.2978000000119181,0.3166999999880744,0.331100000023838,0.34780000001191524,0.364300000011923,0.3809000000357514,0.3976000000238429,0.41449999999998965,0.4479999999999933,0.46419999998806816,0.4806999999880759,0.4976999999880718,0.5144000000357636,0.5331000000238362,0.547900000035753,0.5646000000238303,0.581100000023838,0.5976999999880803,0.614300000011923,0.6321999999880745,0.6476000000238429,0.6646000000238388,0.6808000000119137,0.69760000002384,0.7144000000357522,0.7331999999880736,0.7478000000119209,0.7648000000119168,0.7809999999999917,0.7976000000238344,0.8141000000238421,0.8309999999999889,0.8485000000000014,0.8646999999880762,0.8824000000357586,0.8936999999880726,0.914999999999992,0.9309999999999974,0.9486999999880794,0.9644000000357522,0.9811999999880783,0.9973000000119185,1.0103000000119096,1.0313000000119104,1.04849999999999,1.0644000000357607,1.0808000000119193,1.0976000000238315,1.114400000035758,1.1309000000357514,1.148900000035752,1.1603000000119152,1.182100000023837,1.1978000000119096,1.2144000000357522,1.2313000000119132,1.248600000023842,1.2641999999880795,1.2809999999999917,1.3034000000357508]",2,0,2,0,1,0.2978,,,,
O211111111,2024-11-28_16h21.41.769,GoFitts,2023.2.3,Win32,64.51612903,"[-267.24722542500444,-194.16647476270123]","[221.03775228419755,245.48729393654483]",51,660.6714748,4.75,0,0.4605,"[-287,-287,-287,-287,-287,-287,-287,-287,-287,-287,-287,-287,-287,-287,-283,-266,-239,-202,-162,-103,-33,26,77,123,151,172,185,195,203,209,214,218,220,223,223,223,223,223,223,223,223,223,223,223,223,223,223,223,223,223,223,223,223,223,223,223,223,223,223,223]","[-197,-197,-197,-197,-197,-197,-197,-197,-197,-197,-197,-197,-197,-197,-195,-186,-167,-136,-97,-34,38,97,143,181,203,218,228,235,240,245,250,253,255,257,257,257,257,257,257,257,257,257,257,257,257,257,257,257,257,257,257,257,257,257,257,257,257,257,257,257]","[0,0,0,0,0,0,0,0,0,0,0,0,0,0,0,0,0,0,0,0,0,0,0,0,0,0,0,0,0,0,0,0,0,0,0,0,0,0,0,0,0,0,0,0,0,0,0,0,0,0,0,0,0,0,0,0,0,0,0,0]","[0,0,0,0,0,0,0,0,0,0,0,0,0,0,0,0,0,0,0,0,0,0,0,0,0,0,0,0,0,0,0,0,0,0,0,0,0,0,0,0,0,0,0,0,0,0,0,0,0,0,0,0,0,0,0,0,0,0,0,0]","[0,0,0,0,0,0,0,0,0,0,0,0,0,0,0,0,0,0,0,0,0,0,0,0,0,0,0,0,0,0,0,0,0,0,0,0,0,0,0,0,0,0,0,0,0,0,0,0,0,0,0,0,0,0,0,0,0,0,0,0]","[0,0.010299999952323446,0.027199999988084755,0.0396999999880876,0.060899999976157915,0.07689999997616326,0.09359999996424051,0.11009999996424824,0.1267999999523255,0.14519999998807975,0.16039999997616405,0.17300000000000182,0.1940999999642372,0.21019999998807748,0.22700000000000387,0.24399999999999977,0.2605999999642421,0.27729999995231935,0.2937999999523271,0.3102999999523206,0.3269999999999982,0.3440999999642429,0.3605999999642364,0.3768999999761604,0.3937999999523214,0.41039999997616405,0.4270999999642413,0.44369999998808396,0.46050000000001035,0.47709999996423846,0.4935000000000116,0.5101999999880888,0.5271999999880848,0.553199999988081,0.5605000000000047,0.5771999999880819,0.5936999999880896,0.6091999999880784,0.623299999952323,0.6440000000000055,0.660399999976164,0.6768999999761576,0.6935999999642348,0.7102999999523263,0.7272999999523222,0.7437999999523157,0.7605000000000075,0.7785999999642428,0.7935000000000088,0.8103999999761697,0.8260999999642422,0.8421999999880825,0.8605999999642364,0.8728999999761697,0.8897999999523165,0.9111999999880851,0.9270000000000067,0.9440999999642372,0.9561999999880868,0.9795000000000016]",3,0,3,0,1,0.2606,,,,
O211111111,2024-11-28_16h21.41.769,GoFitts,2023.2.3,Win32,64.51612903,"[221.03775228419755,245.48729393654483]","[-165.16786871175793,-286.0791403866303]",51,660.6714748,4.75,0,0.7141,"[223,223,223,223,223,223,223,223,223,223,223,223,219,216,210,195,173,146,111,81,51,27,5,-16,-42,-63,-80,-94,-106,-116,-126,-137,-149,-157,-164,-171,-176,-180,-183,-184,-184,-184,-184,-184,-184,-184,-184,-184,-182,-181,-181,-181,-181,-181,-181,-181,-181,-181,-181,-181,-181,-181,-181,-180,-180,-180,-180,-180,-180,-180,-180,-180,-180,-179]","[257,257,257,257,257,257,257,257,257,257,257,257,256,254,251,238,216,185,141,102,56,16,-17,-48,-85,-110,-132,-151,-168,-181,-193,-205,-215,-223,-232,-238,-244,-250,-255,-259,-262,-265,-267,-270,-272,-274,-275,-277,-279,-282,-283,-285,-285,-285,-285,-285,-285,-285,-285,-285,-285,-285,-285,-285,-285,-285,-285,-285,-285,-285,-285,-285,-285,-285]","[0,0,0,0,0,0,0,0,0,0,0,0,0,0,0,0,0,0,0,0,0,0,0,0,0,0,0,0,0,0,0,0,0,0,0,0,0,0,0,0,0,0,0,0,0,0,0,0,0,0,0,0,0,0,0,0,0,0,0,0,0,0,0,0,0,0,0,0,0,0,0,0,0,0]","[0,0,0,0,0,0,0,0,0,0,0,0,0,0,0,0,0,0,0,0,0,0,0,0,0,0,0,0,0,0,0,0,0,0,0,0,0,0,0,0,0,0,0,0,0,0,0,0,0,0,0,0,0,0,0,0,0,0,0,0,0,0,0,0,0,0,0,0,0,0,0,0,0,0]","[0,0,0,0,0,0,0,0,0,0,0,0,0,0,0,0,0,0,0,0,0,0,0,0,0,0,0,0,0,0,0,0,0,0,0,0,0,0,0,0,0,0,0,0,0,0,0,0,0,0,0,0,0,0,0,0,0,0,0,0,0,0,0,0,0,0,0,0,0,0,0,0,0,0]","[0,0.013999999999995794,0.030099999964235735,0.046999999999997044,0.06359999996423937,0.08039999997616576,0.09729999995231253,0.11369999998808566,0.13019999998807918,0.1466999999880727,0.16379999995231742,0.18029999995231094,0.19849999999999568,0.21369999998807998,0.2302999999523223,0.24709999996423448,0.26369999998807714,0.28029999995231947,0.29819999998808555,0.3137999999523231,0.33259999996424483,0.3474999999999966,0.3638999999761552,0.38049999999999784,0.39829999995231447,0.4137999999523174,0.43019999998807634,0.44700000000000273,0.4638999999761637,0.48050000000000637,0.49809999996423926,0.5136999999880771,0.5301999999880849,0.5468999999761621,0.5640999999642418,0.5805000000000007,0.5972999999523125,0.6138999999761552,0.6303999999761629,0.6470000000000056,0.6637999999523174,0.6805999999642438,0.6980000000000075,0.7140999999642332,0.7303999999761572,0.7469999999999999,0.7636999999880771,0.7805000000000035,0.7981999999880856,0.813899999976158,0.8303999999761658,0.8468999999761593,0.8633999999761528,0.8800999999642443,0.8979999999999961,0.9136999999880828,0.9265999999642389,0.9476999999880746,0.9639999999999986,0.9762999999523174,0.9987999999523112,1.0138999999761609,1.0301999999880849,1.046999999999997,1.063799999952323,1.0805999999642353,1.0968999999761593,1.1135999999642365,1.1265000000000072,1.1479999999999961,1.1597999999523125,1.1806999999880787,1.1931999999880816,1.2147999999523194]",4,0,4,0,1,0.2471,,,,
O211111111,2024-11-28_16h21.41.769,GoFitts,2023.2.3,Win32,64.51612903,"[-165.16786871175793,-286.0791403866303]","[102.07935671324664,314.1679556417993]",51,660.6714748,4.75,0,0.7175,"[-179,-179,-179,-178,-178,-178,-178,-178,-178,-178,-178,-177,-177,-177,-177,-173,-162,-143,-116,-79,-50,-12,35,80,110,139,154,163,169,173,174,176,177,177,177,177,177,177,177,177,169,146,130,115,108,103,103,103,103,103,103,103,103,103,103,103,103,103,103,103,103,103,103,103,103,103,103,103,103,103,103,103,103,103,103]","[-285,-285,-285,-285,-285,-285,-285,-285,-285,-285,-285,-285,-285,-285,-285,-279,-264,-235,-185,-113,-54,15,106,188,245,295,321,338,351,361,368,371,373,373,373,373,373,373,373,373,370,356,342,326,317,313,312,312,312,312,312,312,312,312,312,312,312,312,312,312,312,312,312,312,312,312,312,312,312,312,312,312,312,312,312]","[0,0,0,0,0,0,0,0,0,0,0,0,0,0,0,0,0,0,0,0,0,0,0,0,0,0,0,0,0,0,0,0,0,0,0,0,0,0,0,0,0,0,0,0,0,0,0,0,0,0,0,0,0,0,0,0,0,0,0,0,0,0,0,0,0,0,0,0,0,0,0,0,0,0,0]","[0,0,0,0,0,0,0,0,0,0,0,0,0,0,0,0,0,0,0,0,0,0,0,0,0,0,0,0,0,0,0,0,0,0,0,0,0,0,0,0,0,0,0,0,0,0,0,0,0,0,0,0,0,0,0,0,0,0,0,0,0,0,0,0,0,0,0,0,0,0,0,0,0,0,0]","[0,0,0,0,0,0,0,0,0,0,0,0,0,0,0,0,0,0,0,0,0,0,0,0,0,0,0,0,0,0,0,0,0,0,0,0,0,0,0,0,0,0,0,0,0,0,0,0,0,0,0,0,0,0,0,0,0,0,0,0,0,0,0,0,0,0,0,0,0,0,0,0,0,0,0]","[0,0.015500000000002956,0.03189999997616155,0.04889999997617167,0.06530000001193059,0.08189999997615871,0.10059999996424551,0.1150000000000091,0.1315999999642372,0.1483999999761636,0.16489999997617133,0.18180000001193264,0.19839999997616076,0.211399999976166,0.2330000000000041,0.2488000000119257,0.2651999999880843,0.2820999999642453,0.2985000000000042,0.3178000000119283,0.33200000000000784,0.34880000001193423,0.36530000001192775,0.38330000001192843,0.39850000000001273,0.41730000001193446,0.4323999999761696,0.4485000000000099,0.465099999964238,0.48200000000001353,0.49859999996424165,0.5165000000000077,0.5320000000000107,0.5485000000000042,0.5650999999642465,0.58159999996424,0.5983999999761664,0.6163000000119325,0.6318000000119213,0.6483999999761636,0.6613999999761688,0.6826999999880883,0.6986999999880794,0.7175000000000011,0.7318999999761644,0.7483999999761579,0.765399999976168,0.781800000011927,0.7983999999761693,0.8150999999642465,0.8318999999761587,0.8510000000000133,0.8651999999880928,0.8816999999880863,0.898300000011929,0.9150999999642409,0.9320000000000022,0.944500000000005,0.9660000000000082,0.9825000000000017,0.9975000000000023,1.0158000000119216,1.0318999999761616,1.0488999999761717,1.0668000000119235,1.0818999999761587,1.0946999999880802,1.116500000000002,1.1308000000119307,1.1493000000119338,1.1670999999642504,1.1820000000000022,1.1983000000119262,1.215099999964238,1.2318999999761644]",5,0,5,0,1,0.282,,,,
O211111111,2024-11-28_16h21.41.769,GoFitts,2023.2.3,Win32,64.51612903,"[102.07935671324664,314.1679556417993]","[-34.529486995267426,-328.52612369031095]",51,660.6714748,4.75,0,0.5167,"[103,103,103,103,104,104,104,104,104,104,104,103,96,86,70,56,44,30,16,4,-7,-13,-18,-21,-24,-25,-26,-28,-29,-29,-30,-31,-31,-31,-31,-31,-31,-32,-32,-32,-33,-33,-33,-33,-33,-33,-33,-33,-33,-33,-33,-33,-33,-33,-33,-33,-33,-33,-33,-33,-33,-33,-33]","[312,312,312,312,312,312,312,312,312,312,312,303,274,231,172,124,70,14,-45,-99,-143,-166,-190,-213,-238,-245,-257,-269,-280,-290,-298,-304,-311,-317,-323,-328,-330,-333,-334,-336,-339,-342,-343,-343,-343,-343,-343,-343,-343,-343,-343,-343,-345,-346,-346,-346,-346,-347,-347,-347,-347,-347,-347]","[0,0,0,0,0,0,0,0,0,0,0,0,0,0,0,0,0,0,0,0,0,0,0,0,0,0,0,0,0,0,0,0,0,0,0,0,0,0,0,0,0,0,0,0,0,0,0,0,0,0,0,0,0,0,0,0,0,0,0,0,0,0,0]","[0,0,0,0,0,0,0,0,0,0,0,0,0,0,0,0,0,0,0,0,0,0,0,0,0,0,0,0,0,0,0,0,0,0,0,0,0,0,0,0,0,0,0,0,0,0,0,0,0,0,0,0,0,0,0,0,0,0,0,0,0,0,0]","[0,0,0,0,0,0,0,0,0,0,0,0,0,0,0,0,0,0,0,0,0,0,0,0,0,0,0,0,0,0,0,0,0,0,0,0,0,0,0,0,0,0,0,0,0,0,0,0,0,0,0,0,0,0,0,0,0,0,0,0,0,0,0]","[0,0.016699999988077252,0.0345999999642288,0.04949999999999477,0.0660999999642371,0.08289999997614927,0.09949999999999193,0.11619999998806918,0.13509999996423971,0.14979999995230742,0.16599999999999682,0.18309999996422732,0.19939999997615132,0.2167999999523147,0.2348999999761503,0.2494999999999976,0.26599999999999113,0.2827999999523172,0.29959999996422937,0.31639999997615575,0.33569999998807987,0.3495999999642265,0.36609999996423426,0.3827999999523115,0.4076999999880684,0.4160999999642314,0.4328999999761578,0.44959999996423505,0.4661999999880777,0.4827999999523058,0.49979999995231594,0.5166999999880773,0.5332999999523054,0.5495999999642294,0.566199999988072,0.5826999999880798,0.5994999999999919,0.624199999988079,0.6326999999880769,0.6494999999999891,0.6660999999642314,0.6827999999523087,0.699599999964235,0.716599999964231,0.732899999976155,0.7497999999523159,0.7662999999523095,0.7828999999761521,0.7956999999880736,0.8166999999880744,0.8331999999880679,0.8496999999880757,0.8661999999880692,0.8828999999761606,0.8997999999523074,0.9121999999880757,0.9335999999642297,0.9497999999523188,0.9664999999999964,0.9789999999999992,1.0002999999523183,1.0164999999999935,1.0330999999642358]",6,0,6,0,1,0.1994,,,,
O211111111,2024-11-28_16h21.41.769,GoFitts,2023.2.3,Win32,64.51612903,"[-34.529486995267426,-328.52612369031095]","[-34.52948699526713,328.526123690311]",51,660.6714748,4.75,0,0.6333,"[-33,-33,-33,-33,-33,-33,-33,-33,-33,-33,-33,-34,-37,-40,-44,-51,-57,-65,-72,-73,-71,-60,-48,-37,-30,-22,-18,-14,-12,-11,-10,-9,-9,-9,-9,-9,-9,-9,-11,-13,-16,-20,-22,-22,-22,-22,-23,-23,-23,-23,-23,-23,-23,-23,-23,-23,-23,-23,-23,-23,-23,-23,-23,-23,-23,-23,-23,-23,-23,-23]","[-347,-347,-347,-347,-347,-347,-347,-347,-347,-347,-343,-336,-329,-320,-306,-290,-272,-244,-214,-177,-116,-15,81,159,213,252,273,293,302,309,316,322,326,327,328,328,328,328,328,329,330,332,333,333,333,333,333,333,333,333,333,333,333,333,333,333,333,333,333,333,333,333,333,333,333,333,333,333,333,333]","[0,0,0,0,0,0,0,0,0,0,0,0,0,0,0,0,0,0,0,0,0,0,0,0,0,0,0,0,0,0,0,0,0,0,0,0,0,0,0,0,0,0,0,0,0,0,0,0,0,0,0,0,0,0,0,0,0,0,0,0,0,0,0,0,0,0,0,0,0,0]","[0,0,0,0,0,0,0,0,0,0,0,0,0,0,0,0,0,0,0,0,0,0,0,0,0,0,0,0,0,0,0,0,0,0,0,0,0,0,0,0,0,0,0,0,0,0,0,0,0,0,0,0,0,0,0,0,0,0,0,0,0,0,0,0,0,0,0,0,0,0]","[0,0,0,0,0,0,0,0,0,0,0,0,0,0,0,0,0,0,0,0,0,0,0,0,0,0,0,0,0,0,0,0,0,0,0,0,0,0,0,0,0,0,0,0,0,0,0,0,0,0,0,0,0,0,0,0,0,0,0,0,0,0,0,0,0,0,0,0,0,0]","[0,0.016199999988089075,0.03319999998808498,0.04979999995232731,0.0660999999642371,0.0882999999523264,0.09950000000000614,0.11639999997616712,0.13279999995232572,0.14829999995232868,0.1642999999523198,0.18379999995232765,0.19950000000000045,0.21629999995232652,0.23289999997616917,0.2493999999761627,0.2661999999880891,0.2828999999761663,0.299500000000009,0.31619999998808623,0.33319999998808214,0.3492999999523221,0.36599999999999966,0.382599999964242,0.39989999997617076,0.4163999999761643,0.4328999999761578,0.45079999995232356,0.46589999997615905,0.4825999999642363,0.4993999999761627,0.5160000000000053,0.5328999999761663,0.549500000000009,0.5690999999642372,0.5830999999642472,0.5991999999880875,0.61489999997616,0.6332999999523281,0.6495999999642379,0.6660999999642456,0.6825999999642391,0.6993999999761655,0.7160999999642428,0.7330000000000041,0.7452999999523229,0.7698999999761611,0.7830999999642501,0.7962999999523248,0.8168999999761581,0.8325999999642448,0.8493999999761712,0.8660999999642485,0.8841999999880841,0.8958999999761659,0.9170999999642362,0.9326999999880883,0.9491999999880818,0.9660000000000082,0.9786999999880805,1.001399999976158,1.016199999988089,1.0326999999880826,1.049500000000009,1.0661999999880862,1.0825999999642448,1.0953999999761663,1.1163999999761671,1.1287999999523208,1.1455999999642472]",7,0,7,0,1,0.2493,,,,
O211111111,2024-11-28_16h21.41.769,GoFitts,2023.2.3,Win32,64.51612903,"[-34.52948699526713,328.526123690311]","[102.07935671324655,-314.1679556417993]",51,660.6714748,4.75,0,0.8869,"[-23,-23,-23,-23,-23,-23,-23,-23,-23,-23,-23,-23,-23,-23,-23,-23,-23,-23,-23,-21,-17,-13,-10,-3,2,6,11,14,16,18,20,23,26,28,29,31,31,31,31,31,31,31,31,31,31,33,36,40,45,50,57,64,73,79,84,87,89,89,89,89,89,89,89,89,89,89,89,89,89,89,89,89,89,89,89,89,89,89,89,89,89,90,91,91]","[333,333,333,333,333,333,333,333,333,333,333,333,333,333,333,333,333,333,333,302,260,206,162,108,56,9,-47,-94,-127,-158,-176,-199,-217,-234,-248,-258,-264,-270,-276,-282,-288,-291,-294,-296,-297,-298,-300,-302,-305,-306,-308,-310,-312,-314,-317,-318,-319,-319,-319,-319,-319,-319,-319,-319,-319,-319,-319,-319,-319,-319,-319,-319,-319,-319,-319,-319,-319,-319,-319,-319,-319,-319,-320,-320]","[0,0,0,0,0,0,0,0,0,0,0,0,0,0,0,0,0,0,0,0,0,0,0,0,0,0,0,0,0,0,0,0,0,0,0,0,0,0,0,0,0,0,0,0,0,0,0,0,0,0,0,0,0,0,0,0,0,0,0,0,0,0,0,0,0,0,0,0,0,0,0,0,0,0,0,0,0,0,0,0,0,0,0,0]","[0,0,0,0,0,0,0,0,0,0,0,0,0,0,0,0,0,0,0,0,0,0,0,0,0,0,0,0,0,0,0,0,0,0,0,0,0,0,0,0,0,0,0,0,0,0,0,0,0,0,0,0,0,0,0,0,0,0,0,0,0,0,0,0,0,0,0,0,0,0,0,0,0,0,0,0,0,0,0,0,0,0,0,0]","[0,0,0,0,0,0,0,0,0,0,0,0,0,0,0,0,0,0,0,0,0,0,0,0,0,0,0,0,0,0,0,0,0,0,0,0,0,0,0,0,0,0,0,0,0,0,0,0,0,0,0,0,0,0,0,0,0,0,0,0,0,0,0,0,0,0,0,0,0,0,0,0,0,0,0,0,0,0,0,0,0,0,0,0]","[0,0.0204000000357496,0.032600000023833786,0.05410000002383697,0.06599999999998829,0.08790000003575926,0.10340000003576222,0.11590000003575085,0.13740000003575403,0.15330000001191024,0.16610000002383174,0.18999999999999773,0.19950000000000045,0.21660000002383129,0.23740000003576256,0.24969999998806713,0.27069999998806793,0.28690000003575733,0.29949999999999477,0.32099999999999795,0.3369999999999891,0.35499999999998977,0.36999999999999034,0.3866999999880676,0.4034000000357594,0.4201999999880712,0.43669999998807896,0.45340000003575653,0.4701000000238338,0.48910000002383924,0.5034999999999883,0.5204999999999984,0.5368000000119082,0.5533000000119159,0.5699000000357586,0.5866000000238358,0.6034000000357622,0.6199000000357557,0.6364999999999981,0.6533000000119102,0.6701999999880712,0.6864999999999952,0.7033000000119216,0.7198000000119151,0.736800000011911,0.7533000000119188,0.7699000000357614,0.7869000000357573,0.8033000000119159,0.8199000000357586,0.8368000000119196,0.8531999999880782,0.8701000000238395,0.8869000000357516,0.9033000000119102,0.9199000000357529,0.9405000000000001,0.9578000000119147,0.9706000000238362,0.9871000000238297,0.9993000000119139,1.0211999999880703,1.0369000000357573,1.0496000000238297,1.0706999999880793,1.082499999999996,1.1048000000119202,1.1199999999999903,1.136600000023833,1.1529999999999916,1.1696999999880688,1.1864999999999952,1.2034000000357565,1.2158000000119102,1.2374000000357626,1.2534000000357537,1.269999999999996,1.2866999999880733,1.3034999999999997,1.3198000000119094,1.3366999999880704,1.3531999999880782,1.3699999999999903,1.3876000000238378]",8,0,8,0,1,0.3209,,,,
O211111111,2024-11-28_16h21.41.769,GoFitts,2023.2.3,Win32,64.51612903,"[102.07935671324655,-314.1679556417993]","[-165.1678687117577,286.0791403866304]",51,660.6714748,4.75,0,0.5162,"[91,91,91,91,91,91,91,91,91,92,92,92,92,92,92,92,96,96,92,77,53,17,-25,-60,-87,-108,-121,-131,-139,-145,-149,-152,-155,-157,-157,-158,-160,-160,-160,-161,-161,-161,-161,-161,-161,-161,-161,-161,-161,-161,-161,-161,-161,-161,-161,-161,-161,-161,-161,-161,-161,-161]","[-320,-320,-320,-320,-320,-320,-321,-321,-321,-321,-321,-321,-321,-321,-321,-321,-302,-272,-231,-175,-116,-41,32,92,136,170,196,219,239,254,265,272,277,281,284,285,287,288,289,290,290,290,290,290,290,290,290,290,290,290,290,290,290,290,290,290,290,290,290,290,290,290]","[0,0,0,0,0,0,0,0,0,0,0,0,0,0,0,0,0,0,0,0,0,0,0,0,0,0,0,0,0,0,0,0,0,0,0,0,0,0,0,0,0,0,0,0,0,0,0,0,0,0,0,0,0,0,0,0,0,0,0,0,0,0]","[0,0,0,0,0,0,0,0,0,0,0,0,0,0,0,0,0,0,0,0,0,0,0,0,0,0,0,0,0,0,0,0,0,0,0,0,0,0,0,0,0,0,0,0,0,0,0,0,0,0,0,0,0,0,0,0,0,0,0,0,0,0]","[0,0,0,0,0,0,0,0,0,0,0,0,0,0,0,0,0,0,0,0,0,0,0,0,0,0,0,0,0,0,0,0,0,0,0,0,0,0,0,0,0,0,0,0,0,0,0,0,0,0,0,0,0,0,0,0,0,0,0,0,0,0]","[0,0.015100000023849702,0.03169999998807782,0.048500000000004206,0.06140000003576063,0.08360000002384993,0.09940000003577154,0.11530000001192775,0.13180000001192127,0.14869999998808225,0.16500000000000625,0.1833000000119256,0.19950000000000045,0.2154000000357712,0.23319999998808782,0.24869999998807657,0.2653000000119192,0.28230000001192934,0.298900000035772,0.3166999999880886,0.3324000000357614,0.34900000000000375,0.36530000001192775,0.3819000000357704,0.3989000000357663,0.4164999999999992,0.4321999999880859,0.44990000003576824,0.46530000001192207,0.482300000011918,0.49850000000000705,0.5161999999880749,0.5321000000238456,0.5506000000238487,0.5656000000238492,0.5834000000357662,0.5990000000000038,0.6161999999880834,0.6321000000238399,0.6488000000119172,0.6655000000000086,0.6819000000357676,0.6984000000357611,0.7151000000238383,0.732199999988083,0.7510000000000048,0.7653000000119192,0.7819000000357619,0.7949000000357671,0.8159000000357679,0.8279000000357684,0.8446000000238456,0.8661999999880834,0.8821999999880887,0.8984999999999985,0.9115000000000038,0.9329000000357723,0.9446000000238399,0.9613000000119172,0.9828000000119204,0.9986999999880766,1.0176000000238474]",9,0,9,0,1,0.2823,,,,
O211111111,2024-11-28_16h21.41.769,GoFitts,2023.2.3,Win32,64.51612903,"[-165.1678687117577,286.0791403866304]","[221.03775228419764,-245.48729393654475]",51,660.6714748,4.75,0,0.6473,"[-161,-161,-161,-161,-161,-161,-161,-161,-161,-161,-158,-143,-125,-88,-51,2,48,90,125,152,163,167,170,171,172,172,173,174,175,175,176,178,179,179,180,185,190,195,201,205,209,212,213,213,213,213,213,213,213,213,213,213,213,213,213,213,213,213,213,213,213,213,213,213,213,213,213,213,213,213]","[290,290,290,290,290,290,290,290,290,290,283,258,230,178,128,62,5,-48,-98,-139,-157,-169,-178,-184,-192,-201,-206,-212,-218,-224,-229,-235,-236,-237,-238,-240,-241,-241,-242,-242,-242,-243,-243,-243,-243,-243,-243,-243,-243,-243,-243,-243,-243,-243,-243,-243,-243,-243,-243,-243,-243,-243,-243,-243,-243,-243,-243,-243,-243,-243]","[0,0,0,0,0,0,0,0,0,0,0,0,0,0,0,0,0,0,0,0,0,0,0,0,0,0,0,0,0,0,0,0,0,0,0,0,0,0,0,0,0,0,0,0,0,0,0,0,0,0,0,0,0,0,0,0,0,0,0,0,0,0,0,0,0,0,0,0,0,0]","[0,0,0,0,0,0,0,0,0,0,0,0,0,0,0,0,0,0,0,0,0,0,0,0,0,0,0,0,0,0,0,0,0,0,0,0,0,0,0,0,0,0,0,0,0,0,0,0,0,0,0,0,0,0,0,0,0,0,0,0,0,0,0,0,0,0,0,0,0,0]","[0,0,0,0,0,0,0,0,0,0,0,0,0,0,0,0,0,0,0,0,0,0,0,0,0,0,0,0,0,0,0,0,0,0,0,0,0,0,0,0,0,0,0,0,0,0,0,0,0,0,0,0,0,0,0,0,0,0,0,0,0,0,0,0,0,0,0,0,0,0]","[0,0.013800000011912061,0.030200000047685194,0.04710000002384618,0.0636000000238397,0.08030000001191695,0.09960000002384106,0.11370000004768599,0.13220000004767485,0.14330000001191934,0.1641000000238364,0.18080000001191365,0.19710000002383765,0.21580000001192445,0.23049999999999216,0.2469999999999999,0.2639999999999958,0.2805000000000035,0.2972000000476811,0.3160000000000025,0.3305000000000007,0.34710000002384334,0.3638000000119206,0.3807000000476819,0.3973000000119242,0.4158000000119131,0.430499999999995,0.4472000000476868,0.46399999999999864,0.48040000003575756,0.49720000004768394,0.5309999999999917,0.5474000000357648,0.564200000047677,0.5766000000238449,0.5983000000119176,0.6161000000238346,0.6308000000119165,0.6473000000119242,0.6640000000000015,0.680700000047679,0.6973000000119214,0.7159000000357594,0.7338000000119251,0.7471000000238348,0.7637000000476775,0.7809000000357571,0.7997000000476788,0.8139000000357584,0.830300000011917,0.8433000000119222,0.8641000000238392,0.8794999999999931,0.900600000023843,0.9138000000119177,0.930700000047679,0.9469000000357539,0.9638000000119149,0.9806000000238413,0.9994999999999976,1.013800000011912,1.0302000000476852,1.043300000011925,1.0731000000238424,1.0769999999999982,1.0993000000119224,1.1099000000357648,1.130700000047682,1.143500000000003,1.165200000047676]",10,0,10,0,1,0.1808,,,,
O211111111,2024-11-28_16h21.41.769,GoFitts,2023.2.3,Win32,64.51612903,"[221.03775228419764,-245.48729393654475]","[-267.2472254250044,194.1664747627013]",51,660.6714748,4.75,0,0.4657,"[213,213,213,213,213,213,213,213,213,213,213,203,181,145,84,13,-47,-111,-172,-210,-234,-239,-243,-244,-244,-244,-244,-245,-246,-247,-247,-247,-247,-248,-248,-248,-248,-248,-248,-248,-248,-248,-248,-248,-248,-248,-248,-248,-248,-248,-248,-248,-248,-248,-248,-248,-248,-248,-248]","[-243,-243,-243,-243,-243,-243,-243,-243,-243,-243,-234,-218,-190,-153,-98,-34,18,72,119,148,169,174,178,180,180,180,180,181,185,186,186,187,187,188,188,188,188,188,188,188,188,188,188,188,188,188,188,188,188,188,188,188,188,188,188,188,188,188,188]","[0,0,0,0,0,0,0,0,0,0,0,0,0,0,0,0,0,0,0,0,0,0,0,0,0,0,0,0,0,0,0,0,0,0,0,0,0,0,0,0,0,0,0,0,0,0,0,0,0,0,0,0,0,0,0,0,0,0,0]","[0,0,0,0,0,0,0,0,0,0,0,0,0,0,0,0,0,0,0,0,0,0,0,0,0,0,0,0,0,0,0,0,0,0,0,0,0,0,0,0,0,0,0,0,0,0,0,0,0,0,0,0,0,0,0,0,0,0,0]","[0,0,0,0,0,0,0,0,0,0,0,0,0,0,0,0,0,0,0,0,0,0,0,0,0,0,0,0,0,0,0,0,0,0,0,0,0,0,0,0,0,0,0,0,0,0,0,0,0,0,0,0,0,0,0,0,0,0,0]","[0,0.015099999964235167,0.02750000000000341,0.049199999988076115,0.0648999999761628,0.08179999995232379,0.09799999999999898,0.12350000000000705,0.13169999998808635,0.14469999998807737,0.16550000000000864,0.18159999996423437,0.1980000000000075,0.21479999995231935,0.23159999996424574,0.24850000000000705,0.2646999999880819,0.2815000000000083,0.2980000000000018,0.31469999998807907,0.337799999952324,0.3482999999523173,0.36489999997615996,0.38359999996424676,0.39809999996424494,0.4146999999880876,0.4312999999523157,0.44439999997615587,0.4656999999880753,0.48400000000000887,0.4981999999880884,0.5150000000000006,0.5313999999761592,0.5566999999880835,0.5645000000000095,0.5823999999761611,0.5982999999523173,0.6145000000000067,0.6313999999761677,0.6478999999761612,0.6650999999642409,0.6820000000000022,0.6980999999642421,0.7145999999642356,0.731399999976162,0.7440999999642344,0.7666999999880773,0.7812999999523242,0.7985000000000042,0.8143999999761604,0.8312999999523214,0.847899999976164,0.8646999999880762,0.8815000000000026,0.8982999999523145,0.9145000000000039,0.9311999999880811,0.9441999999880863,0.9666999999880801]",11,0,11,0,1,0.1816,,,,
O211111111,2024-11-28_16h21.41.769,GoFitts,2023.2.3,Win32,64.51612903,"[-267.2472254250044,194.1664747627013]","[301.7767124202716,-134.3596489276097]",51,660.6714748,4.75,0,0.6645,"[-248,-248,-248,-248,-248,-248,-248,-248,-248,-248,-248,-248,-248,-247,-228,-199,-165,-128,-81,-30,30,86,131,163,189,213,234,252,266,273,276,276,277,277,278,279,281,281,281,281,281,282,282,282,282,282,282,282,282,282,282,282,282,282,282,282,282,282,282,282,282,282,282,282,282,282,282,282,282,282,282,282]","[188,188,188,188,188,188,188,188,188,188,188,188,188,188,172,153,131,112,90,65,37,8,-14,-32,-50,-66,-79,-92,-101,-105,-108,-108,-108,-109,-110,-113,-115,-117,-118,-119,-120,-120,-120,-120,-120,-120,-120,-120,-120,-120,-120,-120,-120,-120,-120,-120,-120,-120,-120,-120,-120,-120,-120,-120,-120,-120,-120,-120,-120,-120,-120,-120]","[0,0,0,0,0,0,0,0,0,0,0,0,0,0,0,0,0,0,0,0,0,0,0,0,0,0,0,0,0,0,0,0,0,0,0,0,0,0,0,0,0,0,0,0,0,0,0,0,0,0,0,0,0,0,0,0,0,0,0,0,0,0,0,0,0,0,0,0,0,0,0,0]","[0,0,0,0,0,0,0,0,0,0,0,0,0,0,0,0,0,0,0,0,0,0,0,0,0,0,0,0,0,0,0,0,0,0,0,0,0,0,0,0,0,0,0,0,0,0,0,0,0,0,0,0,0,0,0,0,0,0,0,0,0,0,0,0,0,0,0,0,0,0,0,0]","[0,0,0,0,0,0,0,0,0,0,0,0,0,0,0,0,0,0,0,0,0,0,0,0,0,0,0,0,0,0,0,0,0,0,0,0,0,0,0,0,0,0,0,0,0,0,0,0,0,0,0,0,0,0,0,0,0,0,0,0,0,0,0,0,0,0,0,0,0,0,0,0]","[0,0.014500000000012392,0.031100000023855046,0.04380000001192741,0.06550000000000011,0.08030000001193116,0.0986000000238505,0.11450000000000671,0.13119999998808396,0.1478000000119266,0.1641999999880852,0.18110000002384652,0.19760000002385425,0.21450000000000102,0.23110000002384368,0.2476000000238514,0.26430000001192866,0.28110000002385505,0.2979000000357672,0.31440000003577495,0.33100000000000307,0.34840000003576677,0.364300000011923,0.3810000000000002,0.39800000000001035,0.414600000023853,0.4311999999880811,0.44780000001192377,0.464500000000001,0.4811999999880925,0.4976000000238514,0.5144000000357636,0.5313000000119246,0.5476999999880832,0.5643000000119258,0.5810000000000031,0.5976999999880803,0.6144000000357721,0.6311000000238494,0.6476999999880917,0.6645000000000039,0.6811000000238465,0.6975000000000051,0.7143000000119315,0.7311999999880925,0.747699999988086,0.7605000000000075,0.7821000000238456,0.7978000000119323,0.8149000000357631,0.8309000000357685,0.8476000000238457,0.8644000000357721,0.8808000000119307,0.8938000000119217,0.9155000000000086,0.9311999999880811,0.9476999999880888,0.9641000000238478,0.9799000000357694,0.9996999999880813,1.0153000000119334,1.0271000000238502,1.0483000000119205,1.0645000000000095,1.0811999999880868,1.0976000000238457,1.1146000000238416,1.1311000000238494,1.1496000000238524,1.1641999999880852,1.1814999999999998]",12,0,12,0,1,0.2311,,,,
O211111111,2024-11-28_16h21.41.769,GoFitts,2023.2.3,Win32,64.51612903,"[301.7767124202716,-134.3596489276097]","[-323.1171089974442,68.6806617052545]",51,660.6714748,4.75,0,0.7494,"[282,282,282,282,282,282,282,282,282,282,282,282,282,282,282,282,282,274,256,222,166,110,-16,-111,-200,-269,-322,-346,-359,-362,-364,-364,-364,-364,-364,-364,-364,-364,-364,-364,-364,-364,-359,-354,-348,-339,-332,-327,-324,-324,-324,-324,-324,-324,-324,-324,-324,-324,-324,-324,-324,-324,-324,-324,-324,-324,-324,-324,-324,-324,-324,-324,-324,-324,-324,-324,-324]","[-120,-120,-120,-120,-120,-120,-120,-120,-120,-120,-120,-120,-120,-120,-120,-120,-120,-117,-110,-97,-76,-56,-14,19,47,68,83,90,92,92,92,92,92,92,92,92,92,92,92,92,92,92,89,85,80,74,70,68,66,65,65,65,65,65,65,65,65,65,65,65,65,65,65,65,65,65,65,65,65,65,65,65,65,65,65,65,65]","[0,0,0,0,0,0,0,0,0,0,0,0,0,0,0,0,0,0,0,0,0,0,0,0,0,0,0,0,0,0,0,0,0,0,0,0,0,0,0,0,0,0,0,0,0,0,0,0,0,0,0,0,0,0,0,0,0,0,0,0,0,0,0,0,0,0,0,0,0,0,0,0,0,0,0,0,0]","[0,0,0,0,0,0,0,0,0,0,0,0,0,0,0,0,0,0,0,0,0,0,0,0,0,0,0,0,0,0,0,0,0,0,0,0,0,0,0,0,0,0,0,0,0,0,0,0,0,0,0,0,0,0,0,0,0,0,0,0,0,0,0,0,0,0,0,0,0,0,0,0,0,0,0,0,0]","[0,0,0,0,0,0,0,0,0,0,0,0,0,0,0,0,0,0,0,0,0,0,0,0,0,0,0,0,0,0,0,0,0,0,0,0,0,0,0,0,0,0,0,0,0,0,0,0,0,0,0,0,0,0,0,0,0,0,0,0,0,0,0,0,0,0,0,0,0,0,0,0,0,0,0,0,0]","[0,0.016199999988074865,0.028799999952312305,0.0497999999523131,0.06449999999999534,0.0835999999642354,0.09959999996424074,0.115699999988081,0.1325000000000074,0.1490000000000009,0.16169999998808748,0.18079999995231333,0.19979999995231879,0.2162999999523123,0.2325000000000017,0.24929999995231356,0.26600000000000534,0.28239999997616394,0.2992999999523249,0.31589999997615337,0.33269999998807975,0.349399999976157,0.3675999999642414,0.38289999997616064,0.39919999998808464,0.4160999999642456,0.4327999999523229,0.4492999999523164,0.46589999997615905,0.4835000000000065,0.4995999999642322,0.5156999999880867,0.528399999976159,0.5451999999880854,0.5685999999642348,0.5782999999523213,0.5997999999523245,0.6116999999880761,0.633399999976163,0.6492999999523192,0.6680000000000064,0.6782999999523156,0.6998999999761537,0.7160000000000082,0.7323999999761668,0.7493999999761627,0.767699999988082,0.7823999999761639,0.7991999999880761,0.8160000000000025,0.8323999999761611,0.8490999999642384,0.8675999999642414,0.8823999999761583,0.8990000000000009,0.9182999999523247,0.9322999999523205,0.9491999999880818,0.965899999976159,0.9838999999761597,0.9992999999523136,1.0156999999880867,1.0286999999880777,1.0495999999642436,1.0658999999761534,1.083899999976154,1.099399999976157,1.1118999999761598,1.137099999964235,1.1493999999761542,1.1657999999523128,1.1825000000000045,1.1998999999761537,1.2156999999880753,1.23279999995232,1.2452999999523229,1.2666999999880773]",13,0,13,0,1,0.2824,,,,
O211111111,2024-11-28_16h21.41.769,GoFitts,2023.2.3,Win32,64.51612903,"[-323.1171089974442,68.6806617052545]","[330.3357374235156,0]",51,660.6714748,4.75,0,0.6486,"[-324,-324,-324,-324,-324,-324,-324,-324,-324,-321,-314,-302,-279,-239,-170,-95,4,100,182,231,258,272,285,296,304,308,310,310,310,310,310,310,310,309,309,309,309,310,311,312,312,313,314,314,315,315,315,315,315,315,315,315,315,315,315,315,315,315,315,315,315,315,315,315,315,315,315,315,315,315]","[65,65,65,65,65,65,65,65,65,64,61,57,49,32,5,-20,-48,-75,-94,-97,-96,-88,-80,-72,-64,-56,-53,-50,-46,-44,-43,-40,-38,-33,-29,-26,-22,-19,-17,-16,-14,-13,-13,-11,-11,-11,-11,-11,-11,-11,-11,-11,-11,-11,-11,-11,-11,-11,-11,-11,-11,-11,-11,-11,-11,-11,-11,-11,-11,-11]","[0,0,0,0,0,0,0,0,0,0,0,0,0,0,0,0,0,0,0,0,0,0,0,0,0,0,0,0,0,0,0,0,0,0,0,0,0,0,0,0,0,0,0,0,0,0,0,0,0,0,0,0,0,0,0,0,0,0,0,0,0,0,0,0,0,0,0,0,0,0]","[0,0,0,0,0,0,0,0,0,0,0,0,0,0,0,0,0,0,0,0,0,0,0,0,0,0,0,0,0,0,0,0,0,0,0,0,0,0,0,0,0,0,0,0,0,0,0,0,0,0,0,0,0,0,0,0,0,0,0,0,0,0,0,0,0,0,0,0,0,0]","[0,0,0,0,0,0,0,0,0,0,0,0,0,0,0,0,0,0,0,0,0,0,0,0,0,0,0,0,0,0,0,0,0,0,0,0,0,0,0,0,0,0,0,0,0,0,0,0,0,0,0,0,0,0,0,0,0,0,0,0,0,0,0,0,0,0,0,0,0,0]","[0,0.0151999999880843,0.027800000011922066,0.0496999999880785,0.06539999997616519,0.07809999996423755,0.09919999998807327,0.11549999999999727,0.1278999999761652,0.14930000001191956,0.1653000000119249,0.18189999997615303,0.1986999999880794,0.21539999997615666,0.23199999999999932,0.24869999998807657,0.2653999999761538,0.28189999997616155,0.29869999998807373,0.3150999999642323,0.33200000000000784,0.3486999999880851,0.36530000001192775,0.38180000001192127,0.3984999999999985,0.42369999998807373,0.431899999976153,0.44880000001192855,0.46519999998808714,0.4819999999999993,0.49869999998807657,0.515500000000003,0.5318999999761616,0.5486999999880737,0.5653000000119164,0.5818999999761587,0.598599999964236,0.6153999999761623,0.6321999999880745,0.6485999999642331,0.6651999999880758,0.681899999976153,0.6985999999642445,0.715099999964238,0.7320999999642339,0.7494999999999976,0.7653999999761538,0.7818999999761616,0.7985000000000042,0.8153999999761652,0.8321999999880774,0.8478000000119152,0.8665999999642366,0.8820999999642396,0.8986999999880823,0.9111999999880851,0.9333000000119256,0.9488000000119285,0.9671999999880825,0.982199999988083,0.9948000000119208,1.0155999999642376,1.0323000000119151,1.0485999999642388,1.0651999999880815,1.0818000000119241,1.0945999999642453,1.1155999999642319,1.1323000000119237,1.1490999999642355]",14,0,14,0,1,0.1987,,,,
O211111111,2024-11-28_16h21.41.769,GoFitts,2023.2.3,Win32,64.51612903,,,,,,0,,,,,,,,,,,,,,0,0,0,1
O211111111,2024-11-28_16h21.41.769,GoFitts,2023.2.3,Win32,64.51612903,"[-40,-57]","[-40.16078657109757,382.1043602056709]",81,768.4181957,4.32,1,0.783,"[-40,-40,-40,-40,-40,-40,-40,-40,-40,-40,-40,-40,-42,-42,-42,-42,-42,-42,-42,-44,-50,-57,-68,-92,-120,-147,-166,-173,-173,-167,-159,-151,-141,-131,-119,-111,-98,-93,-88,-85,-83,-82,-81,-81,-81,-81,-80,-76,-74,-72,-69,-67,-65,-64,-63,-61,-60,-57,-54,-51,-49,-48,-48,-48,-47,-47,-47,-47,-47,-47,-47,-47,-47,-47,-47,-47,-47,-47,-47]","[-57,-57,-57,-57,-57,-57,-57,-57,-57,-57,-57,-57,-57,-57,-57,-57,-57,-57,-57,-57,-54,-47,-33,7,64,130,187,232,266,288,309,326,343,357,370,378,386,390,393,395,396,396,396,396,396,396,395,391,388,386,383,382,381,380,380,380,380,380,380,380,380,381,381,381,381,381,381,381,381,381,381,381,381,381,381,381,381,381,381]","[0,0,0,0,0,0,0,0,0,0,0,0,0,0,0,0,0,0,0,0,0,0,0,0,0,0,0,0,0,0,0,0,0,0,0,0,0,0,0,0,0,0,0,0,0,0,0,0,0,0,0,0,0,0,0,0,0,0,0,0,0,0,0,0,0,0,0,0,0,0,0,0,0,0,0,0,0,0,0]","[0,0,0,0,0,0,0,0,0,0,0,0,0,0,0,0,0,0,0,0,0,0,0,0,0,0,0,0,0,0,0,0,0,0,0,0,0,0,0,0,0,0,0,0,0,0,0,0,0,0,0,0,0,0,0,0,0,0,0,0,0,0,0,0,0,0,0,0,0,0,0,0,0,0,0,0,0,0,0]","[0,0,0,0,0,0,0,0,0,0,0,0,0,0,0,0,0,0,0,0,0,0,0,0,0,0,0,0,0,0,0,0,0,0,0,0,0,0,0,0,0,0,0,0,0,0,0,0,0,0,0,0,0,0,0,0,0,0,0,0,0,0,0,0,0,0,0,0,0,0,0,0,0,0,0,0,0,0,0]","[0,0.015799999952307076,0.034299999952310145,0.04469999998806884,0.06639999997615575,0.07819999998807248,0.09969999998807566,0.1145999999642271,0.13400000000000034,0.14849999999999852,0.1653999999761595,0.17809999996423187,0.19979999995231879,0.2154999999999916,0.2325999999642363,0.24939999997614848,0.26139999997614893,0.2827999999523172,0.2987999999523083,0.3155999999642347,0.33279999995231435,0.3487999999523197,0.36549999999999727,0.3819999999999908,0.39869999998808225,0.41549999999999443,0.4329999999999927,0.4486999999880794,0.46659999996423096,0.48219999998806884,0.49859999996422744,0.5155999999642376,0.5330999999642358,0.5487999999523083,0.5652999999523161,0.5781999999880725,0.5995999999642265,0.6154999999999973,0.6326999999880769,0.6487999999523169,0.6653999999761595,0.681899999976153,0.698799999952314,0.7151999999880729,0.732899999976155,0.7485999999642274,0.7614999999999981,0.7830000000000013,0.7987999999523083,0.8155000000000001,0.8325999999642306,0.8486999999880709,0.8652999999523132,0.8820999999642396,0.8990000000000009,0.9156999999880782,0.9325999999642391,0.948799999952314,0.9654999999999916,0.9818999999761502,0.9985999999642274,1.0164999999999935,1.0325999999642335,1.0504999999999995,1.0655000000000001,1.0814999999999912,1.099399999976157,1.1157999999523156,1.132699999988077,1.144799999952312,1.1660999999642314,1.1780999999642319,1.1995000000000005,1.2153999999761567,1.232099999964234,1.2447999999523063,1.2661999999880749,1.2821999999880802,1.2987999999523083]",0,0,0,0,1,0.1998,,,,
O211111111,2024-11-28_16h21.41.769,GoFitts,2023.2.3,Win32,64.51612903,"[-40.16078657109757,382.1043602056709]","[118.7271406273007,-365.40456612453477]",81,768.4181957,4.32,1,0.6996,"[-47,-47,-47,-47,-47,-47,-47,-47,-47,-47,-47,-47,-47,-47,-41,-28,0,21,41,61,88,108,122,129,134,139,147,153,158,161,165,168,170,170,170,170,170,167,163,159,152,144,137,132,129,127,126,126,126,126,126,125,125,125,125,125,125,125,125,125,125,125,125,125,125,125,125,125,125,125,125,125,125]","[381,381,381,381,381,381,381,381,381,381,381,381,381,381,361,320,250,193,125,53,-42,-117,-179,-218,-245,-271,-302,-324,-345,-359,-374,-386,-394,-398,-401,-403,-405,-405,-405,-405,-404,-401,-397,-394,-391,-390,-388,-388,-388,-387,-386,-385,-385,-385,-385,-385,-385,-385,-385,-385,-385,-385,-385,-385,-385,-385,-385,-385,-385,-385,-385,-385,-385]","[0,0,0,0,0,0,0,0,0,0,0,0,0,0,0,0,0,0,0,0,0,0,0,0,0,0,0,0,0,0,0,0,0,0,0,0,0,0,0,0,0,0,0,0,0,0,0,0,0,0,0,0,0,0,0,0,0,0,0,0,0,0,0,0,0,0,0,0,0,0,0,0,0]","[0,0,0,0,0,0,0,0,0,0,0,0,0,0,0,0,0,0,0,0,0,0,0,0,0,0,0,0,0,0,0,0,0,0,0,0,0,0,0,0,0,0,0,0,0,0,0,0,0,0,0,0,0,0,0,0,0,0,0,0,0,0,0,0,0,0,0,0,0,0,0,0,0]","[0,0,0,0,0,0,0,0,0,0,0,0,0,0,0,0,0,0,0,0,0,0,0,0,0,0,0,0,0,0,0,0,0,0,0,0,0,0,0,0,0,0,0,0,0,0,0,0,0,0,0,0,0,0,0,0,0,0,0,0,0,0,0,0,0,0,0,0,0,0,0,0,0]","[0,0.016600000023842654,0.034000000000006025,0.04940000003576017,0.0659000000357679,0.078800000011924,0.10010000002384345,0.11640000003576745,0.12870000004768656,0.15000000000000568,0.16620000004768087,0.17880000001191831,0.20010000002383777,0.21620000004769224,0.2347000000476811,0.2494999999999976,0.26660000002384265,0.2828000000119175,0.29940000003576017,0.31620000004768656,0.33380000001191945,0.3497000000476902,0.3684000000357628,0.38460000002383765,0.40140000003576404,0.41670000004768326,0.43480000001191854,0.44940000003576586,0.4661000000238431,0.4829000000357695,0.499400000035763,0.5164000000357589,0.5328000000119175,0.5496000000238439,0.566700000047689,0.5829999999999984,0.5996000000238411,0.6162000000476837,0.632800000011926,0.6493000000119196,0.6664999999999992,0.6827000000476886,0.6996000000238496,0.7162000000476922,0.7342000000476787,0.7497000000476817,0.7621000000238496,0.7838000000119223,0.7954000000357695,0.8169000000357585,0.8329999999999984,0.8495000000000061,0.8689999999999998,0.8826000000238423,0.899200000047685,0.9121000000238411,0.9330000000000069,0.9484000000357611,0.9675000000000011,0.9826000000238508,0.9993000000119281,1.0159000000357707,1.0289000000357618,1.0499999999999972,1.0662000000476866,1.0829000000357638,1.0994000000357715,1.1161000000238488,1.1327000000476914,1.1454000000357638,1.1668000000119179,1.1789000000357674,1.2001000000238378]",1,0,1,0,1,0.2495,,,,
O211111111,2024-11-28_16h21.41.769,GoFitts,2023.2.3,Win32,64.51612903,"[118.7271406273007,-365.40456612453477]","[-192.10454892206107,332.73483909811097]",81,768.4181957,4.32,1,0.5994,"[125,125,125,125,125,125,125,125,125,123,121,117,111,98,74,18,-26,-67,-98,-116,-132,-139,-144,-148,-150,-153,-156,-159,-161,-163,-163,-165,-166,-166,-167,-168,-170,-172,-173,-175,-177,-178,-179,-179,-179,-179,-179,-179,-179,-179,-179,-179,-179,-179,-179,-179,-179,-179,-179,-179,-179,-179,-179,-179,-179,-179,-179,-179]","[-385,-385,-385,-385,-385,-385,-385,-385,-384,-382,-381,-377,-369,-347,-297,-183,-94,2,77,127,168,199,223,242,253,263,272,278,282,286,289,290,292,293,294,296,299,301,303,305,307,310,311,312,313,313,313,313,313,313,313,313,313,313,313,313,313,313,313,313,313,313,313,313,313,313,313,313]","[0,0,0,0,0,0,0,0,0,0,0,0,0,0,0,0,0,0,0,0,0,0,0,0,0,0,0,0,0,0,0,0,0,0,0,0,0,0,0,0,0,0,0,0,0,0,0,0,0,0,0,0,0,0,0,0,0,0,0,0,0,0,0,0,0,0,0,0]","[0,0,0,0,0,0,0,0,0,0,0,0,0,0,0,0,0,0,0,0,0,0,0,0,0,0,0,0,0,0,0,0,0,0,0,0,0,0,0,0,0,0,0,0,0,0,0,0,0,0,0,0,0,0,0,0,0,0,0,0,0,0,0,0,0,0,0,0]","[0,0,0,0,0,0,0,0,0,0,0,0,0,0,0,0,0,0,0,0,0,0,0,0,0,0,0,0,0,0,0,0,0,0,0,0,0,0,0,0,0,0,0,0,0,0,0,0,0,0,0,0,0,0,0,0,0,0,0,0,0,0,0,0,0,0,0,0]","[0,0.016100000023840266,0.032400000035764265,0.04920000004767644,0.06449999999999534,0.08299999999999841,0.09890000003575494,0.11549999999999727,0.13230000001192366,0.14880000001191718,0.16549999999999443,0.18210000002383708,0.19890000003576347,0.21580000001192445,0.23260000002383663,0.25149999999999295,0.265700000047687,0.28230000001191513,0.2989000000357578,0.31580000001191877,0.332499999999996,0.34890000003575494,0.36570000004768133,0.38280000001191183,0.39930000001191956,0.41549999999999443,0.43360000002384425,0.44899999999999807,0.46580000001192445,0.4825000000000017,0.4989999999999952,0.5158000000119216,0.5324000000357643,0.5492000000476764,0.5666000000238398,0.5824000000357614,0.5994000000357573,0.6157000000476813,0.6322000000476748,0.6490000000000009,0.6656000000238436,0.6822000000476862,0.6989999999999981,0.7161000000238431,0.7322000000476834,0.7489999999999952,0.7658000000119216,0.7823000000119151,0.7989999999999924,0.8153000000119164,0.8322000000476777,0.8448000000119151,0.866600000023837,0.8823000000119237,0.8991000000238358,0.9163000000119155,0.9326000000238395,0.9492000000476821,0.9657000000476756,0.9784999999999968,0.9997000000476817,1.0156000000238379,1.0282000000476756,1.0498000000119134,1.0661000000238374,1.082499999999996,1.0951000000238338,1.1164000000357532]",2,0,2,0,1,0.2326,,,,
O211111111,2024-11-28_16h21.41.769,GoFitts,2023.2.3,Win32,64.51612903,"[-192.10454892206107,332.73483909811097]","[257.08606660902757,-285.5230029641973]",81,768.4181957,4.32,1,0.6156,"[-179,-179,-179,-179,-179,-179,-179,-161,-132,-102,-72,-28,36,110,189,237,274,297,312,318,320,320,320,320,320,320,318,314,312,311,309,307,304,301,296,290,285,280,278,277,277,276,275,274,273,271,271,271,270,270,270,270,270,270,270,270,270,270,270,270,270,270,270,270,270,270,270,270]","[313,313,313,313,313,313,307,274,224,177,125,59,-19,-98,-179,-228,-266,-293,-315,-326,-331,-331,-331,-331,-331,-332,-334,-335,-336,-336,-336,-336,-335,-332,-328,-323,-318,-313,-311,-310,-310,-310,-310,-309,-308,-307,-307,-307,-307,-307,-307,-307,-307,-307,-307,-307,-307,-307,-307,-307,-307,-307,-307,-307,-307,-307,-307,-307]","[0,0,0,0,0,0,0,0,0,0,0,0,0,0,0,0,0,0,0,0,0,0,0,0,0,0,0,0,0,0,0,0,0,0,0,0,0,0,0,0,0,0,0,0,0,0,0,0,0,0,0,0,0,0,0,0,0,0,0,0,0,0,0,0,0,0,0,0]","[0,0,0,0,0,0,0,0,0,0,0,0,0,0,0,0,0,0,0,0,0,0,0,0,0,0,0,0,0,0,0,0,0,0,0,0,0,0,0,0,0,0,0,0,0,0,0,0,0,0,0,0,0,0,0,0,0,0,0,0,0,0,0,0,0,0,0,0]","[0,0,0,0,0,0,0,0,0,0,0,0,0,0,0,0,0,0,0,0,0,0,0,0,0,0,0,0,0,0,0,0,0,0,0,0,0,0,0,0,0,0,0,0,0,0,0,0,0,0,0,0,0,0,0,0,0,0,0,0,0,0,0,0,0,0,0,0]","[0,0.015500000000002956,0.032699999988082595,0.04459999996424813,0.06639999997615575,0.08209999996424244,0.09880000001192002,0.11530000001192775,0.1320999999642396,0.1488000000119314,0.1653999999761595,0.18189999997616724,0.20000000000000284,0.21519999998808714,0.23209999996424813,0.24869999998807657,0.26550000000000296,0.2825999999642477,0.29869999998808794,0.31519999998808146,0.33209999996424244,0.34850000000000136,0.36530000001192775,0.38280000001192604,0.3988000000119314,0.4158000000119273,0.4335000000000093,0.44880000001192855,0.46530000001192207,0.4825999999642363,0.49850000000000705,0.5151999999880843,0.5320000000000107,0.5485999999642388,0.5651999999880815,0.5825000000000102,0.598599999964236,0.6155999999642461,0.632000000000005,0.6506999999880776,0.6658000000119273,0.6843000000119304,0.6986999999880794,0.7155000000000058,0.7319999999999993,0.7528000000119306,0.765500000000003,0.7821999999880802,0.7985999999642388,0.8151999999880815,0.8320999999642424,0.848599999964236,0.8653999999761623,0.8778999999761652,0.8993000000119196,0.9111999999880851,0.9326999999880883,0.9485999999642445,0.9658000000119245,0.982199999988083,0.9948999999761554,1.0166999999880773,1.0280999999642404,1.049500000000009,1.0658000000119188,1.0825000000000102,1.0990999999642384,1.1206999999880765]",3,0,3,0,1,0.1153,,,,
O211111111,2024-11-28_16h21.41.769,GoFitts,2023.2.3,Win32,64.51612903,"[257.08606660902757,-285.5230029641973]","[-310.8316895493619,225.83244150937097]",81,768.4181957,4.32,1,0.6791,"[270,270,270,270,270,270,270,270,270,270,270,270,270,270,270,264,239,198,141,65,-5,-68,-117,-151,-176,-191,-201,-206,-211,-214,-216,-218,-220,-222,-222,-222,-224,-231,-245,-257,-267,-274,-278,-280,-282,-283,-284,-285,-285,-286,-286,-286,-286,-286,-286,-286,-286,-286,-286,-286,-286,-286,-286,-286,-286,-286,-286,-286,-286,-286,-286,-286]","[-307,-307,-307,-307,-307,-307,-307,-307,-307,-307,-307,-307,-307,-306,-306,-293,-256,-196,-118,-31,40,94,133,160,181,193,203,207,212,215,217,219,222,222,223,223,223,223,224,226,226,226,226,226,226,225,224,224,224,224,224,224,224,224,224,224,224,224,224,224,224,224,224,224,224,224,224,224,224,224,224,224]","[0,0,0,0,0,0,0,0,0,0,0,0,0,0,0,0,0,0,0,0,0,0,0,0,0,0,0,0,0,0,0,0,0,0,0,0,0,0,0,0,0,0,0,0,0,0,0,0,0,0,0,0,0,0,0,0,0,0,0,0,0,0,0,0,0,0,0,0,0,0,0,0]","[0,0,0,0,0,0,0,0,0,0,0,0,0,0,0,0,0,0,0,0,0,0,0,0,0,0,0,0,0,0,0,0,0,0,0,0,0,0,0,0,0,0,0,0,0,0,0,0,0,0,0,0,0,0,0,0,0,0,0,0,0,0,0,0,0,0,0,0,0,0,0,0]","[0,0,0,0,0,0,0,0,0,0,0,0,0,0,0,0,0,0,0,0,0,0,0,0,0,0,0,0,0,0,0,0,0,0,0,0,0,0,0,0,0,0,0,0,0,0,0,0,0,0,0,0,0,0,0,0,0,0,0,0,0,0,0,0,0,0,0,0,0,0,0,0]","[0.00009999996423459834,0.011199999988079412,0.027999999999991587,0.04530000001192036,0.05699999999998795,0.07869999998807486,0.09430000001191274,0.11149999999999238,0.12789999997615098,0.14580000001191706,0.16100000000000136,0.17789999997614814,0.19430000001192127,0.21880000001191036,0.2278000000119107,0.24449999999998795,0.2611999999880794,0.27789999997615666,0.29469999998806884,0.3113000000119115,0.3278000000119192,0.3444999999999965,0.3610999999642388,0.37769999998806725,0.394199999988075,0.4111999999880709,0.4333000000119114,0.44439999997615587,0.46119999998806804,0.4795999999642362,0.494399999976153,0.5111999999880794,0.5278000000119221,0.5441999999880807,0.5613000000119115,0.5778000000119192,0.5943999999761473,0.6110999999642388,0.6280000000000001,0.6444999999999936,0.661099999964236,0.6790999999642366,0.6943000000119213,0.7110999999642331,0.7275999999642266,0.7441999999880693,0.7611999999880794,0.7778999999761567,0.7943999999761502,0.8113000000119115,0.8280999999642376,0.8444999999999965,0.8610999999642388,0.8734999999999928,0.8950999999642306,0.9069999999999965,0.9283999999761505,0.9444999999999908,0.9571999999880774,0.9798000000119202,0.9901999999880786,1.0123999999761537,1.0280999999642262,1.0440999999642315,1.056999999999988,1.0798000000119146,1.0943000000119127,1.1110999999642388,1.1278000000119164,1.1443999999761587,1.157099999964231,1.1800999999642272]",4,0,4,0,1,0.2779,,,,
O211111111,2024-11-28_16h21.41.769,GoFitts,2023.2.3,Win32,64.51612903,"[-310.8316895493619,225.83244150937097]","[350.99247612045957,-156.27191869629996]",81,768.4181957,4.32,1,0.6642,"[-286,-286,-286,-286,-286,-286,-286,-286,-286,-286,-276,-250,-203,-129,-34,70,178,275,362,406,433,442,443,443,443,443,443,443,443,442,436,430,425,419,402,395,387,383,380,378,376,373,370,368,365,363,362,362,362,362,362,362,362,362,362,362,362,362,362,362,362,362,362,362,362,362,362,362,362,362,362,362]","[224,224,224,224,224,224,224,224,224,224,215,195,161,108,45,-21,-83,-133,-174,-194,-204,-208,-209,-209,-209,-209,-209,-209,-209,-209,-207,-206,-205,-202,-198,-195,-192,-190,-189,-187,-186,-183,-180,-178,-174,-172,-171,-171,-170,-170,-170,-170,-170,-170,-170,-170,-170,-170,-170,-170,-170,-170,-170,-170,-170,-170,-170,-170,-170,-170,-170,-170]","[0,0,0,0,0,0,0,0,0,0,0,0,0,0,0,0,0,0,0,0,0,0,0,0,0,0,0,0,0,0,0,0,0,0,0,0,0,0,0,0,0,0,0,0,0,0,0,0,0,0,0,0,0,0,0,0,0,0,0,0,0,0,0,0,0,0,0,0,0,0,0,0]","[0,0,0,0,0,0,0,0,0,0,0,0,0,0,0,0,0,0,0,0,0,0,0,0,0,0,0,0,0,0,0,0,0,0,0,0,0,0,0,0,0,0,0,0,0,0,0,0,0,0,0,0,0,0,0,0,0,0,0,0,0,0,0,0,0,0,0,0,0,0,0,0]","[0,0,0,0,0,0,0,0,0,0,0,0,0,0,0,0,0,0,0,0,0,0,0,0,0,0,0,0,0,0,0,0,0,0,0,0,0,0,0,0,0,0,0,0,0,0,0,0,0,0,0,0,0,0,0,0,0,0,0,0,0,0,0,0,0,0,0,0,0,0,0,0]","[0,0.014399999976163258,0.030500000000003524,0.0473000000119157,0.06399999999999295,0.08080000001191934,0.10099999999999909,0.11299999999999955,0.132599999964242,0.14319999998808441,0.16450000000000387,0.18089999997616246,0.19730000001192138,0.2138000000119149,0.23059999996424096,0.24730000001191854,0.26389999997616087,0.28069999998807305,0.30049999999999955,0.3143999999761604,0.3305000000000007,0.34730000001192707,0.3640000000000043,0.38059999996423244,0.3971999999880751,0.4136999999880828,0.4263999999761552,0.4479999999999933,0.4598000000119242,0.48289999997615496,0.5003999999761533,0.5139999999999958,0.5303999999761544,0.5471999999880808,0.5701999999880769,0.5805000000000007,0.5974999999999966,0.6153999999761623,0.6308000000119165,0.6471999999880751,0.6641999999880852,0.6808000000119137,0.697399999976156,0.7138999999761637,0.7303000000119226,0.7473000000119185,0.7639999999999958,0.7805999999642381,0.7971999999880808,0.8136999999880743,0.8264999999999958,0.847899999976164,0.8641999999880738,0.8810999999642348,0.8973999999761588,0.9098000000119271,0.9266999999880738,0.9478999999761584,0.9641999999880824,0.9806999999880759,1.003699999988072,1.0138000000119263,1.0303000000119198,1.0483000000119205,1.0600999999642369,1.0819999999999936,1.097300000011927,1.115699999988081,1.1305999999642324,1.1503000000119243,1.1599999999999966,1.1814999999999998]",5,0,5,0,1,0.1808,,,,
O211111111,2024-11-28_16h21.41.769,GoFitts,2023.2.3,Win32,64.51612903,"[350.99247612045957,-156.27191869629996]","[-375.81320723632825,79.8815631603374]",81,768.4181957,4.32,1,0.5823,"[362,362,362,362,362,362,362,362,358,337,304,261,191,114,18,-61,-134,-193,-235,-256,-265,-269,-270,-270,-270,-270,-270,-271,-274,-276,-278,-279,-286,-307,-333,-355,-374,-388,-395,-397,-397,-397,-397,-397,-397,-397,-397,-397,-397,-397,-397,-397,-397,-397,-397,-397,-397,-397,-397,-397,-397,-397,-397,-397,-397,-397,-397]","[-170,-170,-170,-170,-170,-170,-170,-170,-169,-163,-153,-142,-117,-90,-57,-27,-1,20,32,38,41,42,42,42,42,42,42,42,43,43,43,43,45,50,58,64,69,73,76,76,76,76,76,76,76,76,76,76,76,76,76,76,76,76,76,76,76,76,76,76,76,76,76,76,76,76,76]","[0,0,0,0,0,0,0,0,0,0,0,0,0,0,0,0,0,0,0,0,0,0,0,0,0,0,0,0,0,0,0,0,0,0,0,0,0,0,0,0,0,0,0,0,0,0,0,0,0,0,0,0,0,0,0,0,0,0,0,0,0,0,0,0,0,0,0]","[0,0,0,0,0,0,0,0,0,0,0,0,0,0,0,0,0,0,0,0,0,0,0,0,0,0,0,0,0,0,0,0,0,0,0,0,0,0,0,0,0,0,0,0,0,0,0,0,0,0,0,0,0,0,0,0,0,0,0,0,0,0,0,0,0,0,0]","[0,0,0,0,0,0,0,0,0,0,0,0,0,0,0,0,0,0,0,0,0,0,0,0,0,0,0,0,0,0,0,0,0,0,0,0,0,0,0,0,0,0,0,0,0,0,0,0,0,0,0,0,0,0,0,0,0,0,0,0,0,0,0,0,0,0,0]","[0,0.015699999988086688,0.032299999952314806,0.04889999997615746,0.06819999998808157,0.08229999995231196,0.0986999999880851,0.1115000000000066,0.12839999997615337,0.14989999997615655,0.16850000000000875,0.18209999996423676,0.19889999997616314,0.21539999997615666,0.23199999999999932,0.24929999995231356,0.26550000000000296,0.2820999999642453,0.29889999997615746,0.3155000000000001,0.33209999996424244,0.34909999996423835,0.37639999997615803,0.38189999997615587,0.3985999999642331,0.4152999999523246,0.4321999999880859,0.44889999997616314,0.4655999999642404,0.48219999998808305,0.5010000000000048,0.5152999999523189,0.5322999999523148,0.5490000000000066,0.5657999999523184,0.582299999952312,0.5986999999880851,0.6153999999761623,0.6318999999761559,0.6490000000000009,0.6653999999761595,0.6822999999523205,0.6990999999642327,0.7153999999761567,0.7318999999761644,0.7486999999880766,0.7652999999523189,0.7817999999523124,0.7988999999761575,0.8155000000000001,0.8281999999880867,0.849399999976157,0.8654999999999973,0.8821999999880745,0.8990000000000009,0.9155000000000086,0.928199999988081,0.9489999999999981,0.9656999999880753,0.9823999999761668,0.9950000000000045,1.0163999999761586,1.0282999999523241,1.049500000000009,1.0656999999880838,1.0820999999642424,1.0990000000000038]",6,0,6,0,1,0.1684,,,,
O211111111,2024-11-28_16h21.41.769,GoFitts,2023.2.3,Win32,64.51612903,"[-375.81320723632825,79.8815631603374]","[384.2090978441223,0]",81,768.4181957,4.32,1,0.5661,"[-397,-397,-397,-397,-397,-397,-397,-397,-397,-397,-397,-397,-397,-397,-397,-397,-397,-397,-397,-394,-371,-342,-271,-228,-143,-50,26,107,169,241,275,307,333,346,351,354,357,361,364,364,366,368,376,380,387,390,392,392,392,392,392,392,392,392,392,392,392,392,392,392,392,392,392,392,392,392]","[76,76,76,76,76,76,76,76,76,76,76,76,76,76,76,76,76,76,76,76,71,63,44,35,20,5,-5,-11,-14,-15,-16,-16,-16,-16,-15,-15,-14,-13,-13,-13,-13,-11,-10,-9,-9,-9,-7,-7,-7,-7,-7,-7,-7,-7,-7,-7,-7,-7,-7,-7,-7,-7,-7,-7,-7,-7]","[0,0,0,0,0,0,0,0,0,0,0,0,0,0,0,0,0,0,0,0,0,0,0,0,0,0,0,0,0,0,0,0,0,0,0,0,0,0,0,0,0,0,0,0,0,0,0,0,0,0,0,0,0,0,0,0,0,0,0,0,0,0,0,0,0,0]","[0,0,0,0,0,0,0,0,0,0,0,0,0,0,0,0,0,0,0,0,0,0,0,0,0,0,0,0,0,0,0,0,0,0,0,0,0,0,0,0,0,0,0,0,0,0,0,0,0,0,0,0,0,0,0,0,0,0,0,0,0,0,0,0,0,0]","[0,0,0,0,0,0,0,0,0,0,0,0,0,0,0,0,0,0,0,0,0,0,0,0,0,0,0,0,0,0,0,0,0,0,0,0,0,0,0,0,0,0,0,0,0,0,0,0,0,0,0,0,0,0,0,0,0,0,0,0,0,0,0,0,0,0]","[0,0.01609999996423994,0.03189999997614734,0.05029999995231549,0.062399999976150866,0.08379999995231913,0.099399999976157,0.1157999999523156,0.1326999999880769,0.15229999995230514,0.16669999998806873,0.18309999996422732,0.1991999999880818,0.21599999999999397,0.2325999999642363,0.24919999998807896,0.26599999999999113,0.2786999999880777,0.299899999976148,0.31229999995231594,0.3335000000000008,0.349399999976157,0.37239999997615314,0.3826999999880769,0.39939999997615416,0.4181999999880759,0.4328999999761578,0.4492999999523164,0.465999999999994,0.4872999999523131,0.49929999995231356,0.5162999999523095,0.5330000000000013,0.5492999999523107,0.5660999999642371,0.5825999999642306,0.5992999999523079,0.6161999999880692,0.6330999999642302,0.6493999999761542,0.6660999999642314,0.6825999999642391,0.7063999999761563,0.715899999976159,0.7326999999880712,0.7492999999523136,0.7660999999642399,0.7825999999642335,0.7993999999761598,0.8160000000000025,0.8326999999880798,0.8509999999999991,0.866299999952318,0.8825999999642278,0.8968999999761564,0.9218999999761479,0.9330999999642273,0.9455999999642302,0.9678999999761544,0.9785999999642314,1,1.0158999999761562,1.0326999999880684,1.0493999999761598,1.0660000000000025,1.0786999999880749]",7,0,7,0,1,0.3724,,,,
O211111111,2024-11-28_16h21.41.769,GoFitts,2023.2.3,Win32,64.51612903,"[384.2090978441223,0]","[-375.81320723632825,-79.8815631603373]",81,768.4181957,4.32,1,0.6868,"[392,392,392,392,392,392,392,392,392,392,392,384,364,335,307,276,230,150,68,-15,-67,-108,-141,-170,-194,-210,-221,-233,-243,-249,-255,-259,-263,-270,-278,-286,-294,-306,-316,-324,-331,-337,-347,-361,-374,-385,-390,-394,-395,-396,-396,-396,-396,-396,-396,-396,-396,-396,-396,-396,-396,-396,-396,-396,-396,-396,-396,-396,-396,-396,-396,-396,-396]","[-7,-7,-7,-7,-7,-7,-7,-7,-7,-7,-7,-7,-7,-7,-11,-16,-22,-24,-24,-25,-25,-25,-25,-25,-27,-30,-33,-36,-39,-41,-43,-45,-48,-52,-55,-58,-60,-63,-65,-66,-68,-69,-71,-71,-72,-72,-72,-73,-73,-73,-73,-73,-73,-73,-73,-73,-73,-73,-73,-73,-73,-73,-73,-73,-73,-73,-73,-73,-73,-73,-73,-73,-73]","[0,0,0,0,0,0,0,0,0,0,0,0,0,0,0,0,0,0,0,0,0,0,0,0,0,0,0,0,0,0,0,0,0,0,0,0,0,0,0,0,0,0,0,0,0,0,0,0,0,0,0,0,0,0,0,0,0,0,0,0,0,0,0,0,0,0,0,0,0,0,0,0,0]","[0,0,0,0,0,0,0,0,0,0,0,0,0,0,0,0,0,0,0,0,0,0,0,0,0,0,0,0,0,0,0,0,0,0,0,0,0,0,0,0,0,0,0,0,0,0,0,0,0,0,0,0,0,0,0,0,0,0,0,0,0,0,0,0,0,0,0,0,0,0,0,0,0]","[0,0,0,0,0,0,0,0,0,0,0,0,0,0,0,0,0,0,0,0,0,0,0,0,0,0,0,0,0,0,0,0,0,0,0,0,0,0,0,0,0,0,0,0,0,0,0,0,0,0,0,0,0,0,0,0,0,0,0,0,0,0,0,0,0,0,0,0,0,0,0,0,0]","[0,0.02079999995231674,0.03700000000000614,0.0532999999523156,0.06989999997615826,0.08229999995231196,0.1039999999999992,0.11989999997615541,0.136299999952314,0.15319999998807532,0.1700999999642363,0.18659999996424403,0.2033999999761562,0.21999999999999886,0.2365999999642412,0.25329999995231844,0.26979999995231196,0.28659999996423835,0.30349999999999966,0.31989999997615826,0.33669999998808464,0.3534999999999968,0.3698999999761554,0.38649999999999807,0.4031999999880753,0.41979999995231765,0.43659999996424403,0.4531999999880725,0.4703999999761521,0.4865999999642412,0.5031999999880838,0.5196999999880774,0.5365000000000038,0.5533999999761647,0.5698999999761583,0.5870000000000033,0.6032999999523128,0.6197999999523205,0.6363999999761631,0.6531999999880753,0.6698999999761526,0.6867999999523136,0.7032999999523213,0.7199999999999989,0.7367999999523107,0.7545999999642419,0.7702999999523144,0.7867999999523221,0.8034999999999997,0.8196999999880745,0.8380999999642427,0.8531999999880782,0.8700000000000045,0.8866999999880818,0.9030999999642404,0.92029999995232,0.9364999999999952,0.9530999999642376,0.9695999999642311,0.9868999999761598,0.9989999999999952,1.0207999999523167,1.036899999976157,1.0506999999880833,1.0706999999880793,1.082499999999996,1.103399999976162,1.1202999999523229,1.1366999999880818,1.1531999999880753,1.1698999999761526,1.1863999999761603,1.2037999999523095]",8,0,8,0,1,0.22,,,,
O211111111,2024-11-28_16h21.41.769,GoFitts,2023.2.3,Win32,64.51612903,"[-375.81320723632825,-79.8815631603373]","[350.9924761204595,156.27191869629996]",81,768.4181957,4.32,1,0.4161,"[-396,-396,-396,-396,-396,-395,-392,-386,-380,-372,-361,-349,-329,-301,-254,-190,-118,-29,24,98,166,215,265,297,327,352,367,373,378,380,381,382,382,382,382,382,382,382,382,382,382,383,383,383,383,383,383,383,383,383,383,383,383,383,383,383,383]","[-73,-73,-73,-73,-73,-73,-72,-69,-66,-63,-61,-59,-57,-51,-41,-18,5,30,41,57,73,86,100,110,118,125,130,134,137,140,141,142,142,142,142,143,144,145,146,147,147,147,147,147,148,148,148,148,148,148,148,148,148,148,148,148,148]","[0,0,0,0,0,0,0,0,0,0,0,0,0,0,0,0,0,0,0,0,0,0,0,0,0,0,0,0,0,0,0,0,0,0,0,0,0,0,0,0,0,0,0,0,0,0,0,0,0,0,0,0,0,0,0,0,0]","[0,0,0,0,0,0,0,0,0,0,0,0,0,0,0,0,0,0,0,0,0,0,0,0,0,0,0,0,0,0,0,0,0,0,0,0,0,0,0,0,0,0,0,0,0,0,0,0,0,0,0,0,0,0,0,0,0]","[0,0,0,0,0,0,0,0,0,0,0,0,0,0,0,0,0,0,0,0,0,0,0,0,0,0,0,0,0,0,0,0,0,0,0,0,0,0,0,0,0,0,0,0,0,0,0,0,0,0,0,0,0,0,0,0,0]","[0,0.016100000023840266,0.0321000000238314,0.04510000002383663,0.07260000002384004,0.08319999998806793,0.09919999998807327,0.11590000003575085,0.13290000003576097,0.14910000002383583,0.16580000001191308,0.18249999999999034,0.19940000003575165,0.21580000001191024,0.2325000000000017,0.24899999999999523,0.2656999999880725,0.28590000003575256,0.2991999999880761,0.31580000001191877,0.33269999998807975,0.3491000000238387,0.365699999988081,0.3824000000357586,0.39930000001191956,0.41610000002383174,0.432800000011909,0.4491999999880676,0.4656999999880753,0.4824000000357529,0.49919999998807896,0.5161000000238403,0.5329000000357524,0.5508000000119182,0.5659000000357537,0.5823000000119123,0.5991000000238387,0.615699999988081,0.6336000000238329,0.6494999999999891,0.6658000000119131,0.6824999999999903,0.6989999999999981,0.7171999999880683,0.7331999999880736,0.7451000000238395,0.7666999999880773,0.7824999999999989,0.7989999999999924,0.8158000000119188,0.8331999999880679,0.8489000000357549,0.865699999988081,0.8821999999880745,0.8991999999880704,0.9161000000238317,0.9329000000357581]",9,0,9,0,1,0.1993,,,,
O211111111,2024-11-28_16h21.41.769,GoFitts,2023.2.3,Win32,64.51612903,"[350.9924761204595,156.27191869629996]","[-310.83168954936195,-225.83244150937088]",81,768.4181957,4.32,1,0.5326,"[383,383,383,383,383,383,383,383,383,383,382,371,352,320,277,232,183,133,89,35,-16,-52,-76,-95,-111,-131,-156,-178,-203,-229,-248,-270,-287,-294,-298,-301,-304,-306,-309,-310,-310,-311,-311,-311,-311,-311,-311,-311,-311,-311,-311,-311,-311,-311,-311,-311,-311,-311,-311,-311,-310,-310,-310]","[148,148,148,148,148,148,148,148,148,148,148,144,134,117,93,66,34,-5,-38,-75,-104,-125,-140,-149,-155,-159,-165,-170,-176,-182,-188,-195,-200,-203,-206,-208,-210,-213,-216,-218,-220,-221,-221,-222,-222,-222,-222,-222,-222,-222,-222,-222,-222,-222,-222,-222,-222,-222,-222,-222,-222,-222,-222]","[0,0,0,0,0,0,0,0,0,0,0,0,0,0,0,0,0,0,0,0,0,0,0,0,0,0,0,0,0,0,0,0,0,0,0,0,0,0,0,0,0,0,0,0,0,0,0,0,0,0,0,0,0,0,0,0,0,0,0,0,0,0,0]","[0,0,0,0,0,0,0,0,0,0,0,0,0,0,0,0,0,0,0,0,0,0,0,0,0,0,0,0,0,0,0,0,0,0,0,0,0,0,0,0,0,0,0,0,0,0,0,0,0,0,0,0,0,0,0,0,0,0,0,0,0,0,0]","[0,0,0,0,0,0,0,0,0,0,0,0,0,0,0,0,0,0,0,0,0,0,0,0,0,0,0,0,0,0,0,0,0,0,0,0,0,0,0,0,0,0,0,0,0,0,0,0,0,0,0,0,0,0,0,0,0,0,0,0,0,0,0]","[0,0.016000000000005343,0.03230000001192934,0.04510000002385084,0.06630000001192116,0.07839999997615621,0.10069999998808044,0.11660000002385118,0.13239999997615826,0.14910000002385004,0.16610000002384595,0.18250000000000455,0.19950000000000045,0.21600000000000819,0.23260000002385084,0.24910000002384436,0.26610000002384027,0.28249999999999886,0.2991000000238415,0.31580000001191877,0.3323999999761611,0.34900000000000375,0.36599999999999966,0.3825000000000074,0.39910000002385004,0.4158999999761619,0.4323999999761696,0.4491000000238472,0.46589999997615905,0.4825000000000017,0.49919999998807896,0.5158000000119216,0.532600000023848,0.5491999999880903,0.5656000000238492,0.5825000000000102,0.599399999976157,0.6171999999880882,0.6323000000119237,0.64910000002385,0.6658000000119273,0.6826000000238395,0.6989999999999981,0.715899999976159,0.7323999999761668,0.7451999999880883,0.7665000000000077,0.782600000023848,0.7990000000000066,0.8156999999880838,0.8321999999880774,0.845100000023848,0.8661999999880834,0.8831000000238447,0.89910000002385,0.9161999999880805,0.9326000000238395,0.9451999999880769,0.9665000000000106,0.9826999999880854,1.001399999976158,1.016199999988089,1.0326999999880826]",10,0,10,0,1,0.216,,,,
O211111111,2024-11-28_16h21.41.769,GoFitts,2023.2.3,Win32,64.51612903,"[-310.83168954936195,-225.83244150937088]","[257.08606660902745,285.52300296419736]",81,768.4181957,4.32,1,0.583,"[-310,-310,-309,-309,-309,-309,-309,-309,-306,-301,-295,-286,-275,-261,-239,-205,-155,-95,-3,70,136,189,221,247,266,281,292,299,302,304,305,306,306,306,300,291,284,280,276,273,269,267,266,265,264,264,264,264,264,264,264,264,264,264,264,264,264,264,264,264,264,264,264,264,264,264]","[-222,-222,-222,-222,-222,-222,-222,-222,-222,-221,-218,-214,-207,-197,-181,-156,-115,-57,18,73,119,158,183,206,222,234,246,254,262,270,275,281,285,288,292,298,300,303,303,304,304,304,304,304,304,304,304,304,304,304,304,304,304,304,304,304,304,304,304,304,304,304,304,304,304,304]","[0,0,0,0,0,0,0,0,0,0,0,0,0,0,0,0,0,0,0,0,0,0,0,0,0,0,0,0,0,0,0,0,0,0,0,0,0,0,0,0,0,0,0,0,0,0,0,0,0,0,0,0,0,0,0,0,0,0,0,0,0,0,0,0,0,0]","[0,0,0,0,0,0,0,0,0,0,0,0,0,0,0,0,0,0,0,0,0,0,0,0,0,0,0,0,0,0,0,0,0,0,0,0,0,0,0,0,0,0,0,0,0,0,0,0,0,0,0,0,0,0,0,0,0,0,0,0,0,0,0,0,0,0]","[0,0,0,0,0,0,0,0,0,0,0,0,0,0,0,0,0,0,0,0,0,0,0,0,0,0,0,0,0,0,0,0,0,0,0,0,0,0,0,0,0,0,0,0,0,0,0,0,0,0,0,0,0,0,0,0,0,0,0,0,0,0,0,0,0,0]","[0,0.015699999988072477,0.032699999988068384,0.04939999997615985,0.06199999999999761,0.08369999998807032,0.09959999996422653,0.11199999999999477,0.12889999997615575,0.1506999999880776,0.16639999997615007,0.18309999996422732,0.19950000000000045,0.2161999999880777,0.23269999998807123,0.2494999999999976,0.26629999995230946,0.28319999998807077,0.29939999997615985,0.3160000000000025,0.33269999998807975,0.3495999999642265,0.3661999999880692,0.3827999999523115,0.39939999997615416,0.4159999999999968,0.43259999996423915,0.44950000000000045,0.465999999999994,0.4826999999880712,0.4993999999761485,0.5159999999999911,0.5324999999999989,0.5494999999999948,0.5664999999999907,0.5829999999999984,0.599399999976157,0.6159999999999997,0.6326999999880769,0.6493999999761542,0.6659999999999968,0.6827999999523087,0.6995000000000005,0.715999999999994,0.7329999999999899,0.7518999999761604,0.7659999999999911,0.778399999976159,0.7999999999999972,0.8160000000000025,0.8326999999880798,0.8504999999999967,0.8658999999761505,0.878699999988072,0.9002999999523098,0.9160999999642314,0.9285999999642343,0.9500000000000028,0.9663999999761472,0.9830999999642387,0.9994999999999976,1.0161999999880749,1.0294999999999987,1.0499999999999972,1.06759999996423,1.083099999964233]",11,0,11,0,1,0.2162,,,,
O211111111,2024-11-28_16h21.41.769,GoFitts,2023.2.3,Win32,64.51612903,"[257.08606660902745,285.52300296419736]","[-192.10454892206133,-332.7348390981108]",81,768.4181957,4.32,1,0.7661,"[264,264,264,264,264,264,264,264,264,264,264,264,264,264,264,264,264,263,253,231,203,176,151,124,94,70,48,21,-8,-31,-55,-73,-91,-105,-116,-123,-130,-135,-142,-149,-154,-158,-160,-162,-164,-167,-168,-170,-172,-175,-179,-181,-184,-185,-186,-186,-187,-187,-188,-188,-188,-188,-188,-188,-188,-188,-188,-188,-188,-188,-188,-188,-188,-188,-188,-188,-188,-188]","[304,304,304,304,304,304,304,304,304,304,304,304,304,304,304,304,304,304,296,276,243,203,162,117,70,28,-7,-43,-76,-102,-126,-143,-161,-178,-194,-208,-219,-229,-239,-251,-261,-270,-276,-283,-290,-299,-301,-306,-309,-315,-320,-323,-325,-326,-328,-329,-329,-330,-330,-330,-330,-330,-330,-330,-330,-330,-330,-330,-330,-330,-330,-330,-330,-330,-330,-330,-330,-330]","[0,0,0,0,0,0,0,0,0,0,0,0,0,0,0,0,0,0,0,0,0,0,0,0,0,0,0,0,0,0,0,0,0,0,0,0,0,0,0,0,0,0,0,0,0,0,0,0,0,0,0,0,0,0,0,0,0,0,0,0,0,0,0,0,0,0,0,0,0,0,0,0,0,0,0,0,0,0]","[0,0,0,0,0,0,0,0,0,0,0,0,0,0,0,0,0,0,0,0,0,0,0,0,0,0,0,0,0,0,0,0,0,0,0,0,0,0,0,0,0,0,0,0,0,0,0,0,0,0,0,0,0,0,0,0,0,0,0,0,0,0,0,0,0,0,0,0,0,0,0,0,0,0,0,0,0,0]","[0,0,0,0,0,0,0,0,0,0,0,0,0,0,0,0,0,0,0,0,0,0,0,0,0,0,0,0,0,0,0,0,0,0,0,0,0,0,0,0,0,0,0,0,0,0,0,0,0,0,0,0,0,0,0,0,0,0,0,0,0,0,0,0,0,0,0,0,0,0,0,0,0,0,0,0,0,0]","[0,0.016199999988074865,0.032699999988068384,0.04909999996422698,0.0660999999642371,0.08289999997614927,0.09499999999999886,0.11669999998807157,0.13259999996422778,0.14919999998807043,0.16589999997614768,0.18259999996423915,0.19909999996423267,0.21579999995230992,0.2325999999642363,0.24929999995231356,0.26609999996422573,0.28259999996423346,0.29939999997615985,0.31579999995231844,0.33279999995231435,0.349399999976157,0.366299999952318,0.3826999999880769,0.39939999997615416,0.41569999998807816,0.43259999996423915,0.4492999999523164,0.465999999999994,0.4827999999523058,0.4994999999999976,0.5159999999999911,0.5324999999999989,0.5491999999880761,0.5659999999999883,0.5823999999761469,0.599399999976157,0.6158999999761505,0.6324999999999932,0.6493999999761542,0.6659999999999968,0.6826999999880741,0.6991999999880676,0.715999999999994,0.7323999999761526,0.7578999999761464,0.7660999999642257,0.7841999999880755,0.799099999964227,0.8158999999761534,0.8323999999761469,0.8489999999999895,0.8660999999642343,0.8837999999523163,0.8990999999642355,0.9158999999761477,0.9326999999880741,0.9490999999642327,0.9660999999642286,0.9839999999999947,0.9990999999642298,1.0160999999642257,1.0323999999761497,1.0488999999761575,1.0659999999999883,1.0836999999880703,1.0992999999523079,1.1160999999642343,1.1324999999999932,1.1490999999642355,1.1617999999523079,1.1844999999999999,1.1993999999761513,1.2118999999761542,1.2286999999880805,1.2501999999880695,1.2650999999642352,1.2847999999523125]",12,0,12,0,1,0.3328,,,,
O211111111,2024-11-28_16h21.41.769,GoFitts,2023.2.3,Win32,64.51612903,"[-192.10454892206133,-332.7348390981108]","[118.72714062730078,365.40456612453477]",81,768.4181957,4.32,1,0.7475,"[-188,-188,-188,-188,-188,-188,-188,-188,-188,-188,-188,-188,-188,-188,-184,-176,-158,-127,-90,-48,4,48,92,122,140,152,158,162,164,167,169,171,172,173,173,173,173,173,173,170,164,159,156,152,149,146,143,141,140,139,137,137,137,136,136,136,136,136,136,136,136,136,136,136,136,136,136,136,136,136,136,136,136,136,136,136]","[-330,-330,-330,-330,-330,-330,-330,-330,-330,-330,-330,-330,-330,-329,-326,-320,-305,-270,-218,-154,-83,-18,58,124,171,206,232,255,271,282,289,294,299,305,309,311,314,314,315,319,322,326,330,333,338,342,346,350,352,354,356,356,357,358,359,359,359,359,359,359,359,359,359,359,359,359,359,359,359,359,359,359,359,359,359,359]","[0,0,0,0,0,0,0,0,0,0,0,0,0,0,0,0,0,0,0,0,0,0,0,0,0,0,0,0,0,0,0,0,0,0,0,0,0,0,0,0,0,0,0,0,0,0,0,0,0,0,0,0,0,0,0,0,0,0,0,0,0,0,0,0,0,0,0,0,0,0,0,0,0,0,0,0]","[0,0,0,0,0,0,0,0,0,0,0,0,0,0,0,0,0,0,0,0,0,0,0,0,0,0,0,0,0,0,0,0,0,0,0,0,0,0,0,0,0,0,0,0,0,0,0,0,0,0,0,0,0,0,0,0,0,0,0,0,0,0,0,0,0,0,0,0,0,0,0,0,0,0,0,0]","[0,0,0,0,0,0,0,0,0,0,0,0,0,0,0,0,0,0,0,0,0,0,0,0,0,0,0,0,0,0,0,0,0,0,0,0,0,0,0,0,0,0,0,0,0,0,0,0,0,0,0,0,0,0,0,0,0,0,0,0,0,0,0,0,0,0,0,0,0,0,0,0,0,0,0,0]","[0,0.014300000011914449,0.030500000000003524,0.04330000001191081,0.064800000011914,0.08070000004768474,0.09310000002383845,0.11470000004767655,0.13110000002383515,0.14699999999999136,0.16390000003575267,0.18060000002384413,0.19370000004768428,0.21470000004768508,0.2307000000476762,0.24730000001191854,0.26380000001191206,0.28070000004767337,0.2978000000119181,0.314200000047677,0.3305000000000007,0.34730000001191286,0.3639000000357555,0.38060000002383276,0.3976000000238429,0.41420000004768553,0.43070000004767905,0.4474000000357563,0.46399999999999864,0.4806000000238413,0.4976000000238372,0.5141000000238449,0.5306000000238384,0.5474999999999994,0.5638000000119234,0.5810000000000031,0.5972000000476783,0.6146000000238416,0.6304999999999978,0.6473000000119242,0.6638000000119177,0.680700000047679,0.6974999999999909,0.7141000000238336,0.7307000000476762,0.7475000000000023,0.7639000000357612,0.7806000000238384,0.7972000000476811,0.813999999999993,0.8307000000476847,0.8473000000119129,0.8641000000238392,0.8804999999999978,0.8973000000119242,0.9138000000119177,0.9308000000119137,0.9472000000476868,0.9599999999999937,0.9818000000119156,0.9973000000119185,1.0139000000357612,1.0266000000238336,1.047800000011918,1.0639000000357584,1.0805000000000007,1.0971000000238433,1.1138000000119206,1.1310000000000002,1.1474999999999937,1.1640000000000015,1.1808000000119137,1.197700000047675,1.2101000000238429,1.2319000000357647,1.2483000000119233]",13,0,13,0,1,0.2638,,,,
O211111111,2024-11-28_16h21.41.769,GoFitts,2023.2.3,Win32,64.51612903,"[118.72714062730078,365.40456612453477]","[-40.16078657109791,-382.1043602056709]",81,768.4181957,4.32,1,0.7156,"[136,136,136,136,136,136,136,136,136,136,136,136,136,136,136,131,123,115,103,94,84,75,67,65,62,56,51,48,48,47,46,44,41,38,33,29,23,16,12,7,2,-3,-7,-11,-14,-17,-19,-22,-24,-24,-26,-27,-28,-29,-30,-30,-31,-31,-32,-32,-32,-32,-32,-32,-32,-32,-33,-33,-33,-33,-33,-33,-33,-33]","[359,359,359,359,359,359,359,359,359,359,359,359,359,359,359,356,344,318,279,235,167,106,38,-33,-86,-127,-162,-186,-204,-223,-240,-251,-262,-272,-284,-293,-303,-314,-320,-328,-337,-345,-353,-359,-366,-370,-373,-375,-376,-376,-377,-378,-379,-379,-379,-379,-379,-380,-380,-380,-380,-380,-380,-380,-380,-380,-381,-381,-381,-381,-381,-381,-381,-381]","[0,0,0,0,0,0,0,0,0,0,0,0,0,0,0,0,0,0,0,0,0,0,0,0,0,0,0,0,0,0,0,0,0,0,0,0,0,0,0,0,0,0,0,0,0,0,0,0,0,0,0,0,0,0,0,0,0,0,0,0,0,0,0,0,0,0,0,0,0,0,0,0,0,0]","[0,0,0,0,0,0,0,0,0,0,0,0,0,0,0,0,0,0,0,0,0,0,0,0,0,0,0,0,0,0,0,0,0,0,0,0,0,0,0,0,0,0,0,0,0,0,0,0,0,0,0,0,0,0,0,0,0,0,0,0,0,0,0,0,0,0,0,0,0,0,0,0,0,0]","[0,0,0,0,0,0,0,0,0,0,0,0,0,0,0,0,0,0,0,0,0,0,0,0,0,0,0,0,0,0,0,0,0,0,0,0,0,0,0,0,0,0,0,0,0,0,0,0,0,0,0,0,0,0,0,0,0,0,0,0,0,0,0,0,0,0,0,0,0,0,0,0,0,0]","[0.00010000002383492301,0.01589999997615621,0.02810000002384072,0.04489999997615257,0.06610000002383742,0.08289999997614927,0.10150000000000148,0.11519999998807862,0.13210000002383993,0.14880000001191718,0.16569999998807816,0.1781000000238322,0.19950000000000045,0.21539999997615666,0.23199999999999932,0.24860000002384197,0.2653000000119192,0.2828999999761521,0.29880000001192286,0.31560000002383504,0.33199999999999363,0.3486000000238363,0.3651999999880786,0.3838999999761512,0.40110000002383117,0.41549999999999443,0.43200000000000216,0.4486999999880794,0.4656000000238407,0.48289999997615496,0.5009999999999906,0.515500000000003,0.5319999999999965,0.5486000000238391,0.5653000000119164,0.5821999999880774,0.60089999997615,0.6198999999761554,0.6318999999761559,0.6488999999761518,0.6659999999999968,0.6820000000000022,0.6986999999880794,0.7156999999880753,0.7321000000238342,0.7486999999880766,0.7653999999761538,0.7821999999880802,0.7989999999999924,0.815600000023835,0.8323000000119123,0.8501000000238434,0.8656000000238322,0.8821000000238399,0.8948999999761611,0.9158999999761477,0.9324999999999903,0.950499999999991,0.9656000000238407,0.9821000000238342,0.9986999999880766,1.0153000000119192,1.0319999999999965,1.0486999999880737,1.0653000000119164,1.0819999999999936,1.0986000000238363,1.1151999999880786,1.127899999976151,1.1495000000000033,1.165800000011913,1.1779999999999973,1.1948000000119237,1.216100000023843]",14,0,14,0,1,0.2829,,,,
O211111111,2024-11-28_16h21.41.769,GoFitts,2023.2.3,Win32,64.51612903,,,,,,1,,,,,,,,,,,,,,1,0,0,1
O211111111,2024-11-28_16h21.41.769,GoFitts,2023.2.3,Win32,64.51612903,"[-23,-362]","[-105.86191247450515,183.35821099225254]",68,423.4476499,3.75,2,1.0448,"[-23,-22,-22,-19,-13,-8,-4,7,7,7,7,7,7,7,7,7,7,7,7,7,2,-11,-27,-43,-65,-90,-105,-114,-121,-126,-134,-140,-142,-144,-145,-145,-145,-145,-145,-145,-145,-143,-138,-132,-127,-122,-118,-115,-114,-113,-113,-113,-113,-113,-113,-113,-113,-113,-112,-112,-112,-112,-112,-112,-112,-112,-112,-112,-112,-112,-112,-112,-112,-112,-112,-112,-112,-112,-112,-112,-112,-112,-112,-112,-112,-112,-112,-112,-112,-112,-112,-112,-112,-112]","[-362,-355,-350,-336,-312,-279,-258,-248,-248,-248,-248,-248,-248,-248,-248,-248,-248,-248,-248,-248,-238,-209,-171,-130,-70,6,79,149,209,243,274,295,308,316,319,320,320,320,320,320,320,312,297,281,266,251,241,233,229,227,227,227,226,226,226,226,226,225,224,223,222,221,220,216,212,210,208,207,206,206,206,206,206,206,206,206,206,206,206,206,206,206,206,206,206,206,206,206,206,206,206,206,206,206]","[0,0,0,0,0,0,0,0,0,0,0,0,0,0,0,0,0,0,0,0,0,0,0,0,0,0,0,0,0,0,0,0,0,0,0,0,0,0,0,0,0,0,0,0,0,0,0,0,0,0,0,0,0,0,0,0,0,0,0,0,0,0,0,0,0,0,0,0,0,0,0,0,0,0,0,0,0,0,0,0,0,0,0,0,0,0,0,0,0,0,0,0,0,0]","[0,0,0,0,0,0,0,0,0,0,0,0,0,0,0,0,0,0,0,0,0,0,0,0,0,0,0,0,0,0,0,0,0,0,0,0,0,0,0,0,0,0,0,0,0,0,0,0,0,0,0,0,0,0,0,0,0,0,0,0,0,0,0,0,0,0,0,0,0,0,0,0,0,0,0,0,0,0,0,0,0,0,0,0,0,0,0,0,0,0,0,0,0,0]","[0,0,0,0,0,0,0,0,0,0,0,0,0,0,0,0,0,0,0,0,0,0,0,0,0,0,0,0,0,0,0,0,0,0,0,0,0,0,0,0,0,0,0,0,0,0,0,0,0,0,0,0,0,0,0,0,0,0,0,0,0,0,0,0,0,0,0,0,0,0,0,0,0,0,0,0,0,0,0,0,0,0,0,0,0,0,0,0,0,0,0,0,0,0]","[0.00010000002384913387,0.021000000000000796,0.03219999998808021,0.04990000003576256,0.06540000003576552,0.08290000003576381,0.09480000001192934,0.11599999999999966,0.1324000000357728,0.14860000002384766,0.16440000003576927,0.18269999998808828,0.19469999998808873,0.2159000000357736,0.23210000002384845,0.24860000002384197,0.26850000000000307,0.2821999999880802,0.2985000000000042,0.3153000000119306,0.3323000000119265,0.3486000000238505,0.36769999998809055,0.38210000002385414,0.39860000002384766,0.41540000003577404,0.43190000003576756,0.4486999999880794,0.4680000000000035,0.4823000000119322,0.4988000000119257,0.5151000000238497,0.531800000011927,0.5498000000119276,0.5654000000357655,0.5821000000238428,0.5986000000238505,0.6156000000238464,0.632000000000005,0.6491999999880846,0.667500000000004,0.6821000000238513,0.6986000000238448,0.7155000000000058,0.7320000000000135,0.749199999988079,0.7654000000357684,0.7821000000238456,0.7986000000238533,0.8155000000000001,0.8320000000000078,0.8494000000357715,0.8615000000000066,0.8951999999880798,0.8986000000238477,0.9114000000357692,0.928199999988081,0.9450000000000074,0.96160000002385,0.9783000000119273,0.9951000000238537,1.011800000011931,1.0294000000357642,1.0448000000119322,1.0613000000119257,1.0783000000119216,1.0949000000357643,1.1118000000119252,1.1280000000000001,1.1449000000357756,1.1615000000000038,1.1784999999999997,1.1950000000000074,1.216199999988092,1.2281000000238436,1.244699999988086,1.2616000000238472,1.2781999999880895,1.294900000035767,1.311800000011928,1.3283000000119216,1.345000000000013,1.362000000000009,1.3789000000357703,1.3950000000000102,1.4118000000119224,1.4325000000000045,1.4448000000119237,1.4614000000357663,1.477900000035774,1.49490000003577,1.5115000000000123,1.5283000000119245,1.5450000000000017]",0,0,0,0,1,0.021,,,,
O211111111,2024-11-28_16h21.41.769,GoFitts,2023.2.3,Win32,64.51612903,"[-105.86191247450515,183.35821099225254]","[141.67089136874813,-157.34146494113864]",68,423.4476499,3.75,2,0.6001,"[-112,-112,-112,-112,-112,-112,-112,-112,-112,-112,-112,-112,-112,-112,-112,-105,-82,-50,-16,17,58,121,165,190,203,207,207,207,207,207,207,202,187,181,173,165,157,152,146,141,139,138,138,138,138,138,138,138,138,138,138,138,138,138,138,138,138,138,138,138,138,138,138,138,138,138,138,138]","[206,206,206,206,206,206,206,206,206,206,206,206,206,206,206,191,158,108,58,12,-40,-106,-150,-174,-187,-191,-192,-192,-192,-192,-192,-192,-191,-190,-187,-183,-178,-173,-168,-163,-161,-160,-160,-160,-160,-160,-160,-160,-160,-160,-160,-160,-160,-160,-160,-160,-160,-160,-160,-160,-160,-160,-160,-160,-160,-160,-160,-160]","[0,0,0,0,0,0,0,0,0,0,0,0,0,0,0,0,0,0,0,0,0,0,0,0,0,0,0,0,0,0,0,0,0,0,0,0,0,0,0,0,0,0,0,0,0,0,0,0,0,0,0,0,0,0,0,0,0,0,0,0,0,0,0,0,0,0,0,0]","[0,0,0,0,0,0,0,0,0,0,0,0,0,0,0,0,0,0,0,0,0,0,0,0,0,0,0,0,0,0,0,0,0,0,0,0,0,0,0,0,0,0,0,0,0,0,0,0,0,0,0,0,0,0,0,0,0,0,0,0,0,0,0,0,0,0,0,0]","[0,0,0,0,0,0,0,0,0,0,0,0,0,0,0,0,0,0,0,0,0,0,0,0,0,0,0,0,0,0,0,0,0,0,0,0,0,0,0,0,0,0,0,0,0,0,0,0,0,0,0,0,0,0,0,0,0,0,0,0,0,0,0,0,0,0,0,0]","[0,0.01649999999999352,0.03289999997615212,0.04959999996424358,0.06619999998807202,0.08299999999999841,0.10179999995231981,0.11599999999999966,0.132599999964242,0.15000000000000568,0.16609999996423142,0.18300000000000693,0.19950000000000045,0.21609999996424278,0.2330000000000041,0.24969999998808134,0.26600000000000534,0.2826999999880826,0.2996999999880785,0.3160000000000025,0.33279999995231435,0.3498999999761594,0.36609999996423426,0.38339999997616303,0.3995999999642379,0.4159999999999968,0.4327999999523229,0.4493999999761513,0.4661999999880777,0.4837999999523106,0.49929999995231356,0.5160999999642399,0.5413999999761643,0.5493999999761598,0.5658999999761534,0.5826999999880798,0.6000999999642431,0.6161999999880834,0.6327999999523115,0.6493999999761542,0.6660999999642314,0.6828999999761578,0.6995000000000005,0.7162999999523123,0.732899999976155,0.75,0.7662999999523095,0.7830000000000013,0.7994999999999948,0.8163999999761558,0.8328999999761635,0.849399999976157,0.8660999999642343,0.8829999999999956,0.8995999999642379,0.9160999999642314,0.9326999999880741,0.9496999999880842,0.9660999999642428,0.98279999995232,0.9994999999999976,1.0162999999523095,1.0328999999761521,1.0499999999999972,1.0663999999761558,1.0829999999999984,1.099299999952322,1.116399999976153]",1,0,1,0,1,0.2659,,,,
O211111111,2024-11-28_16h21.41.769,GoFitts,2023.2.3,Win32,64.51612903,"[141.67089136874813,-157.34146494113864]","[-171.28817249781588,124.4481418639815]",68,423.4476499,3.75,2,0.6163,"[138,139,139,139,139,139,139,139,139,139,139,139,139,139,139,130,110,82,53,19,-19,-49,-65,-76,-82,-85,-89,-91,-93,-95,-97,-99,-104,-112,-118,-124,-135,-147,-162,-171,-176,-179,-181,-182,-184,-184,-184,-185,-185,-185,-185,-185,-185,-185,-185,-185,-185,-185,-185,-185,-185,-185,-185,-185,-185,-185,-185,-185,-185]","[-160,-160,-160,-160,-160,-160,-160,-160,-160,-160,-160,-160,-160,-160,-160,-158,-149,-132,-112,-86,-55,-28,-8,8,19,29,38,47,56,64,71,77,84,92,96,100,103,106,111,113,115,116,117,117,118,118,118,118,118,118,118,118,118,118,118,118,118,118,118,118,118,118,118,118,118,118,118,118,118]","[0,0,0,0,0,0,0,0,0,0,0,0,0,0,0,0,0,0,0,0,0,0,0,0,0,0,0,0,0,0,0,0,0,0,0,0,0,0,0,0,0,0,0,0,0,0,0,0,0,0,0,0,0,0,0,0,0,0,0,0,0,0,0,0,0,0,0,0,0]","[0,0,0,0,0,0,0,0,0,0,0,0,0,0,0,0,0,0,0,0,0,0,0,0,0,0,0,0,0,0,0,0,0,0,0,0,0,0,0,0,0,0,0,0,0,0,0,0,0,0,0,0,0,0,0,0,0,0,0,0,0,0,0,0,0,0,0,0,0]","[0,0,0,0,0,0,0,0,0,0,0,0,0,0,0,0,0,0,0,0,0,0,0,0,0,0,0,0,0,0,0,0,0,0,0,0,0,0,0,0,0,0,0,0,0,0,0,0,0,0,0,0,0,0,0,0,0,0,0,0,0,0,0,0,0,0,0,0,0]","[0,0.01649999999999352,0.03300000000000125,0.04940000003576017,0.06610000002383742,0.08270000004768008,0.1004000000357621,0.11620000004768372,0.13270000004767724,0.14970000004767314,0.16590000003576222,0.1828000000119232,0.19960000002383538,0.2161000000238431,0.23260000002383663,0.24910000002384436,0.26590000003575653,0.2826000000238338,0.29949999999999477,0.31620000004768656,0.3327000000476801,0.3492000000476736,0.36650000000000205,0.38290000003576097,0.3994000000357545,0.4159000000357622,0.4327000000476744,0.4493000000119167,0.46580000001191024,0.4824000000357529,0.4994999999999976,0.5161000000238403,0.5327000000476829,0.549300000011911,0.5660000000000025,0.5827000000476801,0.5994000000357573,0.6163000000119183,0.6327000000476772,0.6493000000119196,0.6659000000357622,0.6827000000476744,0.6998000000119191,0.7161000000238431,0.7329999999999899,0.749400000035763,0.7659999999999911,0.7827000000476829,0.7997000000476788,0.8163000000119212,0.8332000000476825,0.8496000000238411,0.8663000000119183,0.8827000000476772,0.8994999999999891,0.9161000000238317,0.9329000000357581,0.9496000000238354,0.9666000000238313,0.983100000023839,0.9992000000476793,1.0161000000238403,1.0332000000476853,1.049300000011911,1.0659000000357537,1.0829000000357638,1.0998000000119106,1.1162000000476837,1.1332000000476796]",2,0,2,0,1,0.2825,,,,
O211111111,2024-11-28_16h21.41.769,GoFitts,2023.2.3,Win32,64.51612903,"[-171.28817249781588,124.4481418639815]","[193.41933855688563,-86.11583781892882]",68,423.4476499,3.75,2,0.532,"[-185,-185,-185,-185,-185,-185,-180,-166,-140,-103,-54,5,57,105,151,202,245,272,279,280,280,280,279,272,262,250,240,236,233,231,229,224,217,213,209,208,206,204,204,203,203,203,203,203,203,203,203,203,203,203,203,203,203,203,203,203,203,203,203,203,203,203,203]","[118,118,118,118,118,118,114,100,77,48,18,-13,-34,-54,-72,-93,-109,-118,-121,-121,-121,-121,-122,-122,-121,-119,-117,-116,-115,-113,-112,-108,-103,-100,-99,-97,-96,-95,-93,-92,-92,-92,-92,-92,-92,-92,-92,-92,-92,-92,-92,-92,-92,-92,-92,-92,-92,-92,-92,-92,-92,-92,-92]","[0,0,0,0,0,0,0,0,0,0,0,0,0,0,0,0,0,0,0,0,0,0,0,0,0,0,0,0,0,0,0,0,0,0,0,0,0,0,0,0,0,0,0,0,0,0,0,0,0,0,0,0,0,0,0,0,0,0,0,0,0,0,0]","[0,0,0,0,0,0,0,0,0,0,0,0,0,0,0,0,0,0,0,0,0,0,0,0,0,0,0,0,0,0,0,0,0,0,0,0,0,0,0,0,0,0,0,0,0,0,0,0,0,0,0,0,0,0,0,0,0,0,0,0,0,0,0]","[0,0,0,0,0,0,0,0,0,0,0,0,0,0,0,0,0,0,0,0,0,0,0,0,0,0,0,0,0,0,0,0,0,0,0,0,0,0,0,0,0,0,0,0,0,0,0,0,0,0,0,0,0,0,0,0,0,0,0,0,0,0,0]","[0,0.015600000023837879,0.0321000000238314,0.04870000004767405,0.06550000000000011,0.08220000004767769,0.09880000001192002,0.11520000004767894,0.1319999999999908,0.14860000002383345,0.16540000003575983,0.18200000000000216,0.19870000004767974,0.21560000002384072,0.23190000003576472,0.2488000000119115,0.26549999999998875,0.2819999999999965,0.29870000004767405,0.3153000000119164,0.3317000000476753,0.3487000000476854,0.3662000000476837,0.3824000000357586,0.3988000000119172,0.4151000000238412,0.43190000003575335,0.44880000001191434,0.46620000004767803,0.4822000000476834,0.4988000000119115,0.5154000000357541,0.5319999999999965,0.5486000000238391,0.5655000000000001,0.582499999999996,0.59880000001192,0.6156000000238322,0.6327000000476772,0.6489000000357521,0.6656000000238436,0.6820000000000022,0.6987000000476797,0.7153000000119221,0.7322000000476834,0.748600000023842,0.7657000000476728,0.7823000000119151,0.7989999999999924,0.8153000000119164,0.8324000000357614,0.8492000000476736,0.8657000000476813,0.8821000000238399,0.8987000000476826,0.9154000000357598,0.9322000000476862,0.9487000000476797,0.9658000000119102,0.9819999999999993,0.9987000000476769,1.0153000000119192,1.0322000000476805]",3,0,3,0,1,0.1319,,,,
O211111111,2024-11-28_16h21.41.769,GoFitts,2023.2.3,Win32,64.51612903,"[193.41933855688563,-86.11583781892882]","[-207.09715139205878,44.019858431552045]",68,423.4476499,3.75,2,0.1327,"[203,187,156,113,55,-8,-85,-154,-197,-209,-211,-211,-211,-211,-211,-211,-211,-211,-211,-216,-219,-221,-221,-222,-222,-222,-222,-222,-222,-222,-222,-222,-222,-222,-222,-222,-222,-222,-222,-222]","[-92,-87,-78,-66,-48,-25,4,31,49,54,55,55,55,55,55,55,55,55,55,54,53,53,52,52,52,52,52,52,52,52,52,52,52,52,52,52,52,52,52,52]","[0,0,0,0,0,0,0,0,0,0,0,0,0,0,0,0,0,0,0,0,0,0,0,0,0,0,0,0,0,0,0,0,0,0,0,0,0,0,0,0]","[0,0,0,0,0,0,0,0,0,0,0,0,0,0,0,0,0,0,0,0,0,0,0,0,0,0,0,0,0,0,0,0,0,0,0,0,0,0,0,0]","[0,0,0,0,0,0,0,0,0,0,0,0,0,0,0,0,0,0,0,0,0,0,0,0,0,0,0,0,0,0,0,0,0,0,0,0,0,0,0,0]","[0,0.015700000047672802,0.032600000023833786,0.04960000002382969,0.06599999999998829,0.08210000002384277,0.0992000000476736,0.1156000000238322,0.13270000004767724,0.14910000002383583,0.1657000000476785,0.18249999999999034,0.19930000001191672,0.21560000002384072,0.2324000000357529,0.24910000002383015,0.2658000000119216,0.28240000003575005,0.2989000000357578,0.31560000002383504,0.3327000000476801,0.3493000000119082,0.3661000000238346,0.38270000004767724,0.3999000000357569,0.41560000002382935,0.43249999999999034,0.4492000000476821,0.46580000001191024,0.48399999999999466,0.4992000000476793,0.5158000000119216,0.5328000000119175,0.5494999999999948,0.5664000000357561,0.5828000000119147,0.5994000000357573,0.6156000000238322,0.6324999999999932,0.649200000047685]",4,0,4,0,1,0.0326,,,,
O211111111,2024-11-28_16h21.41.769,GoFitts,2023.2.3,Win32,64.51612903,"[-207.09715139205878,44.019858431552045]","[211.72382494901038,0]",68,423.4476499,3.75,2,0.3994,"[-222,-222,-222,-222,-222,-222,-222,-222,-222,-222,-222,-222,-222,-222,-222,-213,-191,-152,-98,-34,41,106,154,187,203,206,207,207,207,207,207,207,208,208,209,209,209,209,209,209,209,209,209,209,209,209,209,209,209,209,209,209,209,209,209,209]","[52,52,52,52,52,52,52,52,52,52,52,52,52,52,52,48,39,27,14,5,-7,-14,-21,-26,-28,-29,-29,-29,-29,-29,-29,-29,-29,-29,-27,-27,-27,-27,-27,-27,-27,-27,-27,-27,-27,-27,-27,-27,-27,-27,-27,-27,-27,-27,-27,-27]","[0,0,0,0,0,0,0,0,0,0,0,0,0,0,0,0,0,0,0,0,0,0,0,0,0,0,0,0,0,0,0,0,0,0,0,0,0,0,0,0,0,0,0,0,0,0,0,0,0,0,0,0,0,0,0,0]","[0,0,0,0,0,0,0,0,0,0,0,0,0,0,0,0,0,0,0,0,0,0,0,0,0,0,0,0,0,0,0,0,0,0,0,0,0,0,0,0,0,0,0,0,0,0,0,0,0,0,0,0,0,0,0,0]","[0,0,0,0,0,0,0,0,0,0,0,0,0,0,0,0,0,0,0,0,0,0,0,0,0,0,0,0,0,0,0,0,0,0,0,0,0,0,0,0,0,0,0,0,0,0,0,0,0,0,0,0,0,0,0,0]","[0,0.015999999999991132,0.03280000001191752,0.04910000002384152,0.06610000002383742,0.08299999999999841,0.09960000002384106,0.11619999998806918,0.13280000001191183,0.1501999999880752,0.16619999998806634,0.18269999998807407,0.19960000002383538,0.21590000003575938,0.2324000000357529,0.24919999998807896,0.2658000000119074,0.2828000000119175,0.2991999999880761,0.3159999999999883,0.3323000000119123,0.34899999999998954,0.36590000003575085,0.3826000000238281,0.3994000000357545,0.4159999999999968,0.432800000011909,0.4498000000119191,0.465999999999994,0.4829000000357553,0.4993000000119139,0.5161000000238403,0.5329000000357524,0.5491000000238415,0.5661000000238374,0.5826000000238309,0.5991999999880733,0.6161000000238346,0.6326999999880769,0.6491999999880704,0.6659999999999968,0.6826999999880741,0.6994999999999862,0.715999999999994,0.7328000000119204,0.7494999999999976,0.7659999999999911,0.7828000000119175,0.7996000000238297,0.8161000000238374,0.832499999999996,0.8491000000238387,0.8659999999999997,0.8826000000238281,0.8991999999880704,0.9161999999880663]",5,0,5,0,1,0.2828,,,,
O211111111,2024-11-28_16h21.41.769,GoFitts,2023.2.3,Win32,64.51612903,"[211.72382494901038,0]","[-207.09715139205878,-44.01985843155199]",68,423.4476499,3.75,2,0.4151,"[209,209,209,209,209,209,199,179,165,152,137,117,92,57,23,-9,-43,-77,-103,-121,-132,-140,-151,-165,-178,-187,-191,-193,-194,-194,-194,-194,-194,-194,-194,-194,-194,-194,-194,-194,-194,-194,-194,-194,-194,-194,-194,-194,-194,-194,-194,-194,-194,-194,-194,-194]","[-27,-27,-27,-27,-27,-27,-23,-19,-18,-18,-18,-19,-21,-21,-21,-21,-21,-23,-24,-25,-26,-26,-26,-26,-25,-23,-22,-21,-21,-21,-21,-21,-21,-21,-21,-21,-21,-21,-21,-21,-21,-21,-21,-21,-21,-21,-21,-21,-21,-21,-21,-21,-21,-21,-21,-21]","[0,0,0,0,0,0,0,0,0,0,0,0,0,0,0,0,0,0,0,0,0,0,0,0,0,0,0,0,0,0,0,0,0,0,0,0,0,0,0,0,0,0,0,0,0,0,0,0,0,0,0,0,0,0,0,0]","[0,0,0,0,0,0,0,0,0,0,0,0,0,0,0,0,0,0,0,0,0,0,0,0,0,0,0,0,0,0,0,0,0,0,0,0,0,0,0,0,0,0,0,0,0,0,0,0,0,0,0,0,0,0,0,0]","[0,0,0,0,0,0,0,0,0,0,0,0,0,0,0,0,0,0,0,0,0,0,0,0,0,0,0,0,0,0,0,0,0,0,0,0,0,0,0,0,0,0,0,0,0,0,0,0,0,0,0,0,0,0,0,0]","[0,0.015500000000002956,0.0315999999642429,0.048599999964238805,0.06550000000000011,0.08279999995231435,0.0987999999523197,0.11679999995232038,0.1315999999642372,0.14829999995231447,0.16519999998807577,0.18200000000000216,0.19849999999999568,0.2150000000000034,0.23169999998808066,0.248299999952323,0.2651999999880843,0.2817999999523124,0.2985000000000042,0.3149999999999977,0.331699999988075,0.3482999999523173,0.3651999999880786,0.38179999995232095,0.39869999998808225,0.41509999996424085,0.4317999999523181,0.44839999997616076,0.46519999998807293,0.4818999999761644,0.49869999998807657,0.5150999999642352,0.5315999999642429,0.5483999999761551,0.5653999999761652,0.5820000000000078,0.598599999964236,0.6150999999642437,0.6316999999880863,0.6483999999761636,0.6650999999642409,0.6817999999523181,0.6985999999642445,0.7152999999523217,0.7322999999523176,0.7489999999999952,0.7660000000000053,0.7818999999761616,0.7988999999761575,0.8156999999880838,0.8320999999642424,0.8487999999523197,0.8654999999999973,0.8818999999761559,0.8985999999642331,0.9153999999761595]",6,0,6,0,1,0.1168,,,,
O211111111,2024-11-28_16h21.41.769,GoFitts,2023.2.3,Win32,64.51612903,"[-207.09715139205878,-44.01985843155199]","[193.4193385568856,86.11583781892882]",68,423.4476499,3.75,2,0.6488,"[-194,-194,-194,-194,-194,-194,-194,-194,-194,-194,-189,-183,-175,-167,-154,-136,-105,-71,-31,7,45,72,94,110,120,126,132,136,137,138,138,138,139,141,144,146,149,152,157,164,170,175,176,177,178,178,178,178,178,178,178,178,178,178,178,178,178,178,178,178,178,178,178,178,178,178,178,178,178,178]","[-21,-21,-21,-21,-21,-21,-21,-21,-21,-20,-17,-13,-7,-1,7,19,43,64,85,99,107,109,110,110,110,108,107,106,106,106,106,106,105,102,97,94,90,86,81,77,74,73,73,73,73,73,73,73,73,73,73,73,73,73,73,73,73,73,73,73,73,73,73,73,73,73,73,73,73,73]","[0,0,0,0,0,0,0,0,0,0,0,0,0,0,0,0,0,0,0,0,0,0,0,0,0,0,0,0,0,0,0,0,0,0,0,0,0,0,0,0,0,0,0,0,0,0,0,0,0,0,0,0,0,0,0,0,0,0,0,0,0,0,0,0,0,0,0,0,0,0]","[0,0,0,0,0,0,0,0,0,0,0,0,0,0,0,0,0,0,0,0,0,0,0,0,0,0,0,0,0,0,0,0,0,0,0,0,0,0,0,0,0,0,0,0,0,0,0,0,0,0,0,0,0,0,0,0,0,0,0,0,0,0,0,0,0,0,0,0,0,0]","[0,0,0,0,0,0,0,0,0,0,0,0,0,0,0,0,0,0,0,0,0,0,0,0,0,0,0,0,0,0,0,0,0,0,0,0,0,0,0,0,0,0,0,0,0,0,0,0,0,0,0,0,0,0,0,0,0,0,0,0,0,0,0,0,0,0,0,0,0,0]","[0,0.015499999999988745,0.031999999999996476,0.04889999997615746,0.06539999997615098,0.08210000002384277,0.09860000002383629,0.11539999997614814,0.13239999997615826,0.14880000001191718,0.16589999997614768,0.18230000001192082,0.1986000000238306,0.21530000001192207,0.23269999998807123,0.2488999999761461,0.2656000000238379,0.28249999999999886,0.29860000002383913,0.3153000000119164,0.33310000002383333,0.34880000001192,0.3656000000238322,0.38230000001190945,0.39869999998806804,0.4153000000119107,0.431899999976153,0.44889999997614893,0.4656999999880753,0.48260000002383663,0.49860000002384197,0.5153999999761538,0.5330000000000013,0.5491999999880761,0.565600000023835,0.5823000000119123,0.5986999999880709,0.6156000000238322,0.6319999999999908,0.6488000000119172,0.6654999999999944,0.6823000000119208,0.6991999999880676,0.7161000000238431,0.7321999999880688,0.7488999999761461,0.7658999999761562,0.7823999999761497,0.7989999999999924,0.8159999999999883,0.8328999999761493,0.8489999999999895,0.8658999999761505,0.8823999999761583,0.8991000000238358,0.9161000000238317,0.932800000011909,0.9489999999999981,0.9656000000238407,0.9825000000000017,0.9988000000119115,1.0156999999880725,1.0323999999761497,1.0496000000238297,1.0658999999761534,1.0821000000238428,1.0988999999761546,1.1154999999999973,1.1323000000119094,1.1491000000238358]",7,0,7,0,1,0.1823,,,,
