key_resp.keys,key_resp.rt,key_resp_3.keys,key_resp_3.rt,from,to,w,a,sequence_loop.thisN,mouse.x,mouse.y,mouse.leftButton,mouse.midButton,mouse.rightButton,mouse.time,key_resp_2.keys,trial_loop.thisRepN,trial_loop.thisTrialN,trial_loop.thisN,trial_loop.thisIndex,trial_loop.ran,受試者ID,date,expName,psychopyVersion,OS,frameRate,sequence_loop.thisRepN,sequence_loop.thisTrialN,sequence_loop.thisIndex,sequence_loop.ran
return,6.5861,return,0.6977,"[295,-146]","[-195.62952014676114,41.58233816355186]",48,400,0,"[295,295,295,295,295,295,295,295,295,295,295,295,295,295,295,295,295,295,295,295,295,295,295,295,295,295,295,295,295,295,295,295,295,295,295,295,295,295,295,295,295,295,295,295,295,295,295,295,295,295,295,295,295,295,295,295,295,295,295,295,295,295,295,295,295,295,295,295,295,295,295,295,295,295,295,295,295,295,295,295,295,295,295,295,295,295,295,295,295,295,295,295,295,295,314,363,453,551,622,655,659,659,637,561,421,281,161,78,42,24,4,-13,-28,-47,-67,-82,-119,-144,-174,-197,-210,-210,-210,-210,-210,-210,-211,-211,-211,-211,-211,-211,-211,-211,-211,-211,-211,-211,-211]","[-146,-146,-146,-146,-146,-146,-146,-146,-146,-146,-146,-146,-146,-146,-146,-146,-146,-146,-146,-146,-146,-146,-146,-146,-146,-146,-146,-146,-146,-146,-146,-146,-146,-146,-146,-146,-146,-146,-146,-146,-146,-146,-146,-146,-146,-146,-146,-146,-146,-146,-146,-146,-146,-146,-146,-146,-146,-146,-146,-146,-146,-146,-146,-146,-146,-146,-146,-146,-146,-146,-146,-146,-146,-146,-146,-146,-146,-146,-146,-146,-146,-146,-146,-146,-146,-146,-146,-146,-146,-146,-146,-146,-146,-142,-117,-61,29,137,235,283,293,296,303,340,398,434,456,464,466,466,466,458,435,382,312,242,186,174,170,165,162,162,162,162,162,162,160,150,146,145,141,135,126,119,113,104,90,67,47]","[0,0,0,0,0,0,0,0,0,0,0,0,0,0,0,0,0,0,0,0,0,0,0,0,0,0,0,0,0,0,0,0,0,0,0,0,0,0,0,0,0,0,0,0,0,0,0,0,0,0,0,0,0,0,0,0,0,0,0,0,0,0,0,0,0,0,0,0,0,0,0,0,0,0,0,0,0,0,0,0,0,0,0,0,0,0,0,0,0,0,0,0,0,0,0,0,0,0,0,0,0,0,0,0,0,0,0,0,0,0,0,0,0,0,0,0,0,0,0,0,0,0,0,0,0,0,0,0,0,0,0,0,0,0,0,0,0,0,0]","[0,0,0,0,0,0,0,0,0,0,0,0,0,0,0,0,0,0,0,0,0,0,0,0,0,0,0,0,0,0,0,0,0,0,0,0,0,0,0,0,0,0,0,0,0,0,0,0,0,0,0,0,0,0,0,0,0,0,0,0,0,0,0,0,0,0,0,0,0,0,0,0,0,0,0,0,0,0,0,0,0,0,0,0,0,0,0,0,0,0,0,0,0,0,0,0,0,0,0,0,0,0,0,0,0,0,0,0,0,0,0,0,0,0,0,0,0,0,0,0,0,0,0,0,0,0,0,0,0,0,0,0,0,0,0,0,0,0,0]","[0,0,0,0,0,0,0,0,0,0,0,0,0,0,0,0,0,0,0,0,0,0,0,0,0,0,0,0,0,0,0,0,0,0,0,0,0,0,0,0,0,0,0,0,0,0,0,0,0,0,0,0,0,0,0,0,0,0,0,0,0,0,0,0,0,0,0,0,0,0,0,0,0,0,0,0,0,0,0,0,0,0,0,0,0,0,0,0,0,0,0,0,0,0,0,0,0,0,0,0,0,0,0,0,0,0,0,0,0,0,0,0,0,0,0,0,0,0,0,0,0,0,0,0,0,0,0,0,0,0,0,0,0,0,0,0,0,0,0]","[0.007700000002980545,0.033300000011919906,0.049100000008941436,0.0654000000059618,0.08210000000893913,0.09870000000297807,0.11560000000893922,0.13210000000893984,0.14870000000297878,0.16560000000893993,0.18240000000595913,0.19899999999999807,0.21670000000298018,0.231900000005961,0.2487000000029802,0.26510000000893896,0.28200000000000003,0.29860000000893905,0.3154000000059618,0.33210000000893913,0.34870000000297807,0.3656000000089392,0.38220000000297816,0.3991000000089393,0.4151000000089411,0.4319000000059603,0.44849999999999923,0.4652000000029801,0.4819999999999993,0.4987000000029802,0.5154000000059611,0.5324000000059605,0.5492000000029797,0.5662000000029792,0.5824999999999996,0.5989000000059583,0.6151000000089404,0.6319999999999979,0.6486000000089405,0.6653000000119214,0.681800000011922,0.6984999999999992,0.7154000000059604,0.7321000000089413,0.7487000000029802,0.7656000000089414,0.7833000000119199,0.7989000000059612,0.8151000000089397,0.8316000000089403,0.8483000000119212,0.8652000000029787,0.8819000000059596,0.8984000000059602,0.9151000000089411,0.932500000000001,0.9489999999999981,0.9656000000089406,0.9824000000059598,0.9988000000119222,1.0149000000059587,1.0319000000059617,1.0483000000119205,1.0652000000029815,1.0817000000029786,1.0984000000059595,1.1155000000000008,1.1322000000029782,1.1487000000029788,1.1658000000119202,1.1823000000119208,1.198400000005961,1.2152000000029801,1.2318000000119191,1.2485,1.2649000000059587,1.2818000000119234,1.298300000011924,1.3151000000089432,1.3317000000029786,1.348400000005963,1.3649999999999984,1.3819000000059596,1.398500000000002,1.4152000000029794,1.4314999999999962,1.4482000000029807,1.4651000000089418,1.4817000000029772,1.4984000000059616,1.5148000000119204,1.532,1.5485000000000007,1.56530000001192,1.581500000000002,1.5983000000119212,1.6149999999999984,1.631600000008941,1.6484000000059602,1.6649000000059608,1.6819000000059567,1.6984000000059574,1.7152000000029766,1.7315000000000005,1.7483000000119198,1.7649000000059623,1.7819000000059582,1.7988000000119193,1.8150000000000013,1.8317000000029786,1.848400000005963,1.8649000000059566,1.8817000000029829,1.8984000000059602,1.9154000000059632,1.9319999999999986,1.9489000000059598,1.9653000000119185,1.9823000000119215,1.9988000000119222,2.0154000000059575,2.031400000005963,2.0479999999999983,2.0647000000029827,2.08140000000596,2.098400000005963,2.1152000000029823,2.131700000002983,2.1489000000059626,2.16560000000894,2.1822000000029824,2.198800000011918,2.2154000000059604,2.2316000000089424,2.248000000000001,2.265200000002981,2.2816000000089396,2.2986000000089426,2.3150000000000013]",,0,0,0,0,1,participant,2022-09-22_12h34.49.126,GoFitts,2022.1.4,Win32,59.72288581,,,,
,,,,"[-195.62952014676114,41.58233816355186]","[200,0]",48,400,0,"[-211,-211,-211,-211,-211,-211,-211,-211,-211,-211,-211,-211,-210,-208,-208,-208,-208,-208,-208,-208,-208,-208,-208,-208,-208,-208,-208,-208,-208,-208,-208,-208,-208,-208,-208,-208,-208,-208,-208,-208,-206,-197,-171,-121,-74,-52,-28,19,89,171,193,205]","[47,42,42,42,42,42,42,42,42,42,42,42,39,39,39,39,39,39,39,39,39,39,39,39,39,39,39,39,39,39,39,39,39,39,39,39,39,39,39,39,39,41,51,79,104,112,113,97,66,31,24,20]","[0,0,0,0,0,0,0,0,0,0,0,0,0,0,0,0,1,1,1,1,0,0,0,0,0,0,0,0,0,0,0,0,0,0,0,0,0,0,0,0,0,0,0,0,0,0,0,0,0,0,0,0]","[0,0,0,0,0,0,0,0,0,0,0,0,0,0,0,0,0,0,0,0,0,0,0,0,0,0,0,0,0,0,0,0,0,0,0,0,0,0,0,0,0,0,0,0,0,0,0,0,0,0,0,0]","[0,0,0,0,0,0,0,0,0,0,0,0,0,0,0,0,0,0,0,0,0,0,0,0,0,0,0,0,0,0,0,0,0,0,0,0,0,0,0,0,0,0,0,0,0,0,0,0,0,0,0,0]","[0.0007999999970209615,0.015599999994037717,0.032399999991056916,0.04909999999403425,0.06579999999701869,0.08239999999105407,0.09879999999701994,0.11549999999999727,0.13229999999701647,0.14919999998807754,0.16569999998807816,0.18229999999702073,0.1991999999880747,0.21559999999404056,0.23209999999404118,0.2485999999940347,0.26529999999701914,0.2821999999880802,0.29869999998807373,0.3152999999970163,0.3323999999910541,0.34850000000000136,0.3653999999910553,0.38229999999701647,0.3987999999970171,0.41569999998807816,0.4320999999940369,0.4488999999910561,0.46559999999404056,0.4825000000000017,0.49939999999105567,0.5155999999940377,0.5318999999910545,0.5488999999910575,0.5655000000000001,0.5820999999940355,0.5987999999970199,0.6152999999970206,0.6320999999940398,0.6485999999940404,0.6655000000000015,0.6821999999880788,0.6988999999910561,0.7152999999970149,0.7323999999910598,0.7490999999940371,0.7657999999970144,0.7821999999880802,0.7988999999910575,0.8153999999910582,0.8323999999910541,0.8490999999940385]",,1,0,1,0,1,participant,2022-09-22_12h34.49.126,GoFitts,2022.1.4,Win32,59.72288581,,,,
,,,,"[200,0]","[-195.62952014676114,-41.58233816355181]",48,400,0,"[205,206,206,206,206,206,206,209,211,216,234,335,395,395,410,395,327,247,212,212,211,211,211,196,165,113,55,2,-37,-62,-71,-72,-73,-76,-83,-96,-114,-131,-133,-133,-134,-130,-128,-127,-128,-133,-138,-149,-164,-181]","[20,20,20,20,20,20,20,20,16,6,-19,-92,-111,-111,-113,-105,-76,-47,-35,-35,-33,-33,-32,-36,-49,-66,-84,-97,-109,-117,-118,-118,-118,-114,-108,-99,-87,-77,-76,-76,-73,-68,-60,-49,-43,-39,-38,-38,-38,-41]","[0,0,0,0,0,0,0,0,0,0,0,0,0,0,0,0,0,0,0,0,0,0,0,0,0,0,0,0,0,0,0,0,0,0,0,0,0,0,0,0,0,0,0,0,0,0,0,0,0,0]","[0,0,0,0,0,0,0,0,0,0,0,0,0,0,0,0,0,0,0,0,0,0,0,0,0,0,0,0,0,0,0,0,0,0,0,0,0,0,0,0,0,0,0,0,0,0,0,0,0,0]","[0,0,0,0,0,0,0,0,0,0,0,0,0,0,0,0,0,0,0,0,0,0,0,0,0,0,0,0,0,0,0,0,0,0,0,0,0,0,0,0,0,0,0,0,0,0,0,0,0,0]","[0.0005000000000023874,0.015999999999998238,0.032299999997022155,0.049199999988076115,0.06559999999404198,0.08239999999106118,0.09929999999702233,0.11599999999999966,0.13289999999106072,0.14939999999106135,0.16609999999403868,0.18269999998808117,0.19969999998807708,0.2161999999880777,0.23319999998808072,0.25009999999404187,0.2663999999910587,0.28249999999999886,0.29929999999701806,0.3157999999970187,0.33269999998807975,0.34899999999999665,0.3658999999910577,0.38259999999404215,0.3994999999999962,0.4160999999940387,0.4325999999940393,0.44929999999701664,0.46659999999403823,0.482999999999997,0.49939999999105567,0.5160999999940401,0.5328999999910593,0.5495000000000019,0.5663999999910558,0.5827999999970217,0.5989999999999966,0.615699999988081,0.6321999999880816,0.6487999999970171,0.6655999999940363,0.6823999999910555,0.6992999999970166,0.7158999999910591,0.7325999999940365,0.7490999999940371,0.7657999999970215,0.7822999999970222,0.7993999999910599,0.8158999999910606]",,2,0,2,0,1,participant,2022-09-22_12h34.49.126,GoFitts,2022.1.4,Win32,59.72288581,,,,
,,,,"[-195.62952014676114,-41.58233816355181]","[182.70909152852016,81.34732861516002]",48,400,0,"[-181,-188,-188,-188,-188,-188,-188,-192,-193,-193,-193,-193,-193,-193,-193,-193,-191,-177,-124,-43,19,81,105,112,112,112,112,113,115,121,123,124,124,124,124,124,127,130,142,153,154,154,154,154,154,154,154,157,161]","[-41,-42,-42,-42,-42,-42,-42,-43,-42,-41,-41,-41,-41,-41,-41,-41,-38,-30,-3,35,62,84,88,90,90,90,90,90,90,91,92,92,92,92,92,92,92,92,91,91,91,91,91,91,91,91,91,91,91]","[0,0,0,0,0,0,0,0,0,0,0,0,0,0,0,0,0,0,0,0,0,0,0,0,0,0,0,0,0,0,0,0,0,0,0,0,0,0,0,0,0,0,0,0,0,0,0,0,0]","[0,0,0,0,0,0,0,0,0,0,0,0,0,0,0,0,0,0,0,0,0,0,0,0,0,0,0,0,0,0,0,0,0,0,0,0,0,0,0,0,0,0,0,0,0,0,0,0,0]","[0,0,0,0,0,0,0,0,0,0,0,0,0,0,0,0,0,0,0,0,0,0,0,0,0,0,0,0,0,0,0,0,0,0,0,0,0,0,0,0,0,0,0,0,0,0,0,0,0]","[0.0009000000059629087,0.016100000008940185,0.03260000000894081,0.0492000000029833,0.0660000000000025,0.08240000000596126,0.09929999999702233,0.1159000000059649,0.13279999999701886,0.1495000000000033,0.16590000000596206,0.18250000000000455,0.19950000000000045,0.21610000000894303,0.23260000000894365,0.24950000000000472,0.267000000000003,0.2826000000089408,0.2992000000029833,0.3157000000029839,0.33290000000596365,0.34920000000298046,0.36629999999702534,0.3827000000029841,0.3992999999970195,0.41570000000298535,0.43250000000000455,0.44950000000000045,0.4666000000089454,0.4829000000059622,0.4997000000029814,0.5157999999970215,0.5322999999970222,0.5487000000029809,0.5655000000000001,0.5822000000029846,0.5995000000000061,0.6164000000059566,0.6329999999999991,0.6491000000089393,0.6662999999970189,0.6822000000029824,0.6991000000089365,0.7155000000000022,0.7322999999970214,0.7491000000089407,0.7657000000029761,0.782799999997021,0.7994999999999983]",,3,0,3,0,1,participant,2022-09-22_12h34.49.126,GoFitts,2022.1.4,Win32,59.72288581,,,,
,,,,"[182.70909152852016,81.34732861516002]","[-161.80339887498948,-117.5570504584946]",48,400,0,"[161,168,168,168,168,168,168,168,168,168,168,168,168,168,168,168,168,167,140,99,41,-20,-59,-69,-69,-69,-69,-69,-69,-69,-69,-69,-69,-71,-74,-83,-96,-103,-107,-110,-113,-116,-122,-129,-131,-133,-133,-133,-133,-138,-148]","[91,91,91,91,91,91,91,91,91,91,91,91,91,91,91,91,89,87,56,0,-55,-106,-136,-143,-143,-143,-143,-143,-143,-143,-143,-143,-143,-143,-139,-122,-108,-105,-105,-105,-107,-114,-121,-127,-133,-135,-135,-135,-135,-135,-130]","[0,0,0,0,0,0,0,0,0,0,0,0,0,0,0,0,0,0,0,0,0,0,0,0,0,0,0,0,0,0,0,0,0,0,0,0,0,0,0,0,0,0,0,0,0,0,0,0,0,0,0]","[0,0,0,0,0,0,0,0,0,0,0,0,0,0,0,0,0,0,0,0,0,0,0,0,0,0,0,0,0,0,0,0,0,0,0,0,0,0,0,0,0,0,0,0,0,0,0,0,0,0,0]","[0,0,0,0,0,0,0,0,0,0,0,0,0,0,0,0,0,0,0,0,0,0,0,0,0,0,0,0,0,0,0,0,0,0,0,0,0,0,0,0,0,0,0,0,0,0,0,0,0,0,0]","[0.000799999997013856,0.01589999999105629,0.03229999999701505,0.048799999997015675,0.06569999998807674,0.0820999999940355,0.0988999999910547,0.1156999999880739,0.13229999999701647,0.14869999998807515,0.1655999999940363,0.1823999999910555,0.19879999999701425,0.21559999999403345,0.2322999999970179,0.24919999998807896,0.26719999998807964,0.2833999999910546,0.2989999999999995,0.3157999999970187,0.332499999999996,0.3488999999910547,0.36559999999403914,0.38239999999105834,0.3987999999970171,0.4153999999910596,0.43199999999999505,0.44879999999701425,0.46539999999105675,0.4819999999999993,0.4985999999940347,0.5151999999880772,0.5318999999910545,0.5488999999910575,0.5657999999970187,0.582499999999996,0.5995999999940338,0.6170999999940392,0.6335999999940398,0.6493999999910542,0.6655999999940363,0.6820999999940369,0.6989999999999981,0.7152999999970149,0.7319999999999993,0.7487999999970185,0.7650999999940353,0.7818999999910545,0.7984999999999971,0.8156999999880767,0.8326999999880726]",,4,0,4,0,1,participant,2022-09-22_12h34.49.126,GoFitts,2022.1.4,Win32,59.72288581,,,,
,,,,"[-161.80339887498948,-117.5570504584946]","[133.82612127177165,148.62896509547886]",48,400,0,"[-148,-166,-181,-181,-185,-184,-183,-182,-182,-182,-182,-182,-182,-182,-182,-182,-179,-169,-136,-88,-35,7,39,57,57,57,57,57,60,64,71,78,91,104,108,108,108,108,108,109,109,110,111,113,116]","[-130,-123,-117,-117,-113,-110,-110,-110,-110,-110,-110,-110,-110,-110,-110,-110,-108,-98,-64,-3,71,136,182,204,204,204,204,204,205,205,196,189,181,177,176,176,176,176,176,176,173,171,168,165,163]","[0,0,0,0,0,0,0,0,0,0,0,0,0,0,0,0,0,0,0,0,0,0,0,0,0,0,0,0,0,0,0,0,0,0,0,0,0,0,0,0,0,0,0,0,0]","[0,0,0,0,0,0,0,0,0,0,0,0,0,0,0,0,0,0,0,0,0,0,0,0,0,0,0,0,0,0,0,0,0,0,0,0,0,0,0,0,0,0,0,0,0]","[0,0,0,0,0,0,0,0,0,0,0,0,0,0,0,0,0,0,0,0,0,0,0,0,0,0,0,0,0,0,0,0,0,0,0,0,0,0,0,0,0,0,0,0,0]","[0.0009000000059629087,0.015900000005963477,0.033300000011919906,0.049100000008941436,0.06610000000894445,0.0823000000119194,0.0993000000119224,0.11570000000298108,0.13210000000893984,0.14890000000595904,0.16560000000894348,0.18240000000596268,0.19880000001192144,0.2157000000029825,0.2327000000029784,0.24930000001192099,0.2658000000119216,0.2821000000089384,0.2992000000029833,0.31540000000595825,0.33220000000298455,0.3491000000089386,0.3654000000059625,0.3824000000059584,0.39890000000595904,0.41550000000000153,0.43220000000297887,0.44880000001192144,0.4660000000000011,0.48280000001192036,0.49920000000297904,0.5154000000059611,0.5324000000059641,0.5488000000119229,0.5657000000029839,0.5821000000089427,0.5986000000089433,0.6152000000029787,0.6319999999999979,0.6491000000089429,0.6656000000089435,0.6819000000059603,0.6988000000119214,0.7157000000029825,0.7323000000119251]",,5,0,5,0,1,participant,2022-09-22_12h34.49.126,GoFitts,2022.1.4,Win32,59.72288581,,,,
,,,,"[133.82612127177165,148.62896509547886]","[-100.00000000000009,-173.2050807568877]",48,400,0,"[116,116,116,116,116,116,116,116,116,116,116,116,116,116,116,116,108,91,58,-7,-41,-62,-71,-75,-79,-83,-85,-85,-85,-85,-86,-86,-86,-86,-86,-86,-87]","[163,163,163,163,163,163,163,163,163,163,163,163,163,163,163,163,161,152,127,66,26,1,-19,-36,-52,-66,-75,-75,-76,-77,-79,-82,-86,-93,-113,-137,-154]","[0,0,0,0,0,0,0,0,0,0,0,0,0,0,0,0,0,0,0,0,0,0,0,0,0,0,0,0,0,0,0,0,0,0,0,0,0]","[0,0,0,0,0,0,0,0,0,0,0,0,0,0,0,0,0,0,0,0,0,0,0,0,0,0,0,0,0,0,0,0,0,0,0,0,0]","[0,0,0,0,0,0,0,0,0,0,0,0,0,0,0,0,0,0,0,0,0,0,0,0,0,0,0,0,0,0,0,0,0,0,0,0,0]","[0.0004000000059605213,0.015599999994037717,0.032400000005957,0.049500000000001876,0.06590000000596064,0.08270000000297983,0.09949999999999903,0.11629999999701823,0.132700000002977,0.1490000000000009,0.1655999999940363,0.18220000000297887,0.19899999999999807,0.21579999999701727,0.2322999999970179,0.2515999999940419,0.2665999999940354,0.2829000000059594,0.29959999999403664,0.31609999999403726,0.33270000000297983,0.34920000000298046,0.3657000000029811,0.3824000000059584,0.39940000000596143,0.41550000000000153,0.4325999999940393,0.44879999999702136,0.46609999999403584,0.48259999999403647,0.49900000000000233,0.5159999999999982,0.5325999999940407,0.5489999999999995,0.5657000000029768,0.5822999999970193,0.5989999999999966]",,6,0,6,0,1,participant,2022-09-22_12h34.49.126,GoFitts,2022.1.4,Win32,59.72288581,,,,
,,,,"[-100.00000000000009,-173.2050807568877]","[61.80339887498949,190.2113032590307]",48,400,0,"[-87,-87,-87,-87,-87,-87,-88,-88,-88,-88,-91,-93,-95,-95,-95,-95,-95,-94,-92,-88,-79,-54,-24,-5,0,1,1,1,1,1,1,1,1,5,7,11,14,20,35,57]","[-154,-164,-164,-164,-164,-164,-166,-166,-166,-166,-168,-173,-177,-177,-177,-177,-177,-172,-162,-122,-36,61,126,161,181,187,187,187,187,187,187,187,187,189,191,191,191,192,197,206]","[0,0,0,0,0,0,0,0,0,0,0,0,0,0,0,0,0,0,0,0,0,0,0,0,0,0,0,0,0,0,0,0,0,0,0,0,0,0,0,0]","[0,0,0,0,0,0,0,0,0,0,0,0,0,0,0,0,0,0,0,0,0,0,0,0,0,0,0,0,0,0,0,0,0,0,0,0,0,0,0,0]","[0,0,0,0,0,0,0,0,0,0,0,0,0,0,0,0,0,0,0,0,0,0,0,0,0,0,0,0,0,0,0,0,0,0,0,0,0,0,0,0]","[0.00039999999106044015,0.016399999991058678,0.032700000002982677,0.049599999994036637,0.06649999999999778,0.08320000000298222,0.10000000000000142,0.11720000000298114,0.13349999999999795,0.15009999999404045,0.1672000000029783,0.18299999999999983,0.19970000000297716,0.21629999999701965,0.232999999999997,0.2497999999970162,0.26620000000298205,0.28320000000297796,0.2998999999910552,0.3162999999970211,0.33289999999105646,0.3495999999940409,0.3663999999910601,0.383399999991056,0.39970000000298,0.41639999999105726,0.4330999999940417,0.44970000000297716,0.46629999999701965,0.48289999999105504,0.4997999999970162,0.5165000000000006,0.533099999994036,0.5502999999970157,0.5667999999970164,0.5828999999910565,0.5997000000029828,0.6162999999970182,0.6328999999910607,0.6497999999970219]",,7,0,7,0,1,participant,2022-09-22_12h34.49.126,GoFitts,2022.1.4,Win32,59.72288581,,,,
,,,,"[61.80339887498949,190.2113032590307]","[-20.905692653530846,-198.90437907365467]",48,400,0,"[57,65,66,66,66,66,66,66,65,61,58,58,57,53,48,37,10,-25,-40,-45,-52,-53,-55,-59,-60,-60,-60,-60,-53,-46,-44,-36,-22,-8,5,10,12,12,12,12,11,11,7,3]","[206,211,212,212,212,212,212,212,212,211,211,211,210,207,205,199,175,124,95,71,29,-23,-75,-116,-137,-144,-146,-147,-151,-156,-156,-156,-158,-160,-161,-161,-162,-165,-169,-172,-177,-182,-189,-198]","[0,0,0,0,0,0,0,0,0,0,0,0,0,0,0,0,0,0,0,0,0,0,0,0,0,0,0,0,0,0,0,0,0,0,0,0,0,0,0,0,0,0,0,0]","[0,0,0,0,0,0,0,0,0,0,0,0,0,0,0,0,0,0,0,0,0,0,0,0,0,0,0,0,0,0,0,0,0,0,0,0,0,0,0,0,0,0,0,0]","[0,0,0,0,0,0,0,0,0,0,0,0,0,0,0,0,0,0,0,0,0,0,0,0,0,0,0,0,0,0,0,0,0,0,0,0,0,0,0,0,0,0,0,0]","[0.0006999999880790142,0.016199999988074865,0.0328999999910593,0.049199999988076115,0.06579999999701869,0.0827999999970146,0.09929999999701522,0.11579999999701585,0.13309999999403743,0.14959999999403806,0.16589999999105487,0.18269999998807407,0.19929999999701664,0.21609999999403584,0.23279999999702028,0.24989999999105805,0.26619999998807486,0.28299999999999415,0.29949999999999477,0.3157999999970187,0.33269999998807265,0.34949999999999903,0.36599999999999966,0.38309999999403743,0.4001999999880752,0.4167999999970178,0.43389999999105555,0.4503999999910562,0.46679999999701494,0.48289999999105504,0.49969999998807424,0.5162999999970168,0.5325999999940336,0.5494999999999948,0.5661999999880791,0.5825999999940379,0.5991999999880733,0.6159999999999997,0.6326999999880769,0.6490999999940357,0.6656999999880782,0.682799999997016,0.6995999999940352,0.7156999999880753]",,8,0,8,0,1,participant,2022-09-22_12h34.49.126,GoFitts,2022.1.4,Win32,59.72288581,,,,
,,,,"[-20.905692653530846,-198.90437907365467]","[-20.905692653530668,198.90437907365467]",48,400,0,"[3,-1,-2,-2,-2,-2,-3,-3,-3,-3,-3,-3,-3,-3,-3,-2,3,12,19,20,-24,-117,-187,-214,-214,-207,-202,-195,-184,-169,-155,-143,-141,-141,-140,-136,-129,-119,-114,-109,-103,-100,-97,-94,-87,-77,-65,-65,-65,-65,-65,-62,-58,-56,-54,-48,-38]","[-198,-205,-205,-205,-205,-205,-205,-205,-205,-205,-205,-205,-205,-205,-205,-204,-202,-195,-183,-152,-68,45,128,156,157,157,157,157,157,157,157,157,157,157,157,157,157,157,157,157,166,169,170,172,173,178,184,184,184,184,184,185,186,187,188,188,189]","[0,0,0,0,0,0,0,0,0,0,0,0,0,0,0,0,0,0,0,0,0,0,0,0,0,0,0,0,0,0,0,0,0,0,0,0,0,0,0,0,0,0,0,0,0,0,0,0,0,0,0,0,0,0,0,0,0]","[0,0,0,0,0,0,0,0,0,0,0,0,0,0,0,0,0,0,0,0,0,0,0,0,0,0,0,0,0,0,0,0,0,0,0,0,0,0,0,0,0,0,0,0,0,0,0,0,0,0,0,0,0,0,0,0,0]","[0,0,0,0,0,0,0,0,0,0,0,0,0,0,0,0,0,0,0,0,0,0,0,0,0,0,0,0,0,0,0,0,0,0,0,0,0,0,0,0,0,0,0,0,0,0,0,0,0,0,0,0,0,0,0,0,0]","[0.00029999999701857405,0.01640000000595876,0.03309999999404312,0.049500000000001876,0.06640000000596302,0.0827999999970217,0.09970000000298285,0.11650000000000205,0.1329000000059608,0.1495000000000033,0.16659999999404107,0.18279999999702312,0.19959999999404232,0.2162000000029778,0.23279999999702028,0.2494999999999976,0.26620000000298205,0.2829000000059594,0.2995000000000019,0.3162000000029792,0.3327999999970217,0.3495999999940409,0.3664000000059602,0.38329999999702125,0.39959999999403806,0.4162999999970225,0.43299999999999983,0.4495999999940423,0.4662000000029778,0.4829000000059622,0.4997999999970233,0.5164000000059588,0.5330999999940431,0.5495999999940437,0.5670000000000002,0.5842999999970218,0.6005999999940386,0.6164000000059602,0.6330000000000027,0.6495000000000033,0.6664000000059644,0.6827999999970231,0.699799999997019,0.7169999999999987,0.7327999999970203,0.75,0.7664000000059588,0.7827999999970174,0.79940000000596,0.8160999999940373,0.8327999999970217,0.8499000000059596,0.8662999999970182,0.8829000000059608,0.8997999999970219,0.9164000000059644,0.9327999999970231]",,9,0,9,0,1,participant,2022-09-22_12h34.49.126,GoFitts,2022.1.4,Win32,59.72288581,,,,
,,,,"[-20.905692653530668,198.90437907365467]","[61.80339887498945,-190.21130325903073]",48,400,0,"[-38,-29,-27,-27,-27,-27,-27,-27,-28,-33,-39,-46,-59,-67,-67,-67,-67,-48,5,59,109,119,119,119,119,119,119,119,119,119,119,119,125,123,122,117,109,99,91,89,89,89,89,87,84,82]","[189,194,194,194,195,195,195,195,195,193,190,188,182,180,180,177,167,120,26,-65,-158,-173,-173,-173,-173,-173,-173,-173,-173,-173,-173,-173,-184,-186,-187,-188,-192,-198,-201,-203,-203,-203,-203,-203,-202,-201]","[0,0,0,0,0,0,0,0,0,0,0,0,0,0,0,0,0,0,0,0,0,0,0,0,0,0,0,0,0,0,0,0,0,0,0,0,0,0,0,0,0,0,0,0,0,0]","[0,0,0,0,0,0,0,0,0,0,0,0,0,0,0,0,0,0,0,0,0,0,0,0,0,0,0,0,0,0,0,0,0,0,0,0,0,0,0,0,0,0,0,0,0,0]","[0,0,0,0,0,0,0,0,0,0,0,0,0,0,0,0,0,0,0,0,0,0,0,0,0,0,0,0,0,0,0,0,0,0,0,0,0,0,0,0,0,0,0,0,0,0]","[0.0004000000059605213,0.016300000011916893,0.03320000000297796,0.04960000000893672,0.06640000000595592,0.08299999999999841,0.09960000000894098,0.11650000000000205,0.13370000000298177,0.1504000000059591,0.16680000001191786,0.18320000000297654,0.20060000000894007,0.2166000000089383,0.2327000000029784,0.24970000000298143,0.2663000000119169,0.2828000000119175,0.2996000000089367,0.3162000000029792,0.3329999999999984,0.34949999999999903,0.36599999999999966,0.382700000002977,0.39930000001191956,0.41590000000596206,0.43270000000298126,0.4494000000059586,0.4664000000059616,0.48280000001192036,0.4994999999999976,0.5166000000089426,0.5333000000119199,0.54940000000596,0.5663000000119212,0.582600000008938,0.5998000000119177,0.6163000000119183,0.6329000000059608,0.6496000000089381,0.6659999999999968,0.6827000000029813,0.6999999999999957,0.7160000000000011,0.7327000000029784,0.7494999999999976]",,10,0,10,0,1,participant,2022-09-22_12h34.49.126,GoFitts,2022.1.4,Win32,59.72288581,,,,
,,,,"[61.80339887498945,-190.21130325903073]","[-99.99999999999996,173.20508075688775]",48,400,0,"[82,80,79,79,78,78,78,77,73,61,44,35,34,33,29,10,-71,-138,-167,-173,-173,-173,-173,-173,-173,-173,-170,-167,-159,-149,-147,-147,-147,-146,-143,-138,-128,-123]","[-201,-196,-191,-185,-180,-180,-178,-174,-163,-134,-106,-95,-93,-92,-87,-61,39,109,138,143,143,143,143,143,143,143,146,148,153,165,172,172,172,176,178,178,178,179]","[0,0,0,0,0,0,0,0,0,0,0,0,0,0,0,0,0,0,0,0,0,0,0,0,0,0,0,0,0,0,0,0,0,0,0,0,0,0]","[0,0,0,0,0,0,0,0,0,0,0,0,0,0,0,0,0,0,0,0,0,0,0,0,0,0,0,0,0,0,0,0,0,0,0,0,0,0]","[0,0,0,0,0,0,0,0,0,0,0,0,0,0,0,0,0,0,0,0,0,0,0,0,0,0,0,0,0,0,0,0,0,0,0,0,0,0]","[0.0001999999880837322,0.016500000000000625,0.03300000000000125,0.04969999998808561,0.06619999998807913,0.0827999999970217,0.09989999999105947,0.1163999999910601,0.1331999999880793,0.14969999998807992,0.16659999999404107,0.1830999999940417,0.19959999999404232,0.21650000000000347,0.23309999999404596,0.25,0.2665999999940425,0.28300000000000125,0.30000000000000426,0.3165000000000049,0.332599999994045,0.3493999999910642,0.36629999999702534,0.38279999999702596,0.39959999999404516,0.41619999998808055,0.4332999999970255,0.45000000000000284,0.46679999999702204,0.4838999999910598,0.500699999988079,0.5166999999880844,0.5327999999970245,0.5496999999880856,0.5665000000000049,0.5828999999910636,0.5995000000000061,0.6161999999880834]",,11,0,11,0,1,participant,2022-09-22_12h34.49.126,GoFitts,2022.1.4,Win32,59.72288581,,,,
,,,,"[-99.99999999999996,173.20508075688775]","[133.82612127177168,-148.6289650954788]",48,400,0,"[-123,-123,-123,-123,-123,-122,-122,-122,-122,-122,-127,-134,-134,-134,-134,-134,-134,-135,-137,-142,-147,-149,-151,-153,-153,-153,-153,-153,-153,-150,-138,-117,-83,-18,49,83,95,100,105,108,112,112,112,112,112,114,122,126,126,127,128,133,144]","[179,179,179,179,179,179,179,179,178,175,169,158,155,155,155,155,155,151,146,136,128,125,120,118,118,118,118,118,118,118,114,103,79,38,-4,-29,-43,-53,-66,-79,-86,-88,-88,-88,-88,-94,-102,-106,-106,-108,-113,-124,-147]","[0,0,0,0,0,0,0,0,0,0,0,0,0,0,0,0,0,0,0,0,0,0,0,0,0,0,0,0,0,0,0,0,0,0,0,0,0,0,0,0,0,0,0,0,0,0,0,0,0,0,0,0,0]","[0,0,0,0,0,0,0,0,0,0,0,0,0,0,0,0,0,0,0,0,0,0,0,0,0,0,0,0,0,0,0,0,0,0,0,0,0,0,0,0,0,0,0,0,0,0,0,0,0,0,0,0,0]","[0,0,0,0,0,0,0,0,0,0,0,0,0,0,0,0,0,0,0,0,0,0,0,0,0,0,0,0,0,0,0,0,0,0,0,0,0,0,0,0,0,0,0,0,0,0,0,0,0,0,0,0,0]","[0.00039999999106044015,0.016099999994040104,0.03279999999702454,0.04939999999105993,0.06620000000297921,0.0835000000000008,0.09989999999105947,0.11670000000298586,0.13320000000297938,0.14939999999106135,0.16600000000000392,0.18279999999702312,0.19929999999702375,0.2157000000029825,0.2325000000000017,0.2492999999970209,0.26620000000298205,0.2835999999940384,0.30020000000298097,0.31709999999404204,0.3327999999970217,0.34920000000298046,0.3658999999910648,0.38300000000000267,0.3990999999940428,0.4160000000000039,0.4327999999970231,0.4493999999910585,0.46589999999105913,0.48409999999404363,0.4992999999970209,0.5160000000000053,0.532399999991064,0.5490999999940414,0.5657999999970187,0.5827999999970217,0.5992000000029805,0.6160999999940415,0.6328999999910607,0.6493999999910613,0.6660000000000039,0.6827000000029813,0.6990999999940399,0.7157000000029825,0.7323999999910598,0.7493999999910628,0.7658999999910634,0.7825999999940407,0.7992999999970252,0.8160999999940444,0.832599999994045,0.8493999999910642,0.865799999997023]",,12,0,12,0,1,participant,2022-09-22_12h34.49.126,GoFitts,2022.1.4,Win32,59.72288581,,,,
,,,,"[133.82612127177168,-148.6289650954788]","[-161.80339887498945,117.55705045849464]",48,400,0,"[144,156,164,166,167,168,166,166,166,166,163,162,159,149,141,109,36,-69,-138,-163,-163,-163,-163,-165]","[-147,-168,-177,-177,-177,-176,-170,-170,-170,-170,-170,-169,-168,-160,-151,-116,-51,17,53,63,69,75,88,94]","[0,0,0,0,0,0,0,0,0,0,0,0,0,0,0,0,0,0,0,0,0,0,0,0]","[0,0,0,0,0,0,0,0,0,0,0,0,0,0,0,0,0,0,0,0,0,0,0,0]","[0,0,0,0,0,0,0,0,0,0,0,0,0,0,0,0,0,0,0,0,0,0,0,0]","[0.0004000000059605213,0.016299999997016812,0.032999999999994145,0.04990000000595529,0.06649999999999778,0.08299999999999841,0.09949999999999903,0.11609999999403442,0.132700000002977,0.1494999999999962,0.1667000000029759,0.1830999999940346,0.19949999999999335,0.2162000000029778,0.23309999999403885,0.24970000000297432,0.2662999999970168,0.283099999994036,0.29959999999403664,0.3164000000059559,0.3327999999970146,0.34970000000297574,0.3660999999940344,0.3829000000059537]",,13,0,13,0,1,participant,2022-09-22_12h34.49.126,GoFitts,2022.1.4,Win32,59.72288581,,,,
,,,,"[-161.80339887498945,117.55705045849464]","[182.7090915285202,-81.34732861516002]",48,400,0,"[-165,-165,-166,-166,-166,-166,-166,-166,-166,-166,-163,-162,-161,-161,-161,-161,-161,-161,-163,-167,-175,-183,-188,-189,-178,-148,-44,69,172,243,269,269,269,269,269,269,269,269,269,269,269,269,265,256,242,226,211,203]","[94,95,96,96,96,96,96,96,96,96,99,101,103,103,103,103,103,102,97,87,68,47,33,27,22,14,3,-11,-27,-37,-43,-46,-50,-53,-55,-55,-55,-55,-55,-55,-56,-58,-60,-62,-69,-76,-79,-79]","[0,0,0,0,0,0,0,0,0,0,0,0,0,0,0,0,0,0,0,0,0,0,0,0,0,0,0,0,0,0,0,0,0,0,0,0,0,0,0,0,0,0,0,0,0,0,0,0]","[0,0,0,0,0,0,0,0,0,0,0,0,0,0,0,0,0,0,0,0,0,0,0,0,0,0,0,0,0,0,0,0,0,0,0,0,0,0,0,0,0,0,0,0,0,0,0,0]","[0,0,0,0,0,0,0,0,0,0,0,0,0,0,0,0,0,0,0,0,0,0,0,0,0,0,0,0,0,0,0,0,0,0,0,0,0,0,0,0,0,0,0,0,0,0,0,0]","[0.0004000000059605213,0.016000000000005343,0.032900000005959384,0.0492000000029833,0.06610000000894445,0.08300000000000551,0.09960000000894098,0.1161000000089416,0.13260000000894223,0.14929999999701948,0.16620000000298063,0.18340000000596035,0.19970000000298427,0.21600000000000108,0.2325000000000017,0.24920000000298614,0.2662999999970239,0.28279999999702454,0.29929999999702517,0.31610000000894445,0.3326000000089451,0.349600000008941,0.3661000000089416,0.38279999999701886,0.3999000000059638,0.4160000000000039,0.43270000000298126,0.44970000000298427,0.46650000000000347,0.4830000000000041,0.500100000008942,0.5165000000000006,0.5330000000000013,0.54940000000596,0.5661000000089444,0.5826000000089451,0.599499999999999,0.6159999999999997,0.6327000000029841,0.6492000000029847,0.6662000000029806,0.6827000000029813,0.6992999999970237,0.7159000000059663,0.7326000000089437,0.7492999999970209,0.7661000000089402,0.7826000000089408]",,14,0,14,0,1,participant,2022-09-22_12h34.49.126,GoFitts,2022.1.4,Win32,59.72288581,,,,
,,,,,,,,0,,,,,,,,,,,,,participant,2022-09-22_12h34.49.126,GoFitts,2022.1.4,Win32,59.72288581,0,0,0,1
,,return,1.3866,"[50,70]","[114.19318220532512,50.84208038447502]",71.5,250,1,"[50,50,49,43,41,40,37,32,27,25,24,23,22,21,19,18,18,18,18,18,18,17,17,17,17,17,20,28,45,64,74,77,77,77,78,79,84,87,89]","[70,71,76,84,85,85,90,96,101,104,107,108,110,112,114,115,115,115,115,115,115,116,116,116,116,116,113,108,99,91,89,89,89,89,88,87,80,76,72]","[0,0,0,0,0,0,0,0,0,0,0,0,0,0,0,0,0,0,0,0,0,0,0,0,0,0,0,0,0,0,0,0,0,0,0,0,0,0,0]","[0,0,0,0,0,0,0,0,0,0,0,0,0,0,0,0,0,0,0,0,0,0,0,0,0,0,0,0,0,0,0,0,0,0,0,0,0,0,0]","[0,0,0,0,0,0,0,0,0,0,0,0,0,0,0,0,0,0,0,0,0,0,0,0,0,0,0,0,0,0,0,0,0,0,0,0,0,0,0]","[0.0020000000000024443,0.01540000000596109,0.03250000000000597,0.049000000000006594,0.06540000000596535,0.08220000000298455,0.09879999999701994,0.11559999999403914,0.13190000000596314,0.1490000000000009,0.16500000000000625,0.18200000000000216,0.19879999999702136,0.21509999999404528,0.23220000000298313,0.24849999999999994,0.26529999999702625,0.28179999999701977,0.2985999999940461,0.31520000000298154,0.33170000000298216,0.34859999999404323,0.3652000000029858,0.38190000000596314,0.39840000000596376,0.41520000000298296,0.4319000000059603,0.44859999999404465,0.4652000000029801,0.4820999999940412,0.49900000000000233,0.516200000002982,0.5322999999970222,0.5492999999970252,0.5657999999970258,0.5822000000029846,0.5995000000000061,0.6152999999970206,0.6320999999940398]",,0,0,0,0,1,participant,2022-09-22_12h34.49.126,GoFitts,2022.1.4,Win32,59.72288581,,,,
,,,,"[114.19318220532512,50.84208038447502]","[-101.12712429686843,-73.47315653655913]",71.5,250,1,"[89,91,93,101,109,111,111,111,111,114,115,115,115,115,115,115,115,115,115,115,114,104,83,62,46,32,8,-17,-38,-53,-54,-58,-64,-67]","[72,71,69,64,59,57,57,57,57,56,56,56,55,55,55,55,55,52,46,36,32,29,24,16,4,-13,-35,-53,-67,-75,-75,-75,-75,-75]","[0,0,0,0,0,0,0,0,0,0,0,0,0,0,0,0,0,0,0,0,0,0,0,0,0,0,0,0,0,0,0,0,0,0]","[0,0,0,0,0,0,0,0,0,0,0,0,0,0,0,0,0,0,0,0,0,0,0,0,0,0,0,0,0,0,0,0,0,0]","[0,0,0,0,0,0,0,0,0,0,0,0,0,0,0,0,0,0,0,0,0,0,0,0,0,0,0,0,0,0,0,0,0,0]","[0.00039999999106044015,0.01579999999702153,0.032700000002982677,0.04899999999999949,0.06620000000297921,0.08239999999106118,0.09920000000298046,0.11559999999403914,0.13209999999403976,0.14929999999701948,0.1655999999940363,0.18249999999999744,0.1993999999910585,0.21600000000000108,0.23259999999403647,0.24939999999105567,0.2660999999940401,0.2839999999999989,0.29999999999999716,0.31609999999403726,0.3323999999910612,0.3490999999940385,0.3660999999940415,0.38239999999105834,0.39909999999403567,0.41570000000297824,0.4323999999910555,0.4488999999910561,0.46679999999702204,0.4827000000029784,0.5002000000029767,0.5157999999970215,0.5334999999999965,0.5487999999970157]",,1,0,1,0,1,participant,2022-09-22_12h34.49.126,GoFitts,2022.1.4,Win32,59.72288581,,,,
,,,,"[-101.12712429686843,-73.47315653655913]","[83.64132579485728,92.89310318467427]",71.5,250,1,"[-67,-70,-70,-70,-72,-78,-90,-98,-100,-100,-100,-100,-99,-97,-93,-86,-54,25,115,190,220,225,225,225,221,217,212,206,190,170,157,155,153,142,118,98]","[-75,-75,-75,-75,-75,-75,-75,-75,-75,-75,-75,-75,-74,-71,-71,-64,-49,-8,39,84,108,115,116,116,116,116,116,116,116,116,116,116,116,116,116,116]","[0,0,0,0,0,0,0,0,0,0,0,0,0,0,0,0,0,0,0,0,0,0,0,0,0,0,0,0,0,0,0,0,0,0,0,0]","[0,0,0,0,0,0,0,0,0,0,0,0,0,0,0,0,0,0,0,0,0,0,0,0,0,0,0,0,0,0,0,0,0,0,0,0]","[0,0,0,0,0,0,0,0,0,0,0,0,0,0,0,0,0,0,0,0,0,0,0,0,0,0,0,0,0,0,0,0,0,0,0,0]","[0.0003999999910533347,0.016599999994035386,0.03270000000297557,0.04939999999105993,0.06689999999105822,0.08309999999404027,0.0995999999940338,0.11620000000297637,0.13279999999701886,0.14920000000297762,0.1657999999970201,0.18249999999999744,0.1993999999910585,0.21599999999999397,0.23309999999403885,0.2494999999999976,0.2665999999940354,0.2828999999910593,0.29939999999105993,0.31609999999403726,0.3330999999940403,0.34970000000297574,0.36599999999999966,0.38279999999701886,0.3994999999999962,0.4159999999999968,0.43270000000297415,0.4493999999910585,0.465999999999994,0.48289999999105504,0.4995999999940395,0.5159999999999982,0.5328999999910593,0.5493999999910599,0.5658999999910534,0.5827000000029798]",,2,0,2,0,1,participant,2022-09-22_12h34.49.126,GoFitts,2022.1.4,Win32,59.72288581,,,,
,,,,"[83.64132579485728,92.89310318467427]","[-62.50000000000006,-108.25317547305481]",71.5,250,1,"[98,91,91,91,91,88,86,86,86,86,86,85,72,58,46,32,17,-8,-18,-20,-20,-21,-29,-40]","[116,116,116,116,116,116,115,110,104,95,80,56,27,3,-16,-32,-47,-71,-78,-80,-80,-80,-80,-83]","[0,0,0,0,0,0,0,0,0,0,0,0,0,0,0,0,0,0,0,0,0,0,0,0]","[0,0,0,0,0,0,0,0,0,0,0,0,0,0,0,0,0,0,0,0,0,0,0,0]","[0,0,0,0,0,0,0,0,0,0,0,0,0,0,0,0,0,0,0,0,0,0,0,0]","[0.0004000000059605213,0.016200000002974946,0.03270000000297557,0.04929999999701806,0.06590000000595353,0.0827999999970146,0.09960000000893388,0.11620000000297637,0.13299999999999557,0.1499000000059567,0.16610000000893876,0.18279999999701602,0.19979999999701903,0.21629999999701965,0.23279999999701317,0.24940000000595575,0.26620000000297495,0.2829000000059594,0.29940000000596,0.3162000000029792,0.33240000000595415,0.3497999999970176,0.36629999999701823,0.38279999999701886]",,3,0,3,0,1,participant,2022-09-22_12h34.49.126,GoFitts,2022.1.4,Win32,59.72288581,,,,
,,,,"[-62.50000000000006,-108.25317547305481]","[38.62712429686843,118.88206453689419]",71.5,250,1,"[-40,-44,-44,-44,-44,-46,-47,-50,-50,-50,-50,-49,-44,-41,-31,-8,25,55]","[-83,-83,-83,-83,-83,-85,-88,-89,-89,-89,-89,-87,-80,-74,-62,-25,33,96]","[0,0,0,0,0,0,0,0,0,0,0,0,0,0,0,0,0,0]","[0,0,0,0,0,0,0,0,0,0,0,0,0,0,0,0,0,0]","[0,0,0,0,0,0,0,0,0,0,0,0,0,0,0,0,0,0]","[0.000499999999995282,0.016299999997016812,0.03270000000297557,0.049200000002976196,0.06590000000596064,0.08290000000595654,0.0995999999940338,0.11620000000297637,0.13259999999403504,0.14920000000297762,0.16590000000595495,0.18290000000595796,0.19959999999403522,0.21649999999999636,0.2334000000059575,0.24959999999403948,0.2662999999970168,0.28270000000297557]",,4,0,4,0,1,participant,2022-09-22_12h34.49.126,GoFitts,2022.1.4,Win32,59.72288581,,,,
,,,,"[38.62712429686843,118.88206453689419]","[-13.066057908456779,-124.31523692103416]",71.5,250,1,"[55,67,67,67,67,67,67,71,69,62,54,38,24,10,7,7,7,6,4,4]","[96,132,132,132,132,132,132,141,140,133,128,122,114,89,64,33,-2,-39,-75,-99]","[0,0,0,0,0,0,0,0,0,0,0,0,0,0,0,0,0,0,0,0]","[0,0,0,0,0,0,0,0,0,0,0,0,0,0,0,0,0,0,0,0]","[0,0,0,0,0,0,0,0,0,0,0,0,0,0,0,0,0,0,0,0]","[0.00039999999106044015,0.016299999997016812,0.03259999999404073,0.04929999999701806,0.0660000000000025,0.08289999999105646,0.09939999999105709,0.11659999999403681,0.13320000000297938,0.15689999999106163,0.1664999999999992,0.18359999999403698,0.20000000000000284,0.21659999999403823,0.23309999999403885,0.24989999999105805,0.2665000000000006,0.28320000000297796,0.29979999999702045,0.3164999999999978]",,5,0,5,0,1,participant,2022-09-22_12h34.49.126,GoFitts,2022.1.4,Win32,59.72288581,,,,
,,,,"[-13.066057908456779,-124.31523692103416]","[-13.066057908456667,124.31523692103417]",71.5,250,1,"[4,4,4,4,4,4,4,4,4,5,5,5,-3,-27,-51,-58,-60,-60,-60,-60,-60,-59,-52,-50,-50,-50,-50,-49,-47,-46,-45,-40]","[-99,-115,-119,-119,-119,-119,-119,-119,-119,-123,-119,-102,-73,-11,50,94,120,129,130,130,131,134,144,147,148,148,148,148,148,148,148,147]","[0,0,0,0,0,0,0,0,0,0,0,0,0,0,0,0,0,0,0,0,0,0,0,0,0,0,0,0,0,0,0,0]","[0,0,0,0,0,0,0,0,0,0,0,0,0,0,0,0,0,0,0,0,0,0,0,0,0,0,0,0,0,0,0,0]","[0,0,0,0,0,0,0,0,0,0,0,0,0,0,0,0,0,0,0,0,0,0,0,0,0,0,0,0,0,0,0,0]","[0.0009000000059629087,0.015999999999998238,0.032800000011924624,0.049100000008941436,0.06560000000894206,0.0823000000119194,0.09900000000000375,0.11560000000893922,0.13230000001192366,0.1495000000000033,0.16600000000000392,0.1828000000119232,0.1994000000059586,0.21600000000000108,0.2327000000029784,0.24930000001192099,0.2661000000089402,0.2828000000119246,0.29910000000894144,0.3155000000000001,0.3325000000000031,0.3491000000089386,0.36580000001192303,0.3827000000029841,0.39940000000596143,0.4156000000089435,0.43220000000297887,0.44930000001192383,0.4659000000059592,0.48260000000894365,0.49940000000596285,0.5159999999999982]",,6,0,6,0,1,participant,2022-09-22_12h34.49.126,GoFitts,2022.1.4,Win32,59.72288581,,,,
,,,,"[-13.066057908456667,124.31523692103417]","[38.6271242968684,-118.8820645368942]",71.5,250,1,"[-40,-36,-25,-16,-10,-10,-10,-10,-10,-10,-10,-10,-7,0,11,20,22,23,23,23,23,23,23,18,0,-26,-46,-67,-92,-98,-98,-98,-98,-98,-98,-98,-98,-98,-98,-97,-94,-89,-77,-63,-52,-40,-18,12,37,39,39,39,39,39,39,39,39,39,39,39,39,35,27,19]","[147,134,108,80,69,68,60,52,32,11,2,-3,-11,-27,-46,-61,-64,-65,-65,-65,-65,-65,-64,-56,-26,10,43,77,118,130,130,132,133,133,133,133,133,133,133,133,133,133,121,96,64,33,-16,-81,-165,-191,-199,-199,-199,-199,-199,-199,-199,-199,-199,-199,-193,-185,-160,-121]","[0,0,0,0,0,0,0,0,0,0,0,0,0,0,0,0,0,0,0,0,0,0,0,0,0,0,0,0,0,0,0,0,0,0,0,0,0,0,0,0,0,0,0,0,0,0,0,0,0,0,0,0,0,0,0,0,0,0,0,0,0,0,0,0]","[0,0,0,0,0,0,0,0,0,0,0,0,0,0,0,0,0,0,0,0,0,0,0,0,0,0,0,0,0,0,0,0,0,0,0,0,0,0,0,0,0,0,0,0,0,0,0,0,0,0,0,0,0,0,0,0,0,0,0,0,0,0,0,0]","[0,0,0,0,0,0,0,0,0,0,0,0,0,0,0,0,0,0,0,0,0,0,0,0,0,0,0,0,0,0,0,0,0,0,0,0,0,0,0,0,0,0,0,0,0,0,0,0,0,0,0,0,0,0,0,0,0,0,0,0,0,0,0,0]","[0.0005000000000023874,0.015900000005963477,0.03249999999999886,0.0492000000029833,0.06580000001191877,0.08260000000893797,0.0991000000089386,0.11599999999999966,0.13260000000894223,0.14930000001191956,0.16599999999999682,0.18249999999999744,0.19910000000894001,0.21580000001192445,0.23240000000595984,0.24910000000894428,0.2658000000119216,0.2826000000089408,0.2989000000059576,0.31560000000894206,0.33240000000596126,0.3489000000059619,0.36599999999999966,0.3825000000000003,0.39910000000894286,0.41590000000596206,0.4324000000059627,0.44910000000894,0.46580000001192445,0.4825000000000017,0.49890000000596046,0.5158000000119216,0.5324999999999989,0.5489000000059576,0.5656000000089421,0.5822000000029774,0.5989000000059619,0.6156000000089392,0.6323000000119237,0.6491000000089429,0.6656000000089435,0.6824000000059627,0.6989999999999981,0.7157000000029825,0.7325000000000017,0.749200000002979,0.7659000000059635,0.7824000000059641,0.7989999999999995,0.8158000000119188,0.8325000000000031,0.84880000001192,0.8656000000089392,0.882700000002977,0.8988000000119243,0.9156000000089435,0.9321000000089441,0.9489000000059633,0.9654000000059639,0.9822000000029831,0.9991000000089443,1.0156000000089378,1.0322000000029803,1.0491000000089414]",,7,0,7,0,1,participant,2022-09-22_12h34.49.126,GoFitts,2022.1.4,Win32,59.72288581,,,,
,,,,"[38.6271242968684,-118.8820645368942]","[-62.49999999999997,108.25317547305484]",71.5,250,1,"[19,12,-7,-18,-18,-18,-18,-18,-18,-18,-14,-4,9,22,32,37,37,37,37,37,20,-18,-22,-22,-22,-22,-24,-27,-30,-33,-37]","[-121,-33,53,93,95,95,95,95,95,92,78,41,-6,-40,-59,-69,-70,-70,-70,-59,-13,60,71,73,73,73,75,77,81,82,87]","[0,0,0,0,0,0,0,0,0,0,0,0,0,0,0,0,0,0,0,0,0,0,0,0,0,0,0,0,0,0,0]","[0,0,0,0,0,0,0,0,0,0,0,0,0,0,0,0,0,0,0,0,0,0,0,0,0,0,0,0,0,0,0]","[0,0,0,0,0,0,0,0,0,0,0,0,0,0,0,0,0,0,0,0,0,0,0,0,0,0,0,0,0,0,0]","[0.00020000000298381337,0.01620000000298205,0.03300000000000125,0.049500000000001876,0.06620000000297921,0.08270000000297983,0.09940000000596427,0.11590000000595779,0.1327000000029841,0.14940000000596143,0.16620000000298063,0.18279999999702312,0.1994000000059586,0.2162000000029778,0.23279999999702028,0.2494999999999976,0.2660999999940401,0.2827000000029827,0.29929999999701806,0.31609999999403726,0.33290000000596365,0.3494000000059643,0.36599999999999966,0.3827000000029841,0.3992000000029776,0.4160000000000039,0.43290000000595796,0.4495999999940423,0.46609999999404295,0.4827999999970203,0.49940000000596285]",,8,0,8,0,1,participant,2022-09-22_12h34.49.126,GoFitts,2022.1.4,Win32,59.72288581,,,,
,,,,"[-62.49999999999997,108.25317547305484]","[83.64132579485731,-92.89310318467426]",71.5,250,1,"[-37,-42,-47,-48,-48,-48,-48,-48,-48,-47,-42,-30,-7,18,48,92,114,120,120,120,120,120,120,120,120,120,120,119,116,110,101]","[87,93,99,100,100,100,100,100,100,99,93,74,40,-5,-55,-132,-174,-185,-186,-186,-186,-186,-186,-186,-186,-182,-173,-165,-154,-133,-110]","[0,0,0,0,0,0,0,0,0,0,0,0,0,0,0,0,0,0,0,0,0,0,0,0,0,0,0,0,0,0,0]","[0,0,0,0,0,0,0,0,0,0,0,0,0,0,0,0,0,0,0,0,0,0,0,0,0,0,0,0,0,0,0]","[0,0,0,0,0,0,0,0,0,0,0,0,0,0,0,0,0,0,0,0,0,0,0,0,0,0,0,0,0,0,0]","[0.0003000000119186552,0.016300000011924,0.03320000000297796,0.04980000001192053,0.06630000001192116,0.08299999999999841,0.09960000000894098,0.11630000001191831,0.1329000000059608,0.14990000000596382,0.16640000000596444,0.18299999999999983,0.1998000000119191,0.21630000001191974,0.23330000001192275,0.24980000001192337,0.26640000000595876,0.2833000000119199,0.2997000000029786,0.3162000000029792,0.33290000000596365,0.349600000008941,0.3663000000119183,0.3829000000059608,0.39960000000893814,0.41640000000596444,0.4331000000089418,0.44970000000298427,0.46630000001191974,0.4829000000059622,0.49960000000893956]",,9,0,9,0,1,participant,2022-09-22_12h34.49.126,GoFitts,2022.1.4,Win32,59.72288581,,,,
,,,,"[83.64132579485731,-92.89310318467426]","[-101.12712429686842,73.47315653655916]",71.5,250,1,"[101,91,86,86,86,86,86,86,86,86,83,81,75,62,25,-69,-105,-114,-114]","[-110,-92,-80,-80,-80,-80,-80,-80,-80,-78,-77,-77,-75,-66,-43,14,32,39,46]","[0,0,0,0,0,0,0,0,0,0,0,0,0,0,0,0,0,0,0]","[0,0,0,0,0,0,0,0,0,0,0,0,0,0,0,0,0,0,0]","[0,0,0,0,0,0,0,0,0,0,0,0,0,0,0,0,0,0,0]","[0.00029999999701857405,0.016500000000000625,0.03309999999403601,0.0496999999880785,0.06629999999702108,0.08299999999999841,0.0995999999940409,0.11629999999701823,0.13289999999106072,0.14989999999105663,0.16639999999105726,0.1830999999940346,0.1998999999910609,0.21639999999105441,0.23319999998808072,0.2497999999970162,0.2663999999910587,0.2831999999880779,0.2998999999910552]",,10,0,10,0,1,participant,2022-09-22_12h34.49.126,GoFitts,2022.1.4,Win32,59.72288581,,,,
,,,,"[-101.12712429686842,73.47315653655916]","[114.19318220532512,-50.84208038447502]",71.5,250,1,"[-114,-115,-118,-118,-118,-118,-118,-118,-117,-117,-117,-116,-113,-106,-101,-94,-79,-54,-28,-10,3,18,36,37,37,37,37,40,41,48,48,53,55,69,101]","[46,52,55,55,55,55,55,56,56,58,58,58,58,58,60,60,60,51,38,28,22,13,0,-4,-5,-5,-5,-6,-8,-11,-11,-14,-15,-22,-31]","[0,0,0,0,0,0,0,0,0,0,0,0,0,0,0,0,0,0,0,0,0,0,0,0,0,0,0,0,0,0,0,0,0,0,0]","[0,0,0,0,0,0,0,0,0,0,0,0,0,0,0,0,0,0,0,0,0,0,0,0,0,0,0,0,0,0,0,0,0,0,0]","[0,0,0,0,0,0,0,0,0,0,0,0,0,0,0,0,0,0,0,0,0,0,0,0,0,0,0,0,0,0,0,0,0,0,0]","[0.00029999999701857405,0.015999999999998238,0.03260000000894081,0.04929999999701806,0.06590000000596064,0.08250000000000313,0.09920000000298046,0.11590000000595779,0.1329000000059608,0.14929999999701948,0.1657999999970201,0.1826000000089394,0.1994000000059586,0.21590000000595921,0.2325000000000017,0.24920000000297904,0.26599999999999824,0.28249999999999886,0.29929999999701806,0.31590000000596064,0.33270000000297983,0.34940000000595717,0.3659000000059578,0.38260000000894223,0.3992000000029776,0.41570000000297824,0.4324000000059627,0.4492000000029819,0.4659000000059592,0.48260000000894365,0.4991000000089372,0.5159000000059635,0.5327000000029827,0.5492000000029833,0.5657999999970187]",,11,0,11,0,1,participant,2022-09-22_12h34.49.126,GoFitts,2022.1.4,Win32,59.72288581,,,,
,,,,"[114.19318220532512,-50.84208038447502]","[-122.26845009172571,25.988961352219913]",71.5,250,1,"[101,110,110,110,110,110,110,110,109,104,88,60,36,32,29,6,-42,-85,-99]","[-31,-32,-32,-32,-32,-32,-32,-32,-32,-32,-31,-25,-23,-22,-20,-10,10,20,25]","[0,0,0,0,0,0,0,0,0,0,0,0,0,0,0,0,0,0,0]","[0,0,0,0,0,0,0,0,0,0,0,0,0,0,0,0,0,0,0]","[0,0,0,0,0,0,0,0,0,0,0,0,0,0,0,0,0,0,0]","[0.0001999999880837322,0.016399999991065783,0.0328999999910593,0.04959999999404374,0.06629999999702108,0.08289999999106357,0.09950000000000614,0.11629999999702534,0.13289999999106072,0.14969999998807992,0.16659999999404107,0.18299999999999983,0.1996999999880842,0.21639999999106152,0.23309999999404596,0.24969999998808134,0.2663999999910658,0.28300000000000125,0.29959999999404374]",,12,0,12,0,1,participant,2022-09-22_12h34.49.126,GoFitts,2022.1.4,Win32,59.72288581,,,,
,,,,"[-122.26845009172571,25.988961352219913]","[125,0]",71.5,250,1,"[-99,-99,-100,-100,-95,-90,-89,-87,-85,-83,-82,-82,-82,-82,-82,-82,-78,-62,6,71,118]","[25,25,25,26,26,27,27,27,27,27,27,27,27,27,27,26,23,19,14,14,14]","[0,0,0,0,0,0,0,0,0,0,0,0,0,0,0,0,0,0,0,0,0]","[0,0,0,0,0,0,0,0,0,0,0,0,0,0,0,0,0,0,0,0,0]","[0,0,0,0,0,0,0,0,0,0,0,0,0,0,0,0,0,0,0,0,0]","[0.0004000000059605213,0.016299999997016812,0.0331000000089432,0.049700000002978584,0.06660000000893973,0.08420000000297989,0.10079999999702238,0.11629999999701823,0.13329999999702125,0.14979999999702187,0.16640000000595734,0.18290000000595796,0.1996000000089424,0.2162000000029778,0.23290000000596223,0.2497999999970233,0.2665000000000006,0.28350000000000364,0.2996000000089438,0.316400000005963,0.3329999999999984]",,13,0,13,0,1,participant,2022-09-22_12h34.49.126,GoFitts,2022.1.4,Win32,59.72288581,,,,
,,,,"[125,0]","[-122.26845009172571,-25.98896135221988]",71.5,250,1,"[118,131,131,131,140,145,145,145,145,145,145,146,146,146,146,144,126,90,52,21,-2,-26,-63,-73,-74,-74,-75,-81,-93,-99]","[14,14,14,14,14,14,14,14,14,14,14,13,13,13,13,13,12,8,-3,-20,-35,-50,-66,-68,-68,-68,-68,-66,-55,-50]","[0,0,0,0,0,0,0,0,0,0,0,0,0,0,0,0,0,0,0,0,0,0,0,0,0,0,0,0,0,0]","[0,0,0,0,0,0,0,0,0,0,0,0,0,0,0,0,0,0,0,0,0,0,0,0,0,0,0,0,0,0]","[0,0,0,0,0,0,0,0,0,0,0,0,0,0,0,0,0,0,0,0,0,0,0,0,0,0,0,0,0,0]","[0.0004000000059605213,0.016500000000000625,0.03300000000000125,0.049700000002978584,0.06649999999999778,0.08320000000297512,0.0995999999940409,0.11629999999701823,0.13299999999999557,0.14959999999403806,0.1662999999970154,0.1830999999940346,0.19959999999403522,0.2162000000029778,0.232999999999997,0.2497999999970162,0.2672000000029797,0.2832999999970198,0.29979999999702045,0.3164999999999978,0.3332000000029751,0.3497999999970176,0.3664000000059602,0.38299999999999557,0.39970000000298,0.41620000000298063,0.4330999999940346,0.4495999999940352,0.46629999999701965,0.4829000000059622]",,14,0,14,0,1,participant,2022-09-22_12h34.49.126,GoFitts,2022.1.4,Win32,59.72288581,,,,
,,,,,,,,1,,,,,,,,,,,,,participant,2022-09-22_12h34.49.126,GoFitts,2022.1.4,Win32,59.72288581,1,0,0,1
,,return,0.6399,"[158,1]","[-283.15594803123156,205.72483830236564]",20,700,2,"[158,158,158,158,158,158,158,158,158,157,155,146,129,99,89,82,75,63,49,31,19,14,13,12,9,7,3,1,-2,-3,-4,-12,-27,-47,-67,-91,-118,-151,-178,-196,-202,-207,-213,-220,-222,-225,-228,-233,-249,-278,-318,-338,-338,-337,-330,-329,-329,-328,-323,-315,-301,-294,-292]","[1,1,1,1,1,1,1,1,1,2,6,14,26,45,53,58,64,74,92,112,132,146,150,159,179,203,243,254,266,267,276,291,304,310,311,299,276,246,223,215,214,216,220,222,222,222,222,222,222,216,205,201,201,201,205,207,207,207,207,207,208,209,209]","[0,0,0,0,0,0,0,0,0,0,0,0,0,0,0,0,0,0,0,0,0,0,0,0,0,0,0,0,0,0,0,0,0,0,0,0,0,0,0,0,0,0,0,0,0,0,0,0,0,0,0,0,0,0,0,0,0,0,0,0,0,0,0]","[0,0,0,0,0,0,0,0,0,0,0,0,0,0,0,0,0,0,0,0,0,0,0,0,0,0,0,0,0,0,0,0,0,0,0,0,0,0,0,0,0,0,0,0,0,0,0,0,0,0,0,0,0,0,0,0,0,0,0,0,0,0,0]","[0,0,0,0,0,0,0,0,0,0,0,0,0,0,0,0,0,0,0,0,0,0,0,0,0,0,0,0,0,0,0,0,0,0,0,0,0,0,0,0,0,0,0,0,0,0,0,0,0,0,0,0,0,0,0,0,0,0,0,0,0,0,0]","[0.0014000000059581907,0.015599999994037717,0.03220000000298029,0.04899999999999949,0.06550000000000011,0.08220000000297745,0.09879999999701994,0.11559999999403914,0.13229999999701647,0.14920000000297762,0.1657999999970201,0.18240000000595558,0.19920000000297478,0.21559999999403345,0.2322999999970179,0.2490999999940371,0.2655999999940377,0.28229999999701505,0.2992000000029762,0.3157000000029768,0.33240000000596126,0.34899999999999665,0.36559999999403914,0.38229999999701647,0.3992999999970195,0.41590000000595495,0.43229999999701363,0.44899999999999807,0.46559999999403345,0.4822999999970179,0.4989999999999952,0.5157000000029797,0.5322000000029803,0.5489000000059576,0.5655000000000001,0.5822999999970193,0.5989000000059548,0.6155999999940391,0.6322000000029746,0.648900000005959,0.6654999999999944,0.6820999999940369,0.6989000000059562,0.7154000000059568,0.7320999999940341,0.7487999999970185,0.7654000000059611,0.7820999999940383,0.7987000000029809,0.8154000000059582,0.8320999999940355,0.8487999999970199,0.8652999999970206,0.8820999999940398,0.8989999999999938,0.9154999999999944,0.9319000000059603,0.9487999999970143,0.9654000000059568,0.9820999999940341,0.9987999999970185,1.015400000005961,1.0320999999940383]",,0,0,0,0,1,participant,2022-09-22_12h34.49.126,GoFitts,2022.1.4,Win32,59.72288581,,,,
,,,,"[-283.15594803123156,205.72483830236564]","[319.74091017491037,-142.35782507653005]",20,700,2,"[-292,-292,-292,-292,-292,-292,-292,-291,-290,-290,-290,-288,-284,-279,-268,-257,-254,-251,-208,-119,44,237,409,541,596,605,604,603,597,588,569,544,502,462,444,443,441,440,435,423,407,395,383,377,366,359,359,359,358,355,346,334,326,325,325,324,323]","[209,209,209,209,209,208,203,199,196,196,196,197,197,197,197,197,197,197,160,72,-83,-246,-355,-415,-433,-435,-430,-428,-421,-409,-388,-357,-317,-283,-269,-267,-262,-255,-242,-225,-214,-207,-198,-188,-175,-170,-170,-170,-168,-165,-161,-157,-156,-156,-156,-153,-150]","[0,0,0,0,0,0,0,0,0,0,0,0,0,0,0,0,0,0,0,0,0,0,0,0,0,0,0,0,0,0,0,0,0,0,0,0,0,0,0,0,0,0,0,0,0,0,0,0,0,0,0,0,0,0,0,0,0]","[0,0,0,0,0,0,0,0,0,0,0,0,0,0,0,0,0,0,0,0,0,0,0,0,0,0,0,0,0,0,0,0,0,0,0,0,0,0,0,0,0,0,0,0,0,0,0,0,0,0,0,0,0,0,0,0,0]","[0,0,0,0,0,0,0,0,0,0,0,0,0,0,0,0,0,0,0,0,0,0,0,0,0,0,0,0,0,0,0,0,0,0,0,0,0,0,0,0,0,0,0,0,0,0,0,0,0,0,0,0,0,0,0,0,0]","[0.00029999999701857405,0.01619999998808197,0.03279999999701744,0.04959999999404374,0.06629999999702108,0.08339999999105885,0.09989999999105947,0.11659999999403681,0.13329999999702125,0.1495000000000033,0.16619999998808055,0.18299999999999983,0.19959999999404232,0.21629999999701965,0.2330000000000041,0.24959999999403948,0.2665999999940425,0.2831999999880779,0.29959999999404374,0.31619999998807913,0.33289999999106357,0.34949999999999903,0.3661999999880834,0.38309999999403743,0.39959999999403806,0.4162999999970225,0.4328999999910579,0.44950000000000045,0.4663999999910615,0.48309999999403885,0.4995999999940395,0.516199999988082,0.5327999999970174,0.5495000000000019,0.5660999999940373,0.5830999999940403,0.5995999999940409,0.6161999999880834,0.6328999999910607,0.6495999999940381,0.6661999999880805,0.6828999999910579,0.6995000000000005,0.716099999994043,0.7327999999970203,0.7493999999910628,0.7659999999999982,0.7826999999880826,0.7993999999910599,0.8160999999940373,0.8327999999970217,0.849499999999999,0.8661999999880834,0.8827999999970189,0.8992999999970195,0.9161999999880805,0.9326999999880812]",,1,0,1,0,1,participant,2022-09-22_12h34.49.126,GoFitts,2022.1.4,Win32,59.72288581,,,,
,,,,"[319.74091017491037,-142.35782507653005]","[-342.351660256832,72.76909178621575]",20,700,2,"[323,322,322,322,322,322,322,322,322,322,322,322,322,322,322,313,289,224,105,-34,-128,-165,-185,-198,-216,-236,-258,-283,-298,-304,-307,-307,-307,-307,-308,-314,-320,-337,-369,-383,-383,-390,-391,-388,-387,-387,-387,-384,-380,-374,-370,-370,-370,-370,-370,-370,-366,-364,-361,-360,-360,-359,-356,-342]","[-150,-150,-150,-150,-150,-150,-148,-148,-148,-148,-148,-148,-147,-145,-141,-133,-115,-74,2,85,129,140,143,133,117,100,89,82,78,74,66,62,62,62,61,61,61,64,73,75,75,76,76,76,76,76,76,76,76,76,76,76,76,76,76,76,77,77,77,77,77,77,77,77]","[0,0,0,0,0,0,0,0,0,0,0,0,0,0,0,0,0,0,0,0,0,0,0,0,0,0,0,0,0,0,0,0,0,0,0,0,0,0,0,0,0,0,0,0,0,0,0,0,0,0,0,0,0,0,0,0,0,0,0,0,0,0,0,0]","[0,0,0,0,0,0,0,0,0,0,0,0,0,0,0,0,0,0,0,0,0,0,0,0,0,0,0,0,0,0,0,0,0,0,0,0,0,0,0,0,0,0,0,0,0,0,0,0,0,0,0,0,0,0,0,0,0,0,0,0,0,0,0,0]","[0,0,0,0,0,0,0,0,0,0,0,0,0,0,0,0,0,0,0,0,0,0,0,0,0,0,0,0,0,0,0,0,0,0,0,0,0,0,0,0,0,0,0,0,0,0,0,0,0,0,0,0,0,0,0,0,0,0,0,0,0,0,0,0]","[0.0004000000059605213,0.016600000008942573,0.03300000000000125,0.04960000000894382,0.06640000000596302,0.08310000000894036,0.09990000000595955,0.11640000000596018,0.13320000000297938,0.14979999999702187,0.16640000000596444,0.18310000000894178,0.19990000000596098,0.21650000000000347,0.23310000000894604,0.2497999999970233,0.26640000000596586,0.2831000000089432,0.2997000000029857,0.3165000000000049,0.33310000000894036,0.3500000000000014,0.3664000000059602,0.38300000000000267,0.39970000000298,0.41640000000596444,0.4331000000089418,0.44979999999701903,0.4664000000059616,0.48310000000894604,0.4997999999970233,0.5162999999970239,0.5329000000059594,0.5496000000089438,0.5665000000000049,0.5832000000029822,0.5997000000029828,0.6164000000059602,0.6331000000089446,0.6496000000089452,0.6661000000089459,0.6831000000089418,0.6997000000029843,0.7164000000059616,0.7330000000000041,0.7495000000000047,0.7661000000089402,0.7829000000059594,0.7996000000089438,0.8162999999970211,0.8331000000089404,0.8494000000059643,0.8661000000089416,0.8827999999970189,0.8994000000059614,0.9161000000089459,0.9331000000089418,0.9497000000029843,0.9662999999970197,0.9830000000000041,0.9992999999970209,1.016299999997024,1.0327999999970245,1.0495000000000019]",,2,0,2,0,1,participant,2022-09-22_12h34.49.126,GoFitts,2022.1.4,Win32,59.72288581,,,,
,,,,"[-342.351660256832,72.76909178621575]","[350,0]",20,700,2,"[-342,-317,-290,-263,-237,-214,-185,-136,-24,60,138,209,277,314,337,347,356,364,372,377,380,380,380,380,380,378,378,378,378,378,376,375,375,375,371,371,370,370,366,365,364,363,362,362,362,358]","[77,81,83,84,85,85,85,85,85,85,85,85,85,83,82,80,74,64,51,37,20,9,-6,-19,-29,-34,-34,-34,-34,-34,-32,-26,-24,-17,-13,-11,-10,-9,-5,-2,1,1,3,3,3,5]","[0,0,0,0,0,0,0,0,0,0,0,0,0,0,0,0,0,0,0,0,0,0,0,0,0,0,0,0,0,0,0,0,0,0,0,0,0,0,0,0,0,0,0,0,0,0]","[0,0,0,0,0,0,0,0,0,0,0,0,0,0,0,0,0,0,0,0,0,0,0,0,0,0,0,0,0,0,0,0,0,0,0,0,0,0,0,0,0,0,0,0,0,0]","[0,0,0,0,0,0,0,0,0,0,0,0,0,0,0,0,0,0,0,0,0,0,0,0,0,0,0,0,0,0,0,0,0,0,0,0,0,0,0,0,0,0,0,0,0,0]","[0.00030000001192576065,0.01640000000595876,0.0331000000089432,0.04980000001192053,0.06650000000000489,0.08310000000894036,0.09990000000595955,0.11650000000000205,0.13300000000000267,0.14990000000596382,0.16640000000596444,0.18299999999999983,0.1998000000119191,0.21630000001191974,0.2332000000029808,0.24960000000893956,0.266300000011924,0.2831000000089432,0.29980000001192053,0.316400000005963,0.3329999999999984,0.349600000008941,0.3663000000119254,0.3829000000059608,0.39960000000894524,0.41620000000298063,0.4328000000119232,0.44950000000000045,0.466100000008943,0.48280000001192036,0.49960000000893956,0.516300000011924,0.5329000000059594,0.5496000000089438,0.5663000000119212,0.5829000000059636,0.599600000008941,0.6163000000119254,0.6329000000059608,0.6496000000089452,0.6663000000119226,0.6829999999999998,0.6996000000089424,0.716100000008943,0.7327000000029784,0.7495000000000047]",,3,0,3,0,1,participant,2022-09-22_12h34.49.126,GoFitts,2022.1.4,Win32,59.72288581,,,,
,,,,"[350,0]","[-342.351660256832,-72.76909178621567]",20,700,2,"[358,354,350,350,349,349,349,349,349,348,347,342,328,285,199,94,-21,-180,-261,-321,-351,-358,-359,-359,-359,-359,-359,-359,-359,-361,-363,-365,-366,-366,-366,-362,-354,-351,-350,-350,-350,-347,-346]","[5,5,5,5,3,3,3,3,3,1,-1,-4,-9,-15,-22,-34,-44,-53,-53,-53,-53,-53,-53,-53,-53,-53,-53,-53,-53,-53,-53,-53,-54,-56,-58,-61,-63,-63,-63,-63,-63,-63,-65]","[0,0,0,0,0,0,0,0,0,0,0,0,0,0,0,0,0,0,0,0,0,0,0,0,0,0,0,0,0,0,0,0,0,0,0,0,0,0,0,0,0,0,0]","[0,0,0,0,0,0,0,0,0,0,0,0,0,0,0,0,0,0,0,0,0,0,0,0,0,0,0,0,0,0,0,0,0,0,0,0,0,0,0,0,0,0,0]","[0,0,0,0,0,0,0,0,0,0,0,0,0,0,0,0,0,0,0,0,0,0,0,0,0,0,0,0,0,0,0,0,0,0,0,0,0,0,0,0,0,0,0]","[0.00020000000297670795,0.01640000000595876,0.03309999999403601,0.04949999999999477,0.06629999999701397,0.08290000000595654,0.09949999999999903,0.11620000000297637,0.1329000000059537,0.14979999999701477,0.16659999999403396,0.18299999999999983,0.19959999999403522,0.21629999999701965,0.23290000000595512,0.2497999999970162,0.26640000000595876,0.2829000000059594,0.29949999999999477,0.3162000000029792,0.33290000000595654,0.34970000000297574,0.36629999999701823,0.382700000002977,0.3994999999999962,0.4159999999999968,0.43270000000297415,0.44929999999701664,0.4664000000059545,0.4829000000059551,0.49940000000595575,0.516099999994033,0.5329999999999941,0.5497000000029786,0.5662000000029792,0.5829000000059565,0.599499999999999,0.6164000000059602,0.6327999999970189,0.6494000000059543,0.6660999999940387,0.682799999997016,0.6994999999999933]",,4,0,4,0,1,participant,2022-09-22_12h34.49.126,GoFitts,2022.1.4,Win32,59.72288581,,,,
,,,,"[-342.351660256832,-72.76909178621567]","[319.7409101749103,142.35782507653005]",20,700,2,"[-346,-346,-346,-346,-346,-343,-342,-341,-340,-336,-321,-210,-80,36,111,124,124,124,132,174,246,301,302,278,239,207,188,183,183,183,183,183,187,210,237,252,253,257,266,268,268,268,269,273,280,286,288,288,293,301,312]","[-65,-65,-65,-65,-65,-65,-65,-65,-65,-65,-65,-65,-63,-53,-45,-42,-41,-40,-36,-23,2,21,25,36,43,44,44,44,44,44,44,44,49,61,77,91,93,99,110,115,115,115,116,117,122,127,129,129,130,135,142]","[0,0,0,0,0,0,0,0,0,0,0,0,0,0,0,0,0,0,0,0,0,0,0,0,0,0,0,0,0,0,0,0,0,0,0,0,0,0,0,0,0,0,0,0,0,0,0,0,0,0,0]","[0,0,0,0,0,0,0,0,0,0,0,0,0,0,0,0,0,0,0,0,0,0,0,0,0,0,0,0,0,0,0,0,0,0,0,0,0,0,0,0,0,0,0,0,0,0,0,0,0,0,0]","[0,0,0,0,0,0,0,0,0,0,0,0,0,0,0,0,0,0,0,0,0,0,0,0,0,0,0,0,0,0,0,0,0,0,0,0,0,0,0,0,0,0,0,0,0,0,0,0,0,0,0]","[0.00029999999701857405,0.016200000002974946,0.03279999999701744,0.052799999997020564,0.06740000000596069,0.08920000000297534,0.09990000000595955,0.11640000000596018,0.1329000000059608,0.14979999999701477,0.16749999999999687,0.18290000000595796,0.19970000000297716,0.2162000000029778,0.23290000000595512,0.24970000000297432,0.2665000000000006,0.2829000000059594,0.29949999999999477,0.3162000000029792,0.3329999999999984,0.34949999999999903,0.36629999999701823,0.3829000000059608,0.3994999999999962,0.41620000000298063,0.43290000000595796,0.4496000000089353,0.465999999999994,0.4827000000029784,0.49940000000595575,0.5161000000089402,0.5331000000089361,0.5496000000089367,0.5667000000029745,0.5829000000059565,0.5999999999999943,0.6164999999999949,0.633499999999998,0.6499000000059567,0.6664000000059573,0.6832999999970184,0.7004000000059563,0.718299999997015,0.732999999999997,0.7497999999970162,0.7665000000000006,0.7827000000029756,0.7999000000059553,0.8164000000059559,0.8329999999999984]",,5,0,5,0,1,participant,2022-09-22_12h34.49.126,GoFitts,2022.1.4,Win32,59.72288581,,,,
,,,,"[319.7409101749103,142.35782507653005]","[-283.1559480312316,-205.72483830236555]",20,700,2,"[312,315,315,316,316,316,316,316,315,314,314,314,314,314,309,304,295,278,237,151,24,-108,-258,-301,-303,-303,-303,-303,-303,-300,-298,-296,-293,-285,-280,-277,-277,-276,-276,-273,-272,-272,-272,-272,-272,-272,-272,-275,-281]","[142,145,145,147,147,147,147,147,149,149,149,149,149,149,148,143,135,120,87,32,-31,-86,-140,-150,-150,-150,-150,-151,-152,-152,-152,-152,-158,-167,-171,-172,-173,-174,-175,-178,-178,-178,-178,-179,-180,-183,-189,-193,-200]","[0,0,0,0,0,0,0,0,0,0,0,0,0,0,0,0,0,0,0,0,0,0,0,0,0,0,0,0,0,0,0,0,0,0,0,0,0,0,0,0,0,0,0,0,0,0,0,0,0]","[0,0,0,0,0,0,0,0,0,0,0,0,0,0,0,0,0,0,0,0,0,0,0,0,0,0,0,0,0,0,0,0,0,0,0,0,0,0,0,0,0,0,0,0,0,0,0,0,0]","[0,0,0,0,0,0,0,0,0,0,0,0,0,0,0,0,0,0,0,0,0,0,0,0,0,0,0,0,0,0,0,0,0,0,0,0,0,0,0,0,0,0,0,0,0,0,0,0,0]","[0.00029999999701857405,0.016200000002974946,0.03279999999701744,0.04960000000893672,0.06610000000893734,0.08270000000297983,0.09949999999999903,0.1161000000089345,0.13320000000297938,0.14960000000893814,0.16599999999999682,0.18249999999999744,0.19920000000297478,0.21599999999999397,0.23260000000893655,0.2494999999999976,0.26620000000297495,0.2826000000089408,0.29929999999701806,0.31590000000596064,0.3332000000029751,0.34940000000595717,0.36579999999701585,0.38279999999701886,0.39960000000893814,0.41590000000595495,0.4324000000059556,0.44949999999999335,0.465999999999994,0.4829000000059551,0.49940000000595575,0.5157999999970144,0.5327000000029756,0.5492000000029762,0.5659000000059606,0.583299999997017,0.5996000000089339,0.6164999999999949,0.6332000000029794,0.6492000000029776,0.6659999999999968,0.6822999999970136,0.69910000000894,0.7157999999970173,0.7326000000089365,0.7492999999970138,0.7659000000059564,0.7824999999999989,0.7992000000029762]",,6,0,6,0,1,participant,2022-09-22_12h34.49.126,GoFitts,2022.1.4,Win32,59.72288581,,,,
,,,,"[-283.1559480312316,-205.72483830236555]","[234.19571222560037,260.100688917088]",20,700,2,"[-281,-287,-293,-293,-293,-293,-293,-293,-293,-293,-290,-284,-266,-233,-191,-168,-114,-7,60,102,115,124,133,146,160,164,165,168,176,180,181,181,184,188,195,210,220,225,227,231,235,240,240,240,240,240,240,240,240,240,240,240,241]","[-200,-209,-217,-217,-217,-217,-217,-217,-217,-217,-215,-206,-191,-159,-117,-91,-29,49,87,111,121,126,131,137,142,144,145,149,159,169,170,170,171,173,178,190,200,209,215,222,234,251,251,251,251,251,251,251,251,251,251,251,257]","[0,0,0,0,0,0,0,0,0,0,0,0,0,0,0,0,0,0,0,0,0,0,0,0,0,0,0,0,0,0,0,0,0,0,0,0,0,0,0,0,0,0,0,0,0,0,0,0,0,0,0,0,0]","[0,0,0,0,0,0,0,0,0,0,0,0,0,0,0,0,0,0,0,0,0,0,0,0,0,0,0,0,0,0,0,0,0,0,0,0,0,0,0,0,0,0,0,0,0,0,0,0,0,0,0,0,0]","[0,0,0,0,0,0,0,0,0,0,0,0,0,0,0,0,0,0,0,0,0,0,0,0,0,0,0,0,0,0,0,0,0,0,0,0,0,0,0,0,0,0,0,0,0,0,0,0,0,0,0,0,0]","[0.0004000000059605213,0.016500000000000625,0.03309999999403601,0.049599999994036637,0.06740000000596069,0.08299999999999841,0.09970000000297574,0.11640000000596018,0.13259999999403504,0.14929999999701948,0.16609999999403868,0.1825999999940393,0.19970000000297716,0.21629999999701965,0.232999999999997,0.24959999999403948,0.26620000000298205,0.2829000000059594,0.2999000000059553,0.31659999999403965,0.33290000000595654,0.34940000000595717,0.3660999999940344,0.38279999999701886,0.3994999999999962,0.4160999999940387,0.43290000000595796,0.44929999999701664,0.4662000000029778,0.4825000000000017,0.4992999999970209,0.5157999999970215,0.5330000000000013,0.5495000000000019,0.5659999999999954,0.5827000000029798,0.599499999999999,0.6162999999970182,0.633499999999998,0.6502999999970172,0.6667999999970178,0.6834999999999951,0.6995000000000005,0.7162000000029778,0.7325000000000017,0.7492999999970209,0.7659000000059564,0.7824999999999989,0.7992000000029762,0.8160999999940373,0.8327999999970146,0.849499999999999,0.8667000000029788]",,7,0,7,0,1,participant,2022-09-22_12h34.49.126,GoFitts,2022.1.4,Win32,59.72288581,,,,
,,,,"[234.19571222560037,260.100688917088]","[-175.00000000000014,-303.1088913245535]",20,700,2,"[241,240,237,237,237,237,237,237,237,237,237,237,237,237,234,227,206,166,116,67,26,-13,-54,-93,-115,-128,-134,-136,-141,-143,-146,-148,-154,-160,-164,-168,-172,-174,-174,-174,-174,-174,-174,-174,-174,-174,-174,-174,-174,-174,-174,-174]","[257,257,257,257,257,257,257,257,257,257,257,257,257,257,257,251,228,171,93,15,-38,-81,-130,-180,-215,-234,-239,-245,-254,-258,-262,-266,-268,-272,-278,-284,-290,-292,-292,-292,-292,-292,-292,-292,-292,-292,-292,-292,-292,-292,-292,-294]","[0,0,0,0,0,0,0,0,0,0,0,0,0,0,0,0,0,0,0,0,0,0,0,0,0,0,0,0,0,0,0,0,0,0,0,0,0,0,0,0,0,0,0,0,0,0,0,0,0,0,0,0]","[0,0,0,0,0,0,0,0,0,0,0,0,0,0,0,0,0,0,0,0,0,0,0,0,0,0,0,0,0,0,0,0,0,0,0,0,0,0,0,0,0,0,0,0,0,0,0,0,0,0,0,0]","[0,0,0,0,0,0,0,0,0,0,0,0,0,0,0,0,0,0,0,0,0,0,0,0,0,0,0,0,0,0,0,0,0,0,0,0,0,0,0,0,0,0,0,0,0,0,0,0,0,0,0,0]","[0.0008999999910628276,0.015899999991063396,0.03209999999403834,0.04829999999702039,0.06489999999106288,0.08159999999404022,0.09859999999404323,0.11529999999702056,0.13229999999702358,0.1490000000000009,0.16550000000000153,0.18209999999404403,0.1986999999880794,0.21569999998808242,0.23279999999702028,0.24989999999105805,0.2662999999970239,0.28179999999701977,0.29839999999106226,0.31519999998808146,0.33179999999702403,0.3483999999910594,0.36509999999404386,0.38189999999106305,0.3985999999940404,0.41569999998807816,0.432099999994044,0.4495999999940423,0.4654999999999987,0.48169999998808066,0.49829999999702324,0.5150000000000006,0.5316999999880778,0.5482999999970204,0.5650999999940396,0.5818999999910588,0.5985000000000014,0.615699999988081,0.6320999999940398,0.6486999999880823,0.6652999999970177,0.6816999999880835,0.6980999999940423,0.7148999999910615,0.731500000000004,0.7479999999999976,0.7650999999940424,0.7817999999970198,0.798599999994039,0.8148999999910629,0.8312999999970216,0.8485999999940432]",,8,0,8,0,1,participant,2022-09-22_12h34.49.126,GoFitts,2022.1.4,Win32,59.72288581,,,,
,,,,"[-175.00000000000014,-303.1088913245535]","[108.1559480312316,332.8697807033037]",20,700,2,"[-174,-174,-165,-155,-136,-112,-86,-67,-61,-60,-60,-60,-60,-60,-60,-72,-93,-99,-99,-92,-74,-55,-47,-47,-50,-53,-54,-55,-55,-55,-55,-55,-55,-55,-55,-54,-52,-49,-48,-45,-38,-4,25,37,38,38,38,38,37,35,35,35,35,35,35,35,35,37,43,62,78,85,96,110,133,133,133,133,133,133,132,129,127,126,125,118,115,95,90,90,90,86,86,86,88,91,102]","[-294,-295,-300,-306,-313,-326,-341,-354,-359,-360,-360,-360,-360,-360,-355,-350,-346,-346,-346,-346,-346,-344,-340,-339,-338,-338,-338,-338,-338,-338,-338,-338,-338,-338,-338,-338,-339,-339,-340,-340,-339,-283,-205,-108,-5,87,161,202,221,221,221,221,221,221,221,221,221,224,229,246,266,275,298,322,359,361,361,361,361,358,358,357,355,355,355,352,348,328,323,323,323,320,320,320,321,323,329]","[0,0,0,0,0,0,0,0,0,0,0,0,0,0,0,0,0,0,0,0,0,0,0,0,0,0,0,0,0,0,0,0,0,0,0,0,0,0,0,0,0,0,0,0,0,0,0,0,0,0,0,0,0,0,0,0,0,0,0,0,0,0,0,0,0,0,0,0,0,0,0,0,0,0,0,0,0,0,0,0,0,0,0,0,0,0,0]","[0,0,0,0,0,0,0,0,0,0,0,0,0,0,0,0,0,0,0,0,0,0,0,0,0,0,0,0,0,0,0,0,0,0,0,0,0,0,0,0,0,0,0,0,0,0,0,0,0,0,0,0,0,0,0,0,0,0,0,0,0,0,0,0,0,0,0,0,0,0,0,0,0,0,0,0,0,0,0,0,0,0,0,0,0,0,0]","[0,0,0,0,0,0,0,0,0,0,0,0,0,0,0,0,0,0,0,0,0,0,0,0,0,0,0,0,0,0,0,0,0,0,0,0,0,0,0,0,0,0,0,0,0,0,0,0,0,0,0,0,0,0,0,0,0,0,0,0,0,0,0,0,0,0,0,0,0,0,0,0,0,0,0,0,0,0,0,0,0,0,0,0,0,0,0]","[0.0004000000059605213,0.015900000005956372,0.032900000005959384,0.04960000000893672,0.06640000000595592,0.08260000000893797,0.09920000000298046,0.11579999999701585,0.13260000000894223,0.14920000000297762,0.16570000000297824,0.1826000000089394,0.19950000000000045,0.21610000000893592,0.23260000000893655,0.24960000000893956,0.2661000000089402,0.28270000000297557,0.2989999999999995,0.3162999999970211,0.333299999997017,0.3507000000029805,0.36720000000298114,0.3837999999970165,0.3994999999999962,0.41610000000893876,0.4326000000089394,0.4492000000029819,0.4659000000059592,0.4827000000029784,0.4992999999970209,0.5161000000089402,0.5327999999970174,0.5497999999970204,0.5662999999970211,0.5834000000059589,0.601100000008941,0.6164000000059602,0.6332000000029794,0.64970000000298,0.6661000000089388,0.6824999999999974,0.6992000000029819,0.7162000000029778,0.732999999999997,0.7496000000089396,0.7667000000029773,0.7837000000029803,0.8004000000059577,0.8166000000089397,0.8332000000029822,0.8489000000059619,0.8657000000029811,0.8822000000029817,0.8991000000089358,0.9157000000029782,0.9326000000089394,0.949799999997019,0.9666000000089383,0.9834999999999994,0.9999000000059581,1.0161000000089402,1.0332999999970198,1.0499000000059624,1.0664999999999978,1.082600000008938,1.0989999999999966,1.1154999999999973,1.1321000000089398,1.148900000005959,1.1669000000059597,1.1826000000089394,1.19910000000894,1.216100000008936,1.2327000000029784,1.2496000000089396,1.2672000000029797,1.282400000005957,1.2992000000029762,1.3157999999970187,1.3324000000059613,1.349600000008941,1.3662000000029764,1.3826000000089422,1.39970000000298,1.4172000000029783,1.433600000008937]",,9,0,9,0,1,participant,2022-09-22_12h34.49.126,GoFitts,2022.1.4,Win32,59.72288581,,,,
,,,,"[108.1559480312316,332.8697807033037]","[-36.58496214367898,-348.08266337889563]",20,700,2,"[102,113,113,113,113,113,110,110,108,108,108,108,109,109,109,109,105,99,89,69,36,9,-2,-6,-6,-6,-6,-6,-6,-6,-6,-6,-6,-6,-6,-6,-6,-6,-12,-16,-16,-16,-16,-16,-16,-16,-17,-19,-21,-21,-22,-24,-26,-28]","[329,336,336,336,336,335,329,321,314,314,315,316,317,317,313,304,288,264,211,97,-58,-189,-273,-316,-337,-352,-353,-353,-353,-353,-353,-353,-353,-353,-353,-353,-353,-353,-349,-346,-346,-346,-346,-346,-346,-346,-346,-346,-347,-347,-347,-347,-347,-347]","[0,0,0,0,0,0,0,0,0,0,0,0,0,0,0,0,0,0,0,0,0,0,0,0,0,0,0,0,0,0,0,0,0,0,0,0,0,0,0,0,0,0,0,0,0,0,0,0,0,0,0,0,0,0]","[0,0,0,0,0,0,0,0,0,0,0,0,0,0,0,0,0,0,0,0,0,0,0,0,0,0,0,0,0,0,0,0,0,0,0,0,0,0,0,0,0,0,0,0,0,0,0,0,0,0,0,0,0,0]","[0,0,0,0,0,0,0,0,0,0,0,0,0,0,0,0,0,0,0,0,0,0,0,0,0,0,0,0,0,0,0,0,0,0,0,0,0,0,0,0,0,0,0,0,0,0,0,0,0,0,0,0,0,0]","[0.0009999999999976694,0.015099999994042435,0.03120000000298262,0.047700000002983245,0.06420000000298387,0.08170000000298216,0.09789999999105703,0.11489999999106004,0.13189999999106305,0.14829999999702181,0.16529999999701772,0.18289999999105788,0.19920000000298188,0.2168999999910568,0.23170000000298074,0.24799999999999756,0.2644999999999982,0.2815000000000012,0.29789999999105987,0.3148999999910629,0.33179999999702403,0.34829999999701755,0.3652000000029787,0.3817000000029793,0.3992999999970195,0.4172000000029783,0.4325999999940393,0.44829999999701897,0.4647999999970196,0.48100000000000165,0.49759999999403703,0.5142999999970215,0.5309999999999988,0.547799999997018,0.5643999999910605,0.5812999999970216,0.5980999999940408,0.6147000000029834,0.6319999999999979,0.6480000000000032,0.6645000000000039,0.6808999999910625,0.697499999999998,0.7142999999970172,0.7310000000000016,0.747599999994037,0.7652000000029844,0.7823999999910569,0.7992000000029833,0.8157000000029839,0.8320999999940426,0.8498999999910595,0.8645999999940415,0.8810000000000002]",,10,0,10,0,1,participant,2022-09-22_12h34.49.126,GoFitts,2022.1.4,Win32,59.72288581,,,,
,,,,"[-36.58496214367898,-348.08266337889563]","[-36.584962143678666,348.0826633788957]",20,700,2,"[-28,-29,-29,-29,-29,-29,-29,-29,-29,-29,-29,-29,-30,-30,-30,-30,-36,-63,-92,-108,-117,-122,-123,-123,-123,-123,-123,-123,-122,-119,-117,-115,-111,-105,-92,-71,-59,-59,-59,-59,-59,-59,-58,-54,-45,-44,-43,-41,-38]","[-347,-347,-345,-343,-342,-342,-342,-339,-334,-324,-312,-309,-305,-294,-263,-177,-65,58,159,213,242,261,270,270,270,270,270,274,280,286,294,296,299,300,300,305,310,310,310,310,310,310,311,314,325,329,332,335,339]","[0,0,0,0,0,0,0,0,0,0,0,0,0,0,0,0,0,0,0,0,0,0,0,0,0,0,0,0,0,0,0,0,0,0,0,0,0,0,0,0,0,0,0,0,0,0,0,0,0]","[0,0,0,0,0,0,0,0,0,0,0,0,0,0,0,0,0,0,0,0,0,0,0,0,0,0,0,0,0,0,0,0,0,0,0,0,0,0,0,0,0,0,0,0,0,0,0,0,0]","[0,0,0,0,0,0,0,0,0,0,0,0,0,0,0,0,0,0,0,0,0,0,0,0,0,0,0,0,0,0,0,0,0,0,0,0,0,0,0,0,0,0,0,0,0,0,0,0,0]","[0.0004000000059605213,0.016900000005961147,0.033200000002985064,0.049700000002978584,0.06640000000596302,0.08320000000298222,0.09979999999702471,0.11690000000596257,0.13420000000298415,0.15120000000298006,0.16890000000596217,0.18350000000000222,0.19970000000298427,0.21650000000000347,0.23329999999702267,0.2502000000029838,0.26670000000298444,0.28559999999404084,0.3015000000000043,0.3174000000059607,0.33340000000595893,0.35020000000298523,0.3674999999999997,0.38400000000000034,0.39979999999702187,0.4162999999970225,0.43270000000298126,0.4495999999940423,0.46650000000000347,0.4827999999970203,0.49990000000596524,0.5165000000000006,0.5335000000000036,0.550200000002981,0.5667999999970235,0.5842999999970218,0.6015999999940433,0.6172000000029811,0.6327000000029841,0.6494000000059614,0.6660999999940387,0.6827000000029813,0.6995999999940423,0.7165000000000035,0.7342000000029856,0.7512000000029815,0.767799999997024,0.7839000000059642,0.8010000000000019]",,11,0,11,0,1,participant,2022-09-22_12h34.49.126,GoFitts,2022.1.4,Win32,59.72288581,,,,
,,,,"[-36.584962143678666,348.0826633788957]","[108.15594803123153,-332.8697807033038]",20,700,2,"[-38,-34,-31,-29,-25,-24,-23,-22,-22,-22,-22,-22,-24,-26,-29,-29,-29,-23,-10,8,23,46,70,81,82,82,82,82,82,82,82,82,88,95,97,97,98,99,101,103,105,106,107,107,113,116,118,121,121,121,122,124,124,124,124,124,124,124,124,124,123,117,106]","[339,344,347,349,350,351,352,352,352,352,352,352,349,346,339,323,282,218,128,25,-87,-212,-370,-434,-448,-448,-449,-449,-449,-447,-444,-435,-423,-411,-407,-407,-406,-404,-394,-381,-371,-369,-369,-368,-357,-349,-343,-335,-334,-331,-326,-322,-322,-322,-322,-322,-322,-322,-322,-322,-322,-328,-336]","[0,0,0,0,0,0,0,0,0,0,0,0,0,0,0,0,0,0,0,0,0,0,0,0,0,0,0,0,0,0,0,0,0,0,0,0,0,0,0,0,0,0,0,0,0,0,0,0,0,0,0,0,0,0,0,0,0,0,0,0,0,0,0]","[0,0,0,0,0,0,0,0,0,0,0,0,0,0,0,0,0,0,0,0,0,0,0,0,0,0,0,0,0,0,0,0,0,0,0,0,0,0,0,0,0,0,0,0,0,0,0,0,0,0,0,0,0,0,0,0,0,0,0,0,0,0,0]","[0,0,0,0,0,0,0,0,0,0,0,0,0,0,0,0,0,0,0,0,0,0,0,0,0,0,0,0,0,0,0,0,0,0,0,0,0,0,0,0,0,0,0,0,0,0,0,0,0,0,0,0,0,0,0,0,0,0,0,0,0,0,0]","[0.0009999999999976694,0.01820000000297739,0.031100000008940754,0.048100000008943766,0.0648000000119211,0.08130000001192172,0.09820000000298279,0.11470000000298342,0.13190000000596314,0.14800000000000324,0.16430000001192013,0.18090000000596262,0.1982000000029771,0.21490000000596154,0.2311000000089436,0.24770000000297898,0.2649000000059587,0.28370000000298035,0.29880000001192286,0.3144000000059535,0.33080000001192644,0.3479000000059571,0.3639999999999972,0.38050000000000495,0.3976000000089428,0.4137000000029829,0.43060000000894405,0.44710000000893757,0.463800000011922,0.4809000000059669,0.49890000000595336,0.5142000000029796,0.5308000000119151,0.5483000000119276,0.5647000000029792,0.580999999999996,0.597200000002978,0.6144999999999996,0.6318000000119142,0.6476000000089428,0.6646000000089387,0.6811000000089464,0.6973000000119143,0.7146000000089359,0.7313000000119203,0.7479999999999976,0.7641000000089448,0.7815000000000012,0.7987000000029738,0.8161000000089373,0.8325000000000031,0.8480000000000061,0.8642000000029739,0.880500000000005,0.8969000000059637,0.9141000000089363,0.9308000000119208,0.947499999999998,0.9640000000000057,0.9808000000119179,0.9978000000119138,1.0149000000059587,1.0304999999999964]",,12,0,12,0,1,participant,2022-09-22_12h34.49.126,GoFitts,2022.1.4,Win32,59.72288581,,,,
,,,,"[108.15594803123153,-332.8697807033038]","[-174.99999999999991,303.10889132455355]",20,700,2,"[106,105,105,105,105,105,105,105,105,105,105,100,93,78,62,58,58,57,49,23,-61,-125,-172,-197,-204,-207,-207,-207,-207,-207,-207,-207,-205,-200,-192,-187,-187,-186,-179,-169,-161,-158,-158,-158,-158,-158,-158,-158,-158,-158,-158,-158,-158,-158,-159,-160,-162,-163,-163,-163,-163,-163,-163,-163,-163,-163,-163,-163,-163,-163,-163,-163,-163,-163,-163,-163,-165,-166]","[-336,-337,-337,-337,-337,-337,-337,-337,-337,-337,-335,-327,-316,-290,-257,-243,-243,-241,-229,-198,-78,30,132,189,205,210,216,222,227,228,228,229,231,238,254,267,268,270,274,280,288,291,291,291,291,291,291,291,291,291,291,291,291,292,294,296,296,297,297,297,298,298,298,298,298,300,304,306,306,306,306,306,306,306,306,306,306,306]","[0,0,0,0,0,0,0,0,0,0,0,0,0,0,0,0,0,0,0,0,0,0,0,0,0,0,0,0,0,0,0,0,0,0,0,0,0,0,0,0,0,0,0,0,0,0,0,0,0,0,0,0,0,0,0,0,0,0,0,0,0,0,0,0,0,0,0,0,0,0,0,0,0,0,0,0,0,0]","[0,0,0,0,0,0,0,0,0,0,0,0,0,0,0,0,0,0,0,0,0,0,0,0,0,0,0,0,0,0,0,0,0,0,0,0,0,0,0,0,0,0,0,0,0,0,0,0,0,0,0,0,0,0,0,0,0,0,0,0,0,0,0,0,0,0,0,0,0,0,0,0,0,0,0,0,0,0]","[0,0,0,0,0,0,0,0,0,0,0,0,0,0,0,0,0,0,0,0,0,0,0,0,0,0,0,0,0,0,0,0,0,0,0,0,0,0,0,0,0,0,0,0,0,0,0,0,0,0,0,0,0,0,0,0,0,0,0,0,0,0,0,0,0,0,0,0,0,0,0,0,0,0,0,0,0,0]","[0.0007000000029790954,0.01650000000000773,0.03280000001191752,0.0492000000029833,0.06610000000894445,0.08270000000298694,0.09960000000894809,0.11640000000596729,0.13330000001192843,0.15000000000000568,0.1672000000029783,0.1847000000029766,0.1996000000089424,0.2173000000119174,0.23580000001192047,0.25010000000894195,0.26600000000000534,0.2833000000119199,0.2996000000089367,0.31680000001192354,0.33360000000894274,0.35040000000596194,0.36700000000000443,0.38349999999999795,0.39970000000298,0.4170000000000016,0.43360000000893706,0.44950000000000045,0.4662000000029849,0.4836000000089484,0.5,0.5168000000119264,0.533900000005957,0.5504000000059648,0.5674999999999955,0.585000000000008,0.6004000000059619,0.6173000000119231,0.633499999999998,0.6499000000059567,0.6670000000000016,0.683800000011928,0.7005000000000052,0.7166000000089383,0.7330000000000041,0.7498000000119163,0.766300000011924,0.7824999999999989,0.7992000000029833,0.8156000000089421,0.832600000008938,0.8492000000029805,0.8658000000119159,0.8826000000089351,0.8999000000059567,0.9169000000059668,0.9350000000000023,0.9516000000089377,0.9664000000059616,0.9833000000119227,1.000800000011921,1.017700000002975,1.0323000000119151,1.0498000000119276,1.0663000000119212,1.082499999999996,1.0995000000000061,1.1164000000059673,1.1337000000029747,1.1496000000089452,1.1664000000059644,1.1831000000089489,1.1996000000089424,1.2163000000119268,1.2325000000000017,1.2488000000119257,1.2658000000119216,1.2826000000089408]",,13,0,13,0,1,participant,2022-09-22_12h34.49.126,GoFitts,2022.1.4,Win32,59.72288581,,,,
,,,,"[-174.99999999999991,303.10889132455355]","[234.19571222560046,-260.1006889170879]",20,700,2,"[-166,-166,-166,-166,-166,-166,-166,-166,-166,-166,-166,-166,-166,-166,-166,-160,-145,-119,-77,-15,56,119,163,179,193,206,209,209,209,209,209,209,209,211,213,215,217,219,220,220,220,220,222,224,225,225,226,226,226,226,226,227]","[306,306,306,306,306,306,306,306,306,306,306,306,306,306,302,292,269,230,175,118,49,-23,-72,-94,-120,-150,-159,-159,-159,-159,-159,-159,-159,-165,-175,-186,-206,-234,-256,-256,-256,-256,-259,-263,-266,-267,-267,-267,-267,-267,-267,-267]","[0,0,0,0,0,0,0,0,0,0,0,0,0,0,0,0,0,0,0,0,0,0,0,0,0,0,0,0,0,0,0,0,0,0,0,0,0,0,0,0,0,0,0,0,0,0,0,0,0,0,0,0]","[0,0,0,0,0,0,0,0,0,0,0,0,0,0,0,0,0,0,0,0,0,0,0,0,0,0,0,0,0,0,0,0,0,0,0,0,0,0,0,0,0,0,0,0,0,0,0,0,0,0,0,0]","[0,0,0,0,0,0,0,0,0,0,0,0,0,0,0,0,0,0,0,0,0,0,0,0,0,0,0,0,0,0,0,0,0,0,0,0,0,0,0,0,0,0,0,0,0,0,0,0,0,0,0,0]","[0.0004000000059534159,0.016900000005961147,0.03620000000297807,0.0508000000119182,0.06650000000000489,0.08330000001191706,0.09950000000000614,0.11620000000297637,0.13249999999999318,0.14930000001191956,0.16590000000596206,0.1828000000119232,0.1998000000119191,0.21699999999999875,0.2330000000000041,0.2514000000059582,0.2669999999999959,0.28350000000000364,0.29940000000596,0.3162000000029792,0.3329999999999984,0.35010000000893626,0.3658000000119159,0.3839000000059656,0.40030000001192434,0.4164999999999992,0.43410000000893945,0.45000000000000284,0.4661000000089359,0.4829000000059551,0.5,0.5164000000059588,0.5335000000000036,0.5504000000059648,0.5673000000119259,0.583400000005966,0.6004999999999967,0.6172000000029811,0.6329000000059608,0.6493000000119196,0.6661000000089388,0.682900000005958,0.7001000000089448,0.7187000000029826,0.7362000000029809,0.7513000000119234,0.7673000000119146,0.7824999999999989,0.79940000000596,0.8159000000059535,0.832600000008938,0.8497000000029828]",,14,0,14,0,1,participant,2022-09-22_12h34.49.126,GoFitts,2022.1.4,Win32,59.72288581,,,,
,,,,,,,,2,,,,,,,,,,,,,participant,2022-09-22_12h34.49.126,GoFitts,2022.1.4,Win32,59.72288581,2,0,0,1
,,return,0.645,"[-65,70]","[-40.450849718747364,29.38926261462366]",80,100,3,"[-65,-65,-65,-65,-65,-65,-65,-65,-65,-65,-65,-65,-65,-65,-65,-65,-65,-59,-53]","[70,70,70,70,70,70,70,70,70,70,70,70,70,70,70,70,70,70,67]","[0,0,0,0,0,0,0,0,0,0,0,0,0,0,0,0,0,0,0]","[0,0,0,0,0,0,0,0,0,0,0,0,0,0,0,0,0,0,0]","[0,0,0,0,0,0,0,0,0,0,0,0,0,0,0,0,0,0,0]","[0.002399999991055779,0.015200000002977276,0.032099999994031236,0.048899999991050436,0.06539999999105817,0.08229999999701931,0.09879999999701283,0.11559999999403203,0.13209999999403976,0.14879999999701,0.16620000000297352,0.18270000000298126,0.1993999999910585,0.21589999999105203,0.2322999999970108,0.24879999999701852,0.26570000000297966,0.2825999999940336,0.2993999999910528]",,0,0,0,0,1,participant,2022-09-22_12h34.49.126,GoFitts,2022.1.4,Win32,59.72288581,,,,
,,,,"[-40.450849718747364,29.38926261462366]","[45.67727288213005,-20.336832153790006]",80,100,3,"[-53,-51,-50,-49,-49,-49,-49,-49,-49,-49,-49,-49,-49,-49,-49,-49,-49,-47,-41,-33,-31,-28,-25,-16,5,34,55]","[67,63,59,59,59,59,59,59,59,59,59,59,59,59,59,59,59,58,59,61,63,63,63,63,52,31,13]","[0,0,0,0,0,0,0,0,0,0,0,0,0,0,0,0,0,0,0,0,0,0,0,0,0,0,0]","[0,0,0,0,0,0,0,0,0,0,0,0,0,0,0,0,0,0,0,0,0,0,0,0,0,0,0]","[0,0,0,0,0,0,0,0,0,0,0,0,0,0,0,0,0,0,0,0,0,0,0,0,0,0,0]","[0.0007999999970280669,0.015500000000002956,0.03249999999999886,0.04910000000894854,0.06540000000596535,0.08229999999701931,0.09929999999702943,0.11579999999702295,0.1322000000029817,0.14840000000596376,0.1651000000089482,0.1819000000059674,0.19849999999999568,0.21540000000595683,0.232299999997025,0.2492999999970209,0.26590000000595637,0.28350000000000364,0.2990000000000066,0.31540000000596535,0.3319000000059589,0.34879999999702704,0.36549999999999727,0.38210000000894695,0.3987999999970242,0.4157999999970201,0.43220000000297887]",,1,0,1,0,1,participant,2022-09-22_12h34.49.126,GoFitts,2022.1.4,Win32,59.72288581,,,,
,,,,"[45.67727288213005,-20.336832153790006]","[-48.907380036690284,10.395584540887965]",80,100,3,"[55,64,68,72,73,73,73,73,73,73,73,73,73,68,45,-11,-31]","[13,0,-24,-39,-43,-43,-43,-43,-43,-43,-43,-43,-45,-45,-35,-15,-6]","[0,0,0,0,0,0,0,0,0,0,0,0,0,0,0,0,0]","[0,0,0,0,0,0,0,0,0,0,0,0,0,0,0,0,0]","[0,0,0,0,0,0,0,0,0,0,0,0,0,0,0,0,0]","[0.00039999999106044015,0.015999999999991132,0.0328999999910593,0.05029999999702284,0.06629999999701397,0.08269999998807975,0.09900000000000375,0.11589999999105771,0.13229999999701647,0.14919999998807043,0.16589999999105487,0.18269999998807407,0.1998999999910609,0.21639999999105441,0.23359999999404124,0.2505000000000024,0.26689999999105396]",,2,0,2,0,1,participant,2022-09-22_12h34.49.126,GoFitts,2022.1.4,Win32,59.72288581,,,,
,,,,"[-48.907380036690284,10.395584540887965]","[50,0]",80,100,3,"[-31,-38,-42,-45,-45,-45,-45,-47,-52,-55,-56,-56,-56,-56,-56,-56,-53,-39,-11,18]","[-6,5,19,29,29,29,29,31,28,10,-19,-34,-38,-38,-38,-38,-38,-35,-16,15]","[0,0,0,0,0,0,0,0,0,0,0,0,0,0,0,0,0,0,0,0]","[0,0,0,0,0,0,0,0,0,0,0,0,0,0,0,0,0,0,0,0]","[0,0,0,0,0,0,0,0,0,0,0,0,0,0,0,0,0,0,0,0]","[0.0012000000029814828,0.015299999997026248,0.03200000000001069,0.04809999999405079,0.06459999999404431,0.08139999999106351,0.09800000000001319,0.11550000000001148,0.1317999999970283,0.1490000000000009,0.1683999999910668,0.18200000000000216,0.19839999999106794,0.21489999999106146,0.2317999999970226,0.24820000000298137,0.26479999999702386,0.2820000000000107,0.2980999999940508,0.3152999999970234]",,3,0,3,0,1,participant,2022-09-22_12h34.49.126,GoFitts,2022.1.4,Win32,59.72288581,,,,
,,,,"[50,0]","[-48.907380036690284,-10.395584540887953]",80,100,3,"[18,39,43,43,45,48,48,48,48,46,40,26,2,-27]","[15,37,44,44,45,45,45,45,45,44,42,37,29,17]","[0,0,0,0,0,0,0,0,0,0,0,0,0,0]","[0,0,0,0,0,0,0,0,0,0,0,0,0,0]","[0,0,0,0,0,0,0,0,0,0,0,0,0,0]","[0.0005000000000023874,0.016099999994040104,0.03329999999701272,0.048799999997015675,0.06629999999701397,0.08239999999105407,0.09899999999998954,0.115699999988081,0.13249999999999318,0.14969999998807282,0.16569999998807816,0.18269999998807407,0.1993999999910585,0.21599999999999397]",,4,0,4,0,1,participant,2022-09-22_12h34.49.126,GoFitts,2022.1.4,Win32,59.72288581,,,,
,,,,"[-48.907380036690284,-10.395584540887953]","[45.67727288213004,20.336832153790006]",80,100,3,"[-27,-49,-60,-60,-60,-58,-37,-3,36]","[17,7,-1,-1,-1,-1,-1,-1,-1]","[0,0,0,0,0,0,0,0,0]","[0,0,0,0,0,0,0,0,0]","[0,0,0,0,0,0,0,0,0]","[0.0002999999970114686,0.015999999999991132,0.032599999994033624,0.05120000000297864,0.06859999999403499,0.08479999999701704,0.10089999999105714,0.11739999999105066,0.13470000000297944]",,5,0,5,0,1,participant,2022-09-22_12h34.49.126,GoFitts,2022.1.4,Win32,59.72288581,,,,
,,,,"[45.67727288213004,20.336832153790006]","[-40.45084971874737,-29.38926261462365]",80,100,3,"[36,48,54,47,34,18,4,-8]","[-1,-1,-1,-2,-9,-22,-36,-49]","[0,0,0,0,0,0,0,0]","[0,0,0,0,0,0,0,0]","[0,0,0,0,0,0,0,0]","[0.0002000000029909188,0.015899999991063396,0.03270000000298978,0.049099999994041355,0.06609999999405147,0.08309999999404738,0.10009999999404329,0.11750000000000682]",,6,0,6,0,1,participant,2022-09-22_12h34.49.126,GoFitts,2022.1.4,Win32,59.72288581,,,,
,,,,"[-40.45084971874737,-29.38926261462365]","[33.456530317942914,37.157241273869715]",80,100,3,"[-8,-17,-24,-24,-24,-24,-12,44,69,69]","[-49,-57,-60,-60,-60,-60,-51,-6,18,20]","[0,0,0,0,0,0,0,0,0,0]","[0,0,0,0,0,0,0,0,0,0]","[0,0,0,0,0,0,0,0,0,0]","[0.0007999999970280669,0.015799999997028635,0.03270000000298978,0.04790000000596706,0.0657999999970258,0.08220000000298455,0.0984000000059666,0.11509999999404386,0.1312999999970259,0.14829999999702181]",,7,0,7,0,1,participant,2022-09-22_12h34.49.126,GoFitts,2022.1.4,Win32,59.72288581,,,,
,,,,"[33.456530317942914,37.157241273869715]","[-25.00000000000002,-43.301270189221924]",80,100,3,"[69,69,69,66,56,36,10]","[20,20,21,18,7,-12,-32]","[0,0,0,0,0,0,0]","[0,0,0,0,0,0,0]","[0,0,0,0,0,0,0]","[0.0004999999999881766,0.01659999999402828,0.034299999997017494,0.05109999999403669,0.06779999999702113,0.08339999999105885,0.09929999999701522]",,8,0,8,0,1,participant,2022-09-22_12h34.49.126,GoFitts,2022.1.4,Win32,59.72288581,,,,
,,,,"[-25.00000000000002,-43.301270189221924]","[15.450849718747373,47.552825814757675]",80,100,3,"[10,-6,-6,-5,5,18,28,31,31,30]","[-32,-45,-45,-46,-41,-28,-10,7,7,11]","[0,0,0,0,0,0,0,0,0,0]","[0,0,0,0,0,0,0,0,0,0]","[0,0,0,0,0,0,0,0,0,0]","[0.0006999999880861196,0.01689999999106817,0.032299999997022155,0.05009999999404613,0.06619999998808623,0.0827999999970217,0.10019999998809226,0.11719999998808817,0.13369999998808169,0.1513999999910709]",,9,0,9,0,1,participant,2022-09-22_12h34.49.126,GoFitts,2022.1.4,Win32,59.72288581,,,,
,,,,"[15.450849718747373,47.552825814757675]","[-5.226423163382711,-49.72609476841367]",80,100,3,"[30,21,4,-14]","[11,10,-6,-23]","[0,0,0,0]","[0,0,0,0]","[0,0,0,0]","[0.0005999999940371481,0.015200000002977276,0.03240000000594989,0.04800000000000182]",,10,0,10,0,1,participant,2022-09-22_12h34.49.126,GoFitts,2022.1.4,Win32,59.72288581,,,,
,,,,"[-5.226423163382711,-49.72609476841367]","[-5.226423163382667,49.72609476841367]",80,100,3,"[-14,-14,-16,-16,-13,-6]","[-23,-23,-23,-13,7,28]","[0,0,0,0,0,0]","[0,0,0,0,0,0]","[0,0,0,0,0,0]","[0.0004999999999881766,0.013899999991053846,0.030499999999989313,0.04769999998806895,0.06399999999999295,0.0806999999880702]",,11,0,11,0,1,participant,2022-09-22_12h34.49.126,GoFitts,2022.1.4,Win32,59.72288581,,,,
,,,,"[-5.226423163382667,49.72609476841367]","[15.450849718747362,-47.55282581475768]",80,100,3,"[-6,-6,-6,-5,-5,-5,-6,-6,-6,-7,-9,-13,-13,-13,-15,-15,-6,13]","[28,33,33,33,32,17,10,10,9,10,24,51,51,51,49,37,13,-12]","[0,0,0,0,0,0,0,0,0,0,0,0,0,0,0,0,0,0]","[0,0,0,0,0,0,0,0,0,0,0,0,0,0,0,0,0,0]","[0,0,0,0,0,0,0,0,0,0,0,0,0,0,0,0,0,0]","[0.0004000000059534159,0.01640000000595876,0.03320000000297796,0.050799999997011014,0.06790000000596308,0.08499999999999375,0.10040000000596194,0.11670000000297875,0.13359999999403271,0.15009999999404045,0.16620000000297352,0.1832999999970184,0.19959999999403522,0.21620000000297068,0.23329999999701556,0.2512000000029815,0.2684000000059541,0.2842999999970175]",,12,0,12,0,1,participant,2022-09-22_12h34.49.126,GoFitts,2022.1.4,Win32,59.72288581,,,,
,,,,"[15.450849718747362,-47.55282581475768]","[-24.99999999999999,43.30127018922194]",80,100,3,"[13,27,27,26,11,-5,-22]","[-12,-28,-28,-29,-15,3,17]","[0,0,0,0,0,0,0]","[0,0,0,0,0,0,0]","[0,0,0,0,0,0,0]","[0.0005000000000023874,0.014700000002974889,0.031999999999996476,0.048100000008929555,0.06460000000893729,0.08199999999999363,0.09840000000595239]",,13,0,13,0,1,participant,2022-09-22_12h34.49.126,GoFitts,2022.1.4,Win32,59.72288581,,,,
,,,,"[-24.99999999999999,43.30127018922194]","[33.45653031794292,-37.1572412738697]",80,100,3,"[-22,-40,-40,-42,-43,-35,-11,16,25,31,35,35]","[17,28,28,28,24,-1,-41,-75,-85,-90,-87,-66]","[0,0,0,0,0,0,0,0,0,0,0,0]","[0,0,0,0,0,0,0,0,0,0,0,0]","[0,0,0,0,0,0,0,0,0,0,0,0]","[0.0004000000059534159,0.016600000008935467,0.032299999997007944,0.04949999999999477,0.06610000000893024,0.08279999999700749,0.09970000000296864,0.1161000000089416,0.1331000000089375,0.1499000000059567,0.16590000000596206,0.18320000000296943]",,14,0,14,0,1,participant,2022-09-22_12h34.49.126,GoFitts,2022.1.4,Win32,59.72288581,,,,
,,,,,,,,3,,,,,,,,,,,,,participant,2022-09-22_12h34.49.126,GoFitts,2022.1.4,Win32,59.72288581,3,0,0,1
,,return,0.6006,"[2,-11]","[-305.67112522931427,64.97240338054979]",25.5,625,4,"[2,2,2,2,2,2,2,2,2,2,2,2,2,2,3,3,3,5,5,-3,-29,-79,-126,-151,-163,-175,-190,-202,-216,-226,-235,-242,-243,-243,-244,-246,-256,-278,-309,-330,-338,-340,-344,-350,-353,-354,-354,-354,-351,-344,-329,-297,-233,-129,12,204,247,246,228,184,126,66,20,3,3,48,149,277,292,278,225,156,123,109,108,99,42,-85,-219,-370,-389,-389,-378,-355,-336,-327,-319,-314]","[-11,-11,-11,-11,-11,-11,-11,-11,-11,-11,-11,-11,-11,-11,-11,-9,-6,-2,6,27,62,100,136,156,169,179,186,183,161,133,100,60,45,44,45,52,74,100,123,130,131,131,125,109,91,81,81,81,85,86,86,86,82,74,70,71,75,78,78,75,57,28,-3,-21,-35,-43,-44,-3,15,30,42,48,46,45,45,47,55,57,45,20,16,17,23,30,39,46,51,56]","[0,0,0,0,0,0,0,0,0,0,0,0,0,0,0,0,0,0,0,0,0,0,0,0,0,0,0,0,0,0,0,0,0,0,0,0,0,0,0,0,0,0,0,0,0,0,0,0,0,0,0,0,0,0,0,0,0,0,0,0,0,0,0,0,0,0,0,0,0,0,0,0,0,0,0,0,0,0,0,0,0,0,0,0,0,0,0,0]","[0,0,0,0,0,0,0,0,0,0,0,0,0,0,0,0,0,0,0,0,0,0,0,0,0,0,0,0,0,0,0,0,0,0,0,0,0,0,0,0,0,0,0,0,0,0,0,0,0,0,0,0,0,0,0,0,0,0,0,0,0,0,0,0,0,0,0,0,0,0,0,0,0,0,0,0,0,0,0,0,0,0,0,0,0,0,0,0]","[0,0,0,0,0,0,0,0,0,0,0,0,0,0,0,0,0,0,0,0,0,0,0,0,0,0,0,0,0,0,0,0,0,0,0,0,0,0,0,0,0,0,0,0,0,0,0,0,0,0,0,0,0,0,0,0,0,0,0,0,0,0,0,0,0,0,0,0,0,0,0,0,0,0,0,0,0,0,0,0,0,0,0,0,0,0,0,0]","[0.0012000000029814828,0.019200000002982165,0.032099999994031236,0.049099999994041355,0.06540000000596535,0.0827999999970217,0.09900000000000375,0.11529999999702056,0.13179999999701408,0.14920000000297762,0.1657999999970201,0.18229999999701363,0.1987000000029724,0.2154999999999916,0.232299999997025,0.24920000000297193,0.26600000000000534,0.2825999999940336,0.29940000000596,0.31699999999999307,0.3342000000029799,0.3507999999970224,0.3665999999940368,0.3824999999999932,0.39870000000297523,0.4152999999970177,0.43220000000297887,0.44909999999403283,0.465999999999994,0.4829000000059551,0.4992999999970209,0.5165999999940425,0.5344999999999942,0.5510000000000019,0.5674000000059607,0.5842999999970147,0.5989000000059548,0.615599999994032,0.6320999999940398,0.6490000000000009,0.6667000000029759,0.682799999997016,0.7000000000000028,0.7177999999970126,0.7342000000029856,0.75,0.766200000002982,0.7829000000059523,0.7997999999970204,0.8157000000029768,0.8319999999999936,0.8490000000000038,0.8659999999999997,0.8824000000059584,0.8990999999940357,0.9159999999999968,0.9325000000000045,0.9490999999940328,0.9657999999970173,0.9827000000029784,0.9989999999999952,1.015400000005954,1.0322000000029732,1.0492000000029833,1.0657000000029768,1.082499999999996,1.099499999999992,1.116500000000002,1.132700000002984,1.149000000000001,1.165900000005962,1.1825999999940393,1.198999999999998,1.2154999999999916,1.2327999999970132,1.2489999999999952,1.2659000000059564,1.2829000000059523,1.2995999999940437,1.3155000000000001,1.3319999999999936,1.3482999999970247,1.365700000002974,1.381799999997014,1.3985999999940333,1.415900000005962,1.432099999994037,1.448999999999998]",,0,0,0,0,1,participant,2022-09-22_12h34.49.126,GoFitts,2022.1.4,Win32,59.72288581,,,,
,,,,"[-305.67112522931427,64.97240338054979]","[312.5,0]",25.5,625,4,"[-314,-308,-301,-298,-294,-294,-294,-294,-294,-294,-294,-294,-294,-288,-279,-247,-82,126,372,572,684,696,693,674,656,646,637,624,556,476,390,336,322,322,322,322,322,322,319,317,316,315,315,312,312,312,312,314,315,315,315,315,315,315,315,314,312,312,312,312]","[56,60,65,67,67,67,67,67,67,67,67,67,67,68,70,70,71,71,83,110,134,141,143,143,135,127,115,100,50,7,-28,-44,-48,-48,-48,-48,-48,-48,-44,-40,-38,-37,-37,-36,-36,-33,-30,-26,-21,-20,-20,-20,-20,-20,-18,-16,-16,-15,-13,-5]","[0,0,0,0,0,0,0,0,0,0,0,0,0,0,0,0,0,0,0,0,0,0,0,0,0,0,0,0,0,0,0,0,0,0,0,0,0,0,0,0,0,0,0,0,0,0,0,0,0,0,0,0,0,0,0,0,0,0,0,0]","[0,0,0,0,0,0,0,0,0,0,0,0,0,0,0,0,0,0,0,0,0,0,0,0,0,0,0,0,0,0,0,0,0,0,0,0,0,0,0,0,0,0,0,0,0,0,0,0,0,0,0,0,0,0,0,0,0,0,0,0]","[0,0,0,0,0,0,0,0,0,0,0,0,0,0,0,0,0,0,0,0,0,0,0,0,0,0,0,0,0,0,0,0,0,0,0,0,0,0,0,0,0,0,0,0,0,0,0,0,0,0,0,0,0,0,0,0,0,0,0,0]","[0.0002999999970114686,0.016900000005961147,0.03320000000297796,0.049900000005948186,0.0669000000059583,0.08420000000297989,0.10090000000595012,0.11749999999999261,0.1342999999970118,0.15070000000297057,0.1664999999999992,0.18299999999999272,0.19970000000297716,0.21699999999999875,0.23310000000893183,0.24970000000297432,0.2662999999970168,0.2826000000089408,0.29940000000596,0.3164999999999907,0.333999999999989,0.3512000000029758,0.3662999999970111,0.38299999999999557,0.39970000000298,0.4164999999999992,0.4332999999970184,0.44999999999998863,0.46699999999999875,0.48349999999999227,0.4997999999970091,0.5166000000089355,0.5330000000000013,0.54940000000596,0.5659000000059535,0.5829999999999984,0.5997000000029686,0.6167000000029788,0.6352999999970166,0.6516000000089406,0.6682999999970178,0.685200000002979,0.7002999999970143,0.7164999999999964,0.7334000000059575,0.7504000000059534,0.7664999999999935,0.783200000002978,0.7999999999999972,0.8167999999970164,0.8334000000059518,0.8507000000029734,0.8674000000059578,0.8846000000089305,0.9017000000029753,0.9184999999999945,0.9337000000029718,0.9509999999999934,0.9667999999970078,0.9829000000059551]",,1,0,1,0,1,participant,2022-09-22_12h34.49.126,GoFitts,2022.1.4,Win32,59.72288581,,,,
,,,,"[312.5,0]","[-305.67112522931427,-64.97240338054971]",25.5,625,4,"[312,310,307,304,300,289,285,285,284,284,283,279,264,237,214,197,182,168,125,30,-98,-203,-262,-273,-273,-274,-274,-274,-274,-274,-274,-274,-274,-274,-274,-277,-279,-282,-286,-288,-292,-292,-294,-295,-298,-300,-302,-305,-305]","[-5,0,3,4,4,5,6,7,8,9,10,11,15,17,18,20,25,31,48,77,102,118,129,133,133,132,123,102,76,35,17,4,-4,-11,-12,-16,-16,-17,-20,-22,-24,-24,-25,-26,-28,-31,-37,-47,-54]","[0,0,0,0,0,0,0,0,0,0,0,0,0,0,0,0,0,0,0,0,0,0,0,0,0,0,0,0,0,0,0,0,0,0,0,0,0,0,0,0,0,0,0,0,0,0,0,0,0]","[0,0,0,0,0,0,0,0,0,0,0,0,0,0,0,0,0,0,0,0,0,0,0,0,0,0,0,0,0,0,0,0,0,0,0,0,0,0,0,0,0,0,0,0,0,0,0,0,0]","[0,0,0,0,0,0,0,0,0,0,0,0,0,0,0,0,0,0,0,0,0,0,0,0,0,0,0,0,0,0,0,0,0,0,0,0,0,0,0,0,0,0,0,0,0,0,0,0,0]","[0.0005000000000023874,0.016300000011924,0.033300000011919906,0.04970000000298569,0.06660000000893262,0.08330000001191706,0.09999999999999432,0.11749999999999261,0.1336000000089399,0.15080000001192673,0.16899999999999693,0.1839999999999975,0.19990000000595387,0.21649999999999636,0.23310000000894604,0.24990000000596524,0.26670000000298444,0.2836000000089456,0.30070000000297625,0.3185000000000002,0.33499999999999375,0.3521000000089458,0.36790000000596024,0.3834000000059632,0.3995000000000033,0.41660000000894115,0.4333000000119256,0.45020000000297955,0.46699999999999875,0.4848000000119157,0.5004000000059534,0.5164999999999935,0.533200000002978,0.5504000000059648,0.5662000000029792,0.583400000005966,0.6002000000029852,0.6164000000059531,0.633499999999998,0.649800000011922,0.6669000000059526,0.6827000000029813,0.6996000000089424,0.7179000000059546,0.7334999999999923,0.7502000000029767,0.7671000000089379,0.7835000000000036,0.7999000000059624]",,2,0,2,0,1,participant,2022-09-22_12h34.49.126,GoFitts,2022.1.4,Win32,59.72288581,,,,
,,,,"[-305.67112522931427,-64.97240338054971]","[285.4829555133128,127.10520096118755]",25.5,625,4,"[-305,-305,-305,-305,-305,-305,-305,-305,-303,-299,-269,-232,-199,-176,-157,-135,-92,-5,98,195,270,315,325,325,325,325,325,325,325,325,329,332,335,335,334,316,287]","[-54,-59,-59,-61,-61,-61,-61,-61,-61,-61,-44,-25,-9,-1,2,7,20,46,80,105,112,114,114,114,114,114,114,114,114,114,114,116,117,117,120,124,127]","[0,0,0,0,0,0,0,0,0,0,0,0,0,0,0,0,0,0,0,0,0,0,0,0,0,0,0,0,0,0,0,0,0,0,0,0,0]","[0,0,0,0,0,0,0,0,0,0,0,0,0,0,0,0,0,0,0,0,0,0,0,0,0,0,0,0,0,0,0,0,0,0,0,0,0]","[0,0,0,0,0,0,0,0,0,0,0,0,0,0,0,0,0,0,0,0,0,0,0,0,0,0,0,0,0,0,0,0,0,0,0,0,0]","[0.0005000000000023874,0.015900000005970583,0.03320000000299217,0.04960000000895093,0.06650000000000489,0.08320000000298933,0.10000000000000853,0.11770000000298353,0.13460000000894468,0.15070000000298478,0.16870000000298546,0.1837999999970208,0.1994000000059657,0.21650000000001057,0.23310000000894604,0.24960000000893956,0.2661000000089473,0.28300000000000125,0.29940000000596,0.3167000000029816,0.3337000000029917,0.3500000000000085,0.3667999999970277,0.38379999999702363,0.40060000000895,0.41690000000596683,0.4335000000000093,0.45020000000297955,0.4667000000029873,0.4827999999970274,0.49960000000893956,0.5166000000089497,0.5336000000089456,0.5501000000089391,0.5692000000029793,0.5846000000089475,0.5996000000089481]",,3,0,3,0,1,participant,2022-09-22_12h34.49.126,GoFitts,2022.1.4,Win32,59.72288581,,,,
,,,,"[285.4829555133128,127.10520096118755]","[-252.81781074217108,-183.68289134139783]",25.5,625,4,"[287,265,260,260,260,260,260,260,260,260,260,260,260,256,234,184,133,105,103,100,90,53,-15,-131,-189,-210,-215,-216,-216,-216,-216,-216,-216,-216,-219,-221,-221,-221,-221,-221,-224,-227,-230,-235,-237,-241,-244,-251]","[127,127,127,127,127,127,127,127,127,127,127,128,128,128,129,127,115,106,106,104,98,74,30,-49,-90,-111,-122,-125,-125,-125,-125,-125,-127,-129,-137,-140,-141,-141,-141,-141,-144,-147,-151,-154,-158,-163,-170,-177]","[0,0,0,0,0,0,0,0,0,0,0,0,0,0,0,0,0,0,0,0,0,0,0,0,0,0,0,0,0,0,0,0,0,0,0,0,0,0,0,0,0,0,0,0,0,0,0,0]","[0,0,0,0,0,0,0,0,0,0,0,0,0,0,0,0,0,0,0,0,0,0,0,0,0,0,0,0,0,0,0,0,0,0,0,0,0,0,0,0,0,0,0,0,0,0,0,0]","[0,0,0,0,0,0,0,0,0,0,0,0,0,0,0,0,0,0,0,0,0,0,0,0,0,0,0,0,0,0,0,0,0,0,0,0,0,0,0,0,0,0,0,0,0,0,0,0]","[0.0004000000059534159,0.01620000000298205,0.03320000000297796,0.0492000000029833,0.06640000000595592,0.08310000000894036,0.10010000000893626,0.11710000000893217,0.13349999999999795,0.1502000000029824,0.1670000000000016,0.18320000000298364,0.19950000000000045,0.21610000000893592,0.2334000000059575,0.24970000000297432,0.2664999999999935,0.28300000000000125,0.2996000000089367,0.3164999999999907,0.3332000000029751,0.350200000002971,0.366600000008944,0.38299999999999557,0.39970000000298,0.4162999999970225,0.4326000000089323,0.4492000000029748,0.465999999999994,0.48260000000894365,0.49940000000596285,0.5162999999970168,0.533200000002978,0.5502000000029739,0.5669999999999931,0.5832000000029751,0.6001000000089363,0.616600000008944,0.6327000000029699,0.6492000000029776,0.6664999999999992,0.6831000000089347,0.6997000000029772,0.7166000000089383,0.7332999999970156,0.750100000008942,0.7669999999999959,0.7827000000029756]",,4,0,4,0,1,participant,2022-09-22_12h34.49.126,GoFitts,2022.1.4,Win32,59.72288581,,,,
