key_resp_4.keys,key_resp_4.rt,mouse_2.x,mouse_2.y,mouse_2.leftButton,mouse_2.midButton,mouse_2.rightButton,mouse_2.time,cont.keys,cont.rt,retry_testing.thisRepN,retry_testing.thisTrialN,retry_testing.thisN,retry_testing.thisIndex,retry_testing.ran,受試者編號,date,expName,psychopyVersion,OS,frameRate,key_resp.keys,key_resp.rt,key_resp_3.keys,key_resp_3.rt,from,to,w,a,sequence_loop.thisN,mouse.x,mouse.y,mouse.leftButton,mouse.midButton,mouse.rightButton,mouse.time,key_resp_2.keys,trial_loop.thisRepN,trial_loop.thisTrialN,trial_loop.thisN,trial_loop.thisIndex,trial_loop.ran,sequence_loop.thisRepN,sequence_loop.thisTrialN,sequence_loop.thisIndex,sequence_loop.ran
return,8.1615,"[-34,-34,-34,-34,-34,-34,-34,-34,-34,-34,-34,-34,-34,-34,-34,-34,-34,-34,-34,-34,-34,-34,-34,-34,-34,-34,-34,-34,-34,-34,-34,-34,-34,-34,-34,-34,-34,-34,-34,-34,-34,-34,-34,-34,-34,-34,-34,-34,-34,-34,-34,-34,-34,-34,-34,-34,-34,-34,-34,-34,-34,-34,-34,-34,-34,-34,-34,-34,-34,-34,-34,-34,-34,-12,17,58,96,101,101,101,101,89,17,-192,-205,-173,-138,-90,-48,-14,20,58,101,160,185,193,194,194,194,191,191,197,206,214,216,230,278,298,329,365,388,404,410,411,411,411,411,411,411,411,403,393,374,346,315,293,285,284,287,297,305,308,309,309,309,312,318,324,326,327,328,330,333,333,344,353,357,357,357,357,357,358,363,364,364,364,358,357,357,357,356,354,352,350,349,349,349,349,349,349,349,349,349,349,349,349,349,349,336,269,214,-65,-301,-516,-771,-838,-960,-960,-960,-960,-958,-943,-905,-871,-826,-774,-733,-722,-721,-721,-723,-738,-757,-774,-774,-770,-766,-757,-740,-721,-708,-703,-701,-701,-700,-688,-668,-648,-621,-568,-497,-457,-435,-412,-369,-271,-83,-29,41,88,108,118,119,119,111,105,105,105,109,113,112,93,86,81,76,70,57,44,34,30,29,28,27,23,15,8,2,1,1,1,1,1,1,0,0,0,0,1,1,1,1,1,1,1,1,1,1,1,1,1,-6,-20,-46,-95,-161,-227,-304,-377,-406,-428,-456,-480,-505,-526,-542,-555,-560,-561,-558,-550,-514,-477,-436,-390,-355,-337,-333,-332,-332,-332,-332,-335,-335,-336,-338,-340,-343,-349,-358,-366,-367,-367,-357,-352,-351,-350,-350,-350,-350,-350,-350,-350,-350,-350,-350,-350,-350,-350,-350,-350,-350,-350,-350,-350,-350,-348,-340,-327,-316,-249,-185,-120,-55,12,61,88,105,124,136,145,150,152,154,154,150,142,125,102,49,31,0,-23,-25,-25,-18,-8,-3,-2,-1,-1]","[-191,-191,-191,-191,-191,-191,-191,-191,-191,-191,-191,-191,-191,-191,-191,-191,-191,-191,-191,-191,-191,-191,-191,-191,-191,-191,-191,-191,-191,-191,-191,-191,-191,-191,-191,-191,-191,-191,-191,-191,-191,-191,-191,-191,-191,-191,-191,-191,-191,-191,-191,-191,-191,-191,-191,-191,-191,-191,-191,-191,-191,-191,-191,-191,-191,-191,-191,-191,-191,-191,-191,-191,-191,-189,-183,-156,-131,-129,-129,-129,-129,-129,-125,-30,16,106,130,141,148,151,155,155,158,160,162,163,163,163,163,156,147,130,115,98,80,60,36,29,13,-5,-16,-21,-23,-23,-23,-23,-23,-23,-23,-23,-18,-17,-16,-14,-11,-8,-4,-1,4,7,8,9,10,10,10,11,11,11,11,11,11,11,11,10,3,-2,-2,-2,-2,-2,-2,-2,-3,-3,-3,-2,5,6,7,7,8,9,10,10,10,11,11,11,11,11,11,11,11,11,11,11,11,11,15,59,103,265,394,535,540,540,540,540,540,540,540,540,540,529,511,489,470,463,460,458,453,444,423,358,329,313,305,295,282,267,258,258,258,259,260,262,264,268,280,297,310,311,312,312,312,308,302,300,293,285,282,281,281,281,281,281,281,281,287,309,317,338,343,344,347,348,352,356,357,357,357,357,357,355,353,352,351,350,350,350,350,350,350,350,350,350,350,350,350,350,350,350,350,350,350,350,350,350,350,350,350,348,334,300,252,203,147,86,58,33,-4,-39,-64,-77,-83,-88,-91,-91,-92,-92,-92,-86,-73,-55,-38,-30,-27,-25,-25,-25,-24,-23,-23,-22,-22,-22,-23,-23,-19,-13,-11,-7,-2,0,1,2,3,4,4,4,4,4,4,4,4,4,4,4,4,4,4,3,3,2,2,-4,-29,-65,-88,-174,-225,-266,-296,-322,-344,-356,-365,-374,-380,-383,-385,-387,-393,-398,-401,-401,-399,-393,-385,-381,-378,-376,-376,-375,-373,-372,-372,-371,-370,-369]","[0,0,0,0,0,0,0,0,0,0,0,0,0,0,0,0,0,0,0,0,0,0,0,0,0,0,0,0,0,0,0,0,0,0,0,0,0,0,0,0,0,0,0,0,0,0,0,0,0,0,0,0,0,0,0,0,0,0,0,0,0,0,0,0,0,0,0,0,0,0,0,0,0,0,0,0,0,0,0,0,0,0,0,0,0,0,0,0,0,0,0,0,0,0,0,0,0,0,0,0,0,0,0,0,0,0,0,0,0,0,0,0,0,0,0,0,0,0,0,0,0,0,0,0,0,0,0,0,0,0,0,0,0,0,0,0,0,0,0,0,0,0,0,0,0,0,0,0,0,0,0,0,0,0,0,0,0,0,0,0,0,0,0,0,0,0,0,0,0,0,1,1,1,1,1,1,1,0,0,0,0,0,0,0,0,0,0,0,0,0,0,0,0,0,0,0,0,0,0,0,0,0,0,0,0,0,0,0,0,0,0,0,0,0,0,0,0,0,0,0,0,0,0,0,0,0,0,0,0,0,0,0,0,0,0,0,0,0,0,0,0,0,0,0,0,0,0,0,0,0,0,0,0,0,0,0,0,0,0,0,0,0,0,0,0,0,0,0,0,0,1,1,1,1,1,1,1,1,1,0,0,0,0,0,0,0,0,0,0,0,0,0,0,0,0,0,0,0,0,0,0,0,0,0,0,0,0,0,0,0,0,0,0,0,0,0,0,0,0,0,0,0,0,0,0,0,0,0,0,0,0,0,1,1,1,1,1,1,0,0,0,0,0,0,0,0,0,0,0,0,0,0,0,0,0,0,0,0,0,0,0,0,0,0,0,0,0,0,0,0,0,0,0,0,0,0,0,0,0,0]","[0,0,0,0,0,0,0,0,0,0,0,0,0,0,0,0,0,0,0,0,0,0,0,0,0,0,0,0,0,0,0,0,0,0,0,0,0,0,0,0,0,0,0,0,0,0,0,0,0,0,0,0,0,0,0,0,0,0,0,0,0,0,0,0,0,0,0,0,0,0,0,0,0,0,0,0,0,0,0,0,0,0,0,0,0,0,0,0,0,0,0,0,0,0,0,0,0,0,0,0,0,0,0,0,0,0,0,0,0,0,0,0,0,0,0,0,0,0,0,0,0,0,0,0,0,0,0,0,0,0,0,0,0,0,0,0,0,0,0,0,0,0,0,0,0,0,0,0,0,0,0,0,0,0,0,0,0,0,0,0,0,0,0,0,0,0,0,0,0,0,0,0,0,0,0,0,0,0,0,0,0,0,0,0,0,0,0,0,0,0,0,0,0,0,0,0,0,0,0,0,0,0,0,0,0,0,0,0,0,0,0,0,0,0,0,0,0,0,0,0,0,0,0,0,0,0,0,0,0,0,0,0,0,0,0,0,0,0,0,0,0,0,0,0,0,0,0,0,0,0,0,0,0,0,0,0,0,0,0,0,0,0,0,0,0,0,0,0,0,0,0,0,0,0,0,0,0,0,0,0,0,0,0,0,0,0,0,0,0,0,0,0,0,0,0,0,0,0,0,0,0,0,0,0,0,0,0,0,0,0,0,0,0,0,0,0,0,0,0,0,0,0,0,0,0,0,0,0,0,0,0,0,0,0,0,0,0,0,0,0,0,0,0,0,0,0,0,0,0,0,0,0,0,0,0,0,0,0,0,0,0,0,0,0,0,0,0,0,0,0,0,0,0,0,0,0,0,0,0,0]","[0,0,0,0,0,0,0,0,0,0,0,0,0,0,0,0,0,0,0,0,0,0,0,0,0,0,0,0,0,0,0,0,0,0,0,0,0,0,0,0,0,0,0,0,0,0,0,0,0,0,0,0,0,0,0,0,0,0,0,0,0,0,0,0,0,0,0,0,0,0,0,0,0,0,0,0,0,0,0,0,0,0,0,0,0,0,0,0,0,0,0,0,0,0,0,0,0,0,0,0,0,0,0,0,0,0,0,0,0,0,0,0,0,0,0,0,0,0,0,0,0,0,0,0,0,0,0,0,0,0,0,0,0,0,0,0,0,0,0,0,0,0,0,0,0,0,0,0,0,0,0,0,0,0,0,0,0,0,0,0,0,0,0,0,0,0,0,0,0,0,0,0,0,0,0,0,0,0,0,0,0,0,0,0,0,0,0,0,0,0,0,0,0,0,0,0,0,0,0,0,0,0,0,0,0,0,0,0,0,0,0,0,0,0,0,0,0,0,0,0,0,0,0,0,0,0,0,0,0,0,0,0,0,0,0,0,0,0,0,0,0,0,0,0,0,0,0,0,0,0,0,0,0,0,0,0,0,0,0,0,0,0,0,0,0,0,0,0,0,0,0,0,0,0,0,0,0,0,0,0,0,0,0,0,0,0,0,0,0,0,0,0,0,0,0,0,0,0,0,0,0,0,0,0,0,0,0,0,0,0,0,0,0,0,0,0,0,0,0,0,0,0,0,0,0,0,0,0,0,0,0,0,0,0,0,0,0,0,0,0,0,0,0,0,0,0,0,0,0,0,0,0,0,0,0,0,0,0,0,0,0,0,0,0,0,0,0,0,0,0,0,0,0,0,0,0,0,0,0,0]","[0.0008999999985093154,0.008899999998504882,0.025199999999252043,0.04060000000148989,0.05919999999925096,0.07600000000000051,0.09069999999925216,0.10769999999925517,0.12410000000149068,0.14219999999924937,0.1573999999985105,0.17449999999999477,0.19219999999925363,0.20869999999925426,0.22369999999925483,0.24180000000074386,0.25760000000148864,0.27410000000148926,0.2909999999999968,0.30880000000074403,0.32419999999925153,0.34199999999999875,0.3578000000007435,0.37560000000149074,0.39239999999850994,0.40880000000074546,0.4239999999999995,0.44089999999850704,0.4576000000014844,0.47430000000074557,0.49099999999999966,0.5073000000007397,0.525500000000001,0.5411999999992503,0.5583999999985068,0.5743000000007399,0.5910000000000011,0.6073999999985062,0.6241000000014907,0.6409999999999982,0.6574999999999989,0.6741000000014878,0.6921000000014885,0.707499999999996,0.724499999999999,0.7418000000007439,0.7576999999992537,0.7751000000014869,0.7926000000014852,0.808800000000744,0.8241999999992515,0.8408000000007405,0.8574999999999946,0.8741000000014907,0.8906000000014913,0.9076000000014872,0.924199999999253,0.9408000000007419,0.9573000000007426,0.974100000001485,0.9908000000007462,1.0086999999992514,1.024000000000001,1.0408000000007434,1.058800000000744,1.0756999999992516,1.092899999998508,1.1073999999985062,1.1254999999999953,1.143100000001489,1.1573999999985105,1.1741000000014878,1.190800000000742,1.2088999999985077,1.2258000000007456,1.241100000001488,1.258100000001491,1.275500000000001,1.2923000000007434,1.3091000000014859,1.3236999999992562,1.3414999999999964,1.357999999999997,1.3754999999999953,1.3906000000014913,1.4076999999992523,1.4253999999985112,1.442699999999256,1.4576999999992495,1.4748000000007409,1.4921000000014857,1.5078999999985072,1.524000000000001,1.542199999999255,1.5596000000014882,1.5753999999985098,1.5926999999992546,1.6086999999992528,1.6254999999999953,1.6408999999985099,1.6588999999985106,1.6744999999999948,1.692399999998507,1.707800000000745,1.7253000000007432,1.7413000000007415,1.758499999999998,1.774000000000001,1.7913000000007457,1.8089999999999975,1.8251999999992492,1.842100000001487,1.8589999999999947,1.8739999999999952,1.8921000000014914,1.9074999999999989,1.9241000000014878,1.940899999998507,1.9573999999985077,1.9738000000007432,1.9923000000007463,2.0091000000014887,2.0238000000007403,2.0408999999985085,2.057600000001486,2.074399999998505,2.0911999999992545,2.1078999999985086,2.124699999999251,2.142300000000745,2.1580000000000013,2.175399999998511,2.191499999999998,2.2083999999985053,2.224100000001485,2.241100000001488,2.258899999998505,2.2756999999992544,2.2926000000014852,2.308800000000744,2.3241999999992515,2.3416000000014847,2.3589999999999947,2.3741000000014907,2.392300000000745,2.407499999999999,2.425600000001488,2.442300000000742,2.4573999999985077,2.4753000000007432,2.4924999999999997,2.507899999998507,2.5256000000014893,2.5423000000007434,2.557300000000744,2.573999999999998,2.591399999998508,2.6084999999999994,2.6254999999999953,2.6408000000007448,2.6578000000007407,2.6751000000014855,2.692,2.7088000000007426,2.7254999999999967,2.742600000001488,2.757399999998505,2.774000000000001,2.7908999999985085,2.807399999998509,2.8236999999992562,2.8408999999985056,2.8574999999999946,2.8739999999999952,2.8911000000014866,2.907499999999999,2.924199999999253,2.9405,2.957199999999254,2.975199999999255,2.9909999999999997,3.0076999999992537,3.0253000000007404,3.04060000000149,3.063199999999256,3.0753000000007447,3.0903000000007452,3.1074999999999946,3.125300000000742,3.1406999999992493,3.1578000000007407,3.1743000000007413,3.192,3.2076999999992495,3.2251000000014898,3.240399999998509,3.2576000000014886,3.2753999999985055,3.2919999999999945,3.307399999998509,3.3256000000014865,3.340600000001487,3.357699999999255,3.375399999998507,3.3908000000007448,3.408999999999999,3.4269999999999996,3.4418999999985047,3.4576999999992495,3.4753000000007432,3.4924999999999997,3.5076000000014886,3.5253000000007404,3.5426000000014852,3.559100000001486,3.573999999999998,3.5919999999999987,3.607199999999253,3.6241000000014907,3.6409999999999982,3.657600000001487,3.6743000000007413,3.6909999999999954,3.708999999999996,3.724800000000741,3.7423999999985043,3.759300000000742,3.7741000000014893,3.7908000000007434,3.807600000001486,3.824399999998505,3.842199999999252,3.857699999999255,3.873899999998507,3.89089999999851,3.9076999999992523,3.9239999999999995,3.941100000001491,3.957800000000745,3.9753000000007432,3.990899999998504,4.009,4.024300000000743,4.040499999999994,4.057300000000744,4.074100000001486,4.09189999999851,4.10760000000149,4.124699999999251,4.141800000000742,4.157800000000741,4.175800000000741,4.192600000001491,4.208399999998505,4.22419999999925,4.242300000000746,4.258699999999251,4.274199999999254,4.2908999999985085,4.307399999998509,4.323999999999998,4.342199999999252,4.357499999999995,4.374199999999256,4.391699999999254,4.409100000001487,4.424199999999253,4.442399999998507,4.457399999998508,4.474100000001485,4.492100000001486,4.509,4.5238999999985055,4.541699999999253,4.558499999999995,4.573800000000745,4.5908000000007405,4.607499999999995,4.624300000000744,4.640300000000742,4.6573999999985105,4.675399999998511,4.690999999999995,4.707800000000745,4.724399999998511,4.741899999998509,4.757999999999996,4.775500000000001,4.792600000001485,4.808600000001491,4.82580000000074,4.842199999999252,4.8578000000007435,4.873999999999995,4.891199999999252,4.9088000000007455,4.925300000000746,4.941399999998509,4.958800000000743,4.974300000000746,4.991800000000744,5.007699999999254,5.024199999999254,5.0423999999985085,5.057600000001486,5.073800000000745,5.091300000000743,5.107999999999997,5.124199999999256,5.14089999999851,5.157899999998506,5.175399999998511,5.190699999999254,5.20789999999851,5.225399999998508,5.240899999998504,5.259199999999254,5.2746000000014845,5.292800000000746,5.309399999998504,5.324100000001486,5.341399999998508,5.359800000000746,5.375600000001491,5.3903999999985075,5.407699999999252,5.425399999998511,5.441199999999256,5.457499999999996,5.473999999999997,5.491199999999253,5.508699999999251,5.526100000001485,5.542300000000743,5.558499999999995,5.573800000000745,5.592100000001487,5.608699999999253,5.6235,5.6403999999985075,5.6569999999999965,5.673800000000746,5.690999999999995,5.707800000000745,5.72419999999925,5.741100000001488,5.759100000001489,5.776600000001487,5.79119999999925,5.808600000001491,5.8256000000014865,5.842300000000741,5.857699999999255,5.875300000000742,5.890800000000745,5.9084999999999965,5.924100000001488,5.942,5.959100000001484,5.975600000001485,5.992300000000746,6.0075,6.025500000000001,6.0423999999985085,6.057899999998504,6.075300000000745,6.091100000001489,6.109300000000744,6.125399999998507,6.14089999999851,6.157499999999999,6.175600000001488,6.192399999998507,6.208899999998508,6.223899999998508,6.240300000000744,6.2575,6.275600000001489,6.292800000000746,6.307899999998504]",return,49.832,0,0,0,0,1, PAV-0016,2022-11-03_14h26.25.925,GoFitts,2022.1.4,Win32,59.76214666,,,,,,,,,,,,,,,,,,,,,,,,,
,,,,,,,,,,,,,,, PAV-0016,2022-11-03_14h26.25.925,GoFitts,2022.1.4,Win32,59.76214666,return,7.2779,return,1.1403,"[213,-124]","[216.9670461901177,96.59995273050254]",40.5,475,0,"[213,213,213,213,213,213,213,213,213,213,213,213,213,213,213,213,213,213,213,213,213,213,213,213,213,213,213,213,213,213,213,213,213,213,213,213,213,213,253,394,554,660,693,704,707,712,682,631,580,542,501,467,433,389,323,210,131,70,29,7,-3,-4,-1,4,5,6,14,43,78,125,173,198]","[-124,-124,-124,-124,-124,-124,-124,-124,-124,-124,-124,-124,-124,-124,-124,-124,-124,-124,-124,-124,-124,-124,-124,-124,-124,-124,-124,-124,-124,-124,-124,-124,-124,-124,-124,-124,-124,-124,-124,-100,-72,-55,-50,-20,-4,57,110,172,216,235,246,252,255,255,254,238,224,204,185,170,160,156,154,153,150,147,137,119,109,101,98,98]","[0,0,0,0,0,0,0,0,0,0,0,0,0,0,0,0,0,0,0,0,0,0,0,0,0,0,0,0,0,0,0,0,0,0,0,0,0,0,0,0,0,0,0,0,0,0,0,0,0,0,0,0,0,0,0,0,0,0,0,0,0,0,0,0,0,0,0,0,0,0,0,0]","[0,0,0,0,0,0,0,0,0,0,0,0,0,0,0,0,0,0,0,0,0,0,0,0,0,0,0,0,0,0,0,0,0,0,0,0,0,0,0,0,0,0,0,0,0,0,0,0,0,0,0,0,0,0,0,0,0,0,0,0,0,0,0,0,0,0,0,0,0,0,0,0]","[0,0,0,0,0,0,0,0,0,0,0,0,0,0,0,0,0,0,0,0,0,0,0,0,0,0,0,0,0,0,0,0,0,0,0,0,0,0,0,0,0,0,0,0,0,0,0,0,0,0,0,0,0,0,0,0,0,0,0,0,0,0,0,0,0,0,0,0,0,0,0,0]","[0.002699999999265401,0.016900000002237903,0.03269999999925233,0.050600000001495005,0.06769999999926313,0.08519999999926142,0.09910000000149921,0.1171000000014999,0.13230000000075393,0.14930000000074983,0.16600000000001103,0.1826000000015,0.199300000000747,0.2171999999992522,0.23390000000223665,0.2491999999992629,0.2656999999992564,0.2826000000014943,0.2993000000007555,0.3160000000000025,0.33230000000074256,0.3493000000007527,0.3661000000014951,0.38269999999926085,0.3994000000022453,0.4164000000022412,0.4326000000015,0.4491000000014935,0.4658000000007547,0.48269999999925517,0.4994999999999976,0.5159000000022331,0.5326000000014943,0.5491000000014878,0.566100000001498,0.5826000000014915,0.5991999999992572,0.6159000000022417,0.6341000000014958,0.6508000000007428,0.667500000000004,0.6843000000007464,0.7006000000015007,0.7155000000000058,0.7326999999992552,0.7508000000007513,0.7671000000014914,0.7826000000014943,0.800600000001495,0.8174000000022374,0.8319000000022356,0.8489000000022457,0.8661999999992531,0.8840000000000003,0.8989000000022429,0.917400000002246,0.933800000000744,0.9489999999999981,0.9656999999992593,0.9836999999992599,0.9994999999999976,1.0174999999999983,1.034000000000006,1.0496000000014902,1.0671000000014885,1.0831000000014939,1.1008000000007456,1.1174000000022346,1.1325000000000074,1.1504000000022359,1.1655000000000086,1.182699999999258]",,0,0,0,0,1,,,,
,,,,,,,,,,,,,,, PAV-0016,2022-11-03_14h26.25.925,GoFitts,2022.1.4,Win32,59.76214666,,,,,"[216.9670461901177,96.59995273050254]","[-192.14153616405002,-139.59899741946234]",40.5,475,0,"[198,206,207,207,207,208,216,224,227,227,227,227,226,226,226,226,226,226,226,226,226,226,226,226,224,221,219,216,212,210,210,210,198,140,24,-94,-209]","[98,98,98,98,98,98,99,102,104,105,106,106,107,107,107,107,107,107,107,107,107,107,107,107,106,102,99,95,90,88,86,86,80,53,1,-71,-144]","[0,0,0,0,0,0,0,0,0,0,0,0,0,0,0,0,0,0,0,0,0,0,0,0,0,0,0,0,0,0,0,0,0,0,0,0,0]","[0,0,0,0,0,0,0,0,0,0,0,0,0,0,0,0,0,0,0,0,0,0,0,0,0,0,0,0,0,0,0,0,0,0,0,0,0]","[0,0,0,0,0,0,0,0,0,0,0,0,0,0,0,0,0,0,0,0,0,0,0,0,0,0,0,0,0,0,0,0,0,0,0,0,0]","[0.00019999999926767487,0.017500000000012506,0.033300000000750174,0.04950000000000898,0.0660000000000025,0.08400000000000318,0.09919999999925722,0.1171999999992579,0.1325999999977654,0.15050000000000807,0.16750000000000398,0.18280000000075347,0.2006999999992587,0.21750000000000114,0.23269999999925517,0.2496999999992653,0.2661999999992588,0.28439999999851295,0.3008999999985207,0.3160999999977747,0.3338000000007497,0.34959999999776414,0.3663000000007486,0.3828999999985143,0.3998000000007522,0.4178999999985109,0.4341999999992652,0.45000000000000284,0.46750000000000114,0.4843000000007578,0.501099999997777,0.5160000000000053,0.5338999999985106,0.5510999999977741,0.5678000000007444,0.5825999999977682,0.5998999999985131]",,1,0,1,0,1,,,,
,,,,,,,,,,,,,,, PAV-0016,2022-11-03_14h26.25.925,GoFitts,2022.1.4,Win32,59.76214666,,,,,"[-192.14153616405002,-139.59899741946234]","[158.91851901022883,176.49689605088113]",40.5,475,0,"[-209,-320,-401,-464,-505,-525,-535,-542,-542,-542,-539,-513,-502,-486,-459,-420,-391,-357,-346,-326,-305,-288,-288,-291,-292,-292,-287,-283,-283,-282,-281,-280,-279,-279,-278,-278,-278,-278,-278,-278,-278,-278,-278,-278,-278,-278,-287,-287,-287,-287,-287,-287,-287,-265,-234,-228,-234,-237,-242,-246,-246,-246,-249,-250,-251,-251,-251,-251,-251,-251,-251,-251,-197,-145,-95,-31,15,44,57,67,77,106,171,206,228,241,246,248,250,250,251,251,251,245,236,222,201,171]","[-144,-213,-269,-312,-341,-357,-367,-372,-373,-373,-373,-367,-364,-361,-356,-349,-344,-330,-325,-315,-305,-295,-291,-287,-282,-269,-253,-244,-241,-238,-237,-235,-233,-233,-230,-230,-230,-230,-230,-230,-230,-230,-230,-230,-230,-230,-231,-232,-232,-232,-232,-232,-232,-218,-197,-183,-172,-170,-170,-170,-170,-169,-168,-168,-168,-168,-168,-168,-168,-168,-168,-168,-140,-107,-66,-17,26,60,79,95,114,156,235,273,299,311,314,315,315,315,315,315,315,309,297,274,239,191]","[0,0,0,0,0,0,0,0,0,0,0,0,0,0,0,0,0,0,0,0,0,0,0,0,0,0,0,0,0,0,0,0,0,0,0,0,0,0,0,0,0,0,0,0,0,0,0,0,0,0,0,0,0,0,0,0,0,0,0,0,0,0,0,0,0,0,0,0,0,0,0,0,0,0,0,0,0,0,0,0,0,0,0,0,0,0,0,0,0,0,0,0,0,0,0,0,0,0]","[0,0,0,0,0,0,0,0,0,0,0,0,0,0,0,0,0,0,0,0,0,0,0,0,0,0,0,0,0,0,0,0,0,0,0,0,0,0,0,0,0,0,0,0,0,0,0,0,0,0,0,0,0,0,0,0,0,0,0,0,0,0,0,0,0,0,0,0,0,0,0,0,0,0,0,0,0,0,0,0,0,0,0,0,0,0,0,0,0,0,0,0,0,0,0,0,0,0]","[0,0,0,0,0,0,0,0,0,0,0,0,0,0,0,0,0,0,0,0,0,0,0,0,0,0,0,0,0,0,0,0,0,0,0,0,0,0,0,0,0,0,0,0,0,0,0,0,0,0,0,0,0,0,0,0,0,0,0,0,0,0,0,0,0,0,0,0,0,0,0,0,0,0,0,0,0,0,0,0,0,0,0,0,0,0,0,0,0,0,0,0,0,0,0,0,0,0]","[0.000199999999253464,0.017099999997753912,0.033899999998496355,0.048899999998496924,0.06719999999924653,0.08399999999998897,0.09879999999701283,0.11759999999776483,0.13439999999850727,0.1489999999999867,0.1656999999992479,0.18279999999701602,0.2001999999992421,0.21609999999775198,0.2324999999999875,0.2492999999970067,0.26829999999701215,0.28409999999776403,0.3009999999999877,0.3160999999977605,0.3321999999992471,0.3501999999992478,0.3655999999977553,0.3823999999984977,0.40029999999701715,0.4160999999977548,0.4321999999992414,0.44959999999775846,0.4673999999985057,0.48379999999701795,0.49909999999775323,0.5161999999992446,0.5333999999985082,0.5503999999985041,0.5656999999992536,0.5837999999970123,0.5990999999977618,0.6158999999985042,0.6325999999977654,0.6505999999977519,0.6658999999985014,0.6824999999999903,0.6990999999977561,0.715999999999994,0.733799999997018,0.7487999999970185,0.7657999999970144,0.7835999999977616,0.7992999999970181,0.8153999999985047,0.8334999999999866,0.8487999999970128,0.8652999999970064,0.8826999999992466,0.8989999999999867,0.9169999999999874,0.9328999999984973,0.9495000000000005,0.9657999999970173,0.9830999999977621,0.9992999999970067,1.0162999999970168,1.033699999999243,1.0490999999977646,1.0671999999992465,1.082499999999996,1.0990999999977618,1.1158999999985042,1.1324999999999932,1.1506999999992473,1.1658999999985014,1.1825999999977626,1.1991999999992515,1.2158999999984985,1.2326999999992552,1.2504999999999882,1.2658999999985099,1.2825999999977569,1.2994999999999948,1.3159999999999883,1.3327999999970075,1.3493999999984965,1.367299999997016,1.3837999999970094,1.4005999999977519,1.4159999999999968,1.431999999999988,1.4485999999977537,1.467499999999987,1.4840999999977527,1.5002999999970115,1.515599999997761,1.5324999999999989,1.5490999999977646,1.5657999999970116,1.5820999999977516,1.5993999999984965,1.6155999999977553]",,2,0,2,0,1,,,,
,,,,,,,,,,,,,,, PAV-0016,2022-11-03_14h26.25.925,GoFitts,2022.1.4,Win32,59.76214666,,,,,"[158.91851901022883,176.49689605088113]","[-118.7500000000001,-205.68103339880415]",40.5,475,0,"[171,146,133,129,128,128,129,141,159,172,173,173,172,171,171,171,170,164,160,155,150,141,138,137,137,137,137,138,138,138,138,139,142,144,142,132,100,33,-62,-170,-273,-356,-407,-420,-420,-419,-417,-416,-411,-396,-372,-343,-321,-300,-295,-281,-275,-271,-271,-271,-271,-270,-270,-270,-270,-264,-248,-215,-170,-126,-48,-7,9,15,15,15,10,5,-1,-6,-11,-17,-31,-50,-75,-97,-111,-119,-123,-126,-128,-132,-133,-133,-131,-126]","[191,146,121,109,106,104,103,104,110,118,121,124,127,131,137,145,151,156,160,163,165,171,174,177,180,181,182,182,182,182,182,182,182,181,172,144,69,-51,-196,-356,-497,-539,-539,-539,-539,-539,-539,-539,-534,-522,-498,-463,-435,-401,-390,-361,-348,-337,-330,-327,-324,-322,-322,-322,-322,-320,-315,-307,-298,-290,-267,-254,-246,-238,-230,-216,-205,-198,-195,-193,-193,-193,-197,-207,-218,-227,-231,-233,-235,-236,-236,-234,-232,-227,-223,-216]","[0,0,0,0,0,0,0,0,0,0,0,0,0,0,0,0,0,0,0,0,0,0,0,0,0,0,0,0,0,0,0,0,0,0,0,0,0,0,0,0,0,0,0,0,0,0,0,0,0,0,0,0,0,0,0,0,0,0,0,0,0,0,0,0,0,0,0,0,0,0,0,0,0,0,0,0,0,0,0,0,0,0,0,0,0,0,0,0,0,0,0,0,0,0,0,0]","[0,0,0,0,0,0,0,0,0,0,0,0,0,0,0,0,0,0,0,0,0,0,0,0,0,0,0,0,0,0,0,0,0,0,0,0,0,0,0,0,0,0,0,0,0,0,0,0,0,0,0,0,0,0,0,0,0,0,0,0,0,0,0,0,0,0,0,0,0,0,0,0,0,0,0,0,0,0,0,0,0,0,0,0,0,0,0,0,0,0,0,0,0,0,0,0]","[0,0,0,0,0,0,0,0,0,0,0,0,0,0,0,0,0,0,0,0,0,0,0,0,0,0,0,0,0,0,0,0,0,0,0,0,0,0,0,0,0,0,0,0,0,0,0,0,0,0,0,0,0,0,0,0,0,0,0,0,0,0,0,0,0,0,0,0,0,0,0,0,0,0,0,0,0,0,0,0,0,0,0,0,0,0,0,0,0,0,0,0,0,0,0,0]","[0.000199999999253464,0.017899999998505223,0.033300000000750174,0.049699999999248234,0.06780000000074438,0.08319999999925187,0.10010000000148978,0.11680000000075097,0.1333999999985025,0.14989999999851022,0.16669999999925267,0.1831999999992604,0.19989999999850738,0.21649999999999636,0.23419999999924812,0.25,0.26689999999851466,0.2833000000007502,0.29999999999999716,0.3168000000007396,0.33330000000074733,0.35110000000149455,0.36599999999999966,0.38319999999924903,0.4011000000014917,0.4168000000007481,0.4348999999985068,0.4511999999992611,0.4680000000000035,0.48480000000074597,0.501100000001486,0.516600000001489,0.5333999999985082,0.5498999999985159,0.5678999999985024,0.5838000000007497,0.601300000000748,0.6170000000000044,0.6336999999992514,0.6501999999992591,0.6668000000007481,0.6836999999992486,0.7011999999992611,0.7178999999985081,0.7331000000014853,0.7498000000007465,0.7668000000007424,0.7836999999992571,0.7999999999999972,0.8168999999985118,0.8336999999992543,0.8509999999999991,0.866899999998509,0.8841999999992538,0.8995000000000033,0.9166999999992527,0.9346000000014953,0.9495000000000005,0.9664999999999964,0.984899999998504,1.000300000000749,1.0168999999985147,1.034399999998513,1.049899999998516,1.0663999999985094,1.0836000000014963,1.1001000000014898,1.117199999999258,1.1336999999992514,1.1501999999992591,1.1681000000014876,1.1834999999999951,1.2005000000000052,1.2176999999992546,1.2328999999985086,1.249699999999251,1.2681000000014961,1.2844999999999942,1.2998000000007437,1.3171000000014885,1.334699999999259,1.3503000000007432,1.3674999999999926,1.383100000001491,1.4011999999992497,1.4171000000014828,1.4346999999992534,1.449699999999254,1.4666000000014918,1.4831999999992576,1.5010000000000048,1.5178999999985052,1.5331000000014825,1.5511000000014832,1.5681000000014933,1.5833000000007473]",,3,0,3,0,1,,,,
,,,,,,,,,,,,,,, PAV-0016,2022-11-03_14h26.25.925,GoFitts,2022.1.4,Win32,59.76214666,,,,,"[-118.7500000000001,-205.68103339880415]","[73.39153616405002,225.87592262009898]",40.5,475,0,"[-126,-116,-109,-103,-102,-102,-105,-108,-109,-109,-109,-109,-109,-109,-109,-112,-115,-116,-116,-116,-116,-116,-112,-64,-12,41,95,147,181,197,201,198,189,186,182,180,175,162,143,119,94,77,70,69,70,74,77,78,79,80,83,90,95,96,96,92,84,74,55,49,48,48,48,48,50,52,54,56,57,68,74,79]","[-216,-207,-200,-193,-189,-186,-184,-182,-182,-182,-182,-182,-182,-182,-182,-185,-188,-191,-192,-192,-192,-192,-189,-132,-51,62,196,317,398,455,487,501,513,514,514,514,512,499,478,450,412,381,361,345,334,324,320,318,316,312,305,301,300,300,300,297,287,267,212,181,169,165,163,162,162,163,166,172,174,189,202,210]","[0,0,0,0,0,0,0,0,0,0,0,0,0,0,0,0,0,0,0,0,0,0,0,0,0,0,0,0,0,0,0,0,0,0,0,0,0,0,0,0,0,0,0,0,0,0,0,0,0,0,0,0,0,0,0,0,0,0,0,0,0,0,0,0,0,0,0,0,0,0,0,0]","[0,0,0,0,0,0,0,0,0,0,0,0,0,0,0,0,0,0,0,0,0,0,0,0,0,0,0,0,0,0,0,0,0,0,0,0,0,0,0,0,0,0,0,0,0,0,0,0,0,0,0,0,0,0,0,0,0,0,0,0,0,0,0,0,0,0,0,0,0,0,0,0]","[0,0,0,0,0,0,0,0,0,0,0,0,0,0,0,0,0,0,0,0,0,0,0,0,0,0,0,0,0,0,0,0,0,0,0,0,0,0,0,0,0,0,0,0,0,0,0,0,0,0,0,0,0,0,0,0,0,0,0,0,0,0,0,0,0,0,0,0,0,0,0,0]","[0.00030000000073471256,0.0175999999977563,0.03289999999850579,0.049699999999248234,0.06639999999850943,0.08299999999999841,0.09980000000074085,0.11630000000073437,0.13309999999775357,0.15080000000074278,0.16630000000074574,0.1826999999992438,0.19950000000000045,0.21619999999924744,0.23289999999850863,0.25,0.26730000000074483,0.28309999999775926,0.2998999999985017,0.3173999999985,0.3340999999977612,0.34959999999776414,0.3663999999985066,0.38430000000073505,0.3998999999985102,0.41769999999924323,0.43419999999925096,0.44909999999775607,0.46619999999924744,0.4830999999977621,0.49980000000074654,0.5163000000007401,0.5341999999992453,0.5494999999999948,0.5675999999977535,0.5840999999977612,0.5989999999999895,0.6155999999977553,0.6328000000007421,0.6506999999992473,0.6673999999985085,0.6845999999977579,0.7010999999977656,0.7176999999992546,0.7328000000007364,0.7508999999985093,0.7661999999992446,0.7830999999977593,0.7993999999984993,0.8170999999977653,0.832599999997754,0.8490999999977618,0.8675999999977648,0.884300000000735,0.8993999999985078,0.9165999999977572,0.9331999999992462,0.9496999999992539,0.9673000000007335,0.9843999999985016,1.000800000000737,1.0165999999977657,1.0330999999977593,1.0504999999999995,1.0664999999999907,1.084300000000738,1.1006999999992502,1.1174999999999926,1.1326999999992466,1.1493000000007356,1.1663000000007457,1.183800000000744]",,4,0,4,0,1,,,,
,,,,,,,,,,,,,,, PAV-0016,2022-11-03_14h26.25.925,GoFitts,2022.1.4,Win32,59.76214666,,,,,"[73.39153616405002,225.87592262009898]","[-24.82551002606788,-236.1989501499649]",40.5,475,0,"[79,80,80,80,77,71,67,66,63,61,59,58,57,57,60,67,76,82,85,86,87,87,87,87,87,87,84,81,78,74,68,57,52,40,17,0,0,1,3,4,4,3,-2,-7,-9,-9,-9,-10,-12,-14,-17,-17,-15,-13,-13,-16,-20,-21,-22,-22,-24,-24,-25,-26,-27,-29,-30,-27,-21,-19]","[210,211,211,211,211,211,209,207,204,201,200,199,199,200,204,212,223,233,239,241,242,243,244,245,245,245,242,240,236,228,214,185,171,120,13,-83,-194,-291,-373,-426,-467,-491,-504,-513,-517,-518,-518,-515,-508,-494,-471,-445,-421,-398,-375,-339,-318,-312,-306,-300,-298,-295,-293,-293,-292,-291,-287,-275,-262,-250]","[0,0,0,0,0,0,0,0,0,0,0,0,0,0,0,0,0,0,0,0,0,0,0,0,0,0,0,0,0,0,0,0,0,0,0,0,0,0,0,0,0,0,0,0,0,0,0,0,0,0,0,0,0,0,0,0,0,0,0,0,0,0,0,0,0,0,0,0,0,0]","[0,0,0,0,0,0,0,0,0,0,0,0,0,0,0,0,0,0,0,0,0,0,0,0,0,0,0,0,0,0,0,0,0,0,0,0,0,0,0,0,0,0,0,0,0,0,0,0,0,0,0,0,0,0,0,0,0,0,0,0,0,0,0,0,0,0,0,0,0,0]","[0,0,0,0,0,0,0,0,0,0,0,0,0,0,0,0,0,0,0,0,0,0,0,0,0,0,0,0,0,0,0,0,0,0,0,0,0,0,0,0,0,0,0,0,0,0,0,0,0,0,0,0,0,0,0,0,0,0,0,0,0,0,0,0,0,0,0,0,0,0]","[0.000199999999253464,0.016899999998500448,0.031899999998501016,0.04939999999849931,0.0652999999970092,0.08229999999701931,0.09959999999776414,0.11529999999700635,0.1328999999985001,0.14979999999701477,0.1651999999992455,0.1832999999970184,0.2014999999999958,0.21489999999850795,0.23359999999776448,0.2486999999992463,0.2648999999985051,0.28179999999701977,0.2988999999984969,0.31509999999775573,0.33289999999850295,0.34859999999775937,0.3661999999992531,0.38219999999924426,0.3984999999999985,0.4152999999970177,0.4323999999985091,0.44949999999998624,0.4647999999970125,0.48189999999850386,0.5,0.5164999999999935,0.5320999999977545,0.5487999999970157,0.5665999999977629,0.5832999999970099,0.5982999999970104,0.6147999999970182,0.6317999999970141,0.6488999999985055,0.6654999999999944,0.6818999999985067,0.6984999999999957,0.7152999999970149,0.7321999999992528,0.7496999999992511,0.765299999997012,0.7819999999999965,0.7986999999992435,0.8150999999977557,0.8334999999999866,0.8488999999985083,0.8655999999977553,0.8828999999985001,0.8988999999985055,0.9165999999977572,0.9332999999970184,0.9484999999999957,0.9649999999999892,0.9820999999977573,0.998599999997765,1.0153999999985075,1.031899999998501,1.0498999999985017,1.066999999999993,1.081799999997017,1.0985999999977594,1.1156999999992507,1.1315999999977606,1.148399999998503]",,5,0,5,0,1,,,,
,,,,,,,,,,,,,,, PAV-0016,2022-11-03_14h26.25.925,GoFitts,2022.1.4,Win32,59.76214666,,,,,"[-24.82551002606788,-236.1989501499649]","[-24.825510026067665,236.19895014996493]",40.5,475,0,"[-19,-19,-19,-19,-20,-19,-18,-18,-18,-19,-19,-20,-21,-21,-23,-24,-25,-25,-26,-26,-26,-26,-26,-23,-20,-17,-17,-25,-34,-38,-35,-32,-33,-36,-46,-54,-61,-62,-62,-63,-63,-63,-64,-66,-66,-60,-52,-44,-33,-29,-26,-20,-17,-16,-16,-16,-16,-16,-16,-21,-30,-43]","[-250,-241,-237,-233,-228,-224,-221,-219,-218,-218,-218,-218,-218,-218,-219,-221,-223,-225,-226,-227,-227,-227,-226,-220,-209,-176,-134,-66,26,121,201,259,311,343,365,374,377,377,377,377,374,368,361,354,346,338,328,318,303,297,294,285,282,281,281,281,281,281,281,274,263,245]","[0,0,0,0,0,0,0,0,0,0,0,0,0,0,0,0,0,0,0,0,0,0,0,0,0,0,0,0,0,0,0,0,0,0,0,0,0,0,0,0,0,0,0,0,0,0,0,0,0,0,0,0,0,0,0,0,0,0,0,0,0,0]","[0,0,0,0,0,0,0,0,0,0,0,0,0,0,0,0,0,0,0,0,0,0,0,0,0,0,0,0,0,0,0,0,0,0,0,0,0,0,0,0,0,0,0,0,0,0,0,0,0,0,0,0,0,0,0,0,0,0,0,0,0,0]","[0,0,0,0,0,0,0,0,0,0,0,0,0,0,0,0,0,0,0,0,0,0,0,0,0,0,0,0,0,0,0,0,0,0,0,0,0,0,0,0,0,0,0,0,0,0,0,0,0,0,0,0,0,0,0,0,0,0,0,0,0,0]","[0.000199999999253464,0.018599999997761074,0.034699999999247666,0.05109999999775994,0.06630000000073721,0.08319999999925187,0.10089999999850363,0.11680000000073676,0.1328000000007421,0.1500999999977637,0.16769999999925744,0.18330000000074165,0.20059999999776323,0.2176999999992546,0.2333000000007388,0.24959999999775562,0.2661999999992446,0.2828999999985058,0.30059999999775755,0.3178999999985024,0.3345999999977636,0.34989999999851307,0.36789999999849954,0.3833000000007445,0.4006999999992473,0.41749999999998977,0.4348999999985068,0.45139999999850033,0.46659999999775437,0.48430000000072937,0.501499999999993,0.5159999999999911,0.5331999999992547,0.5498999999985017,0.5666999999992584,0.5838999999985077,0.6008000000007456,0.6183000000007581,0.6348000000007659,0.6515000000000128,0.666399999998518,0.6843000000007606,0.6993999999985334,0.7173000000007477,0.7343000000007436,0.7506999999992701,0.7678999999985336,0.784300000000755,0.8010999999977884,0.8179999999999978,0.8346999999992732,0.8681999999992769,0.8833000000007445,0.8998999999985102,0.916399999998518,0.9333000000007559,0.9498999999985216,0.9665000000000106,0.9830999999977763,1.0000999999977722,1.0163999999985123,1.03289999999852]",,6,0,6,0,1,,,,
,,,,,,,,,,,,,,, PAV-0016,2022-11-03_14h26.25.925,GoFitts,2022.1.4,Win32,59.76214666,,,,,"[-24.825510026067665,236.19895014996493]","[73.39153616404997,-225.875922620099]",40.5,475,0,"[-43,-48,-48,-48,-48,-48,-48,-48,-48,-46,-44,-39,-35,-30,-27,-25,-25,-25,-25,-25,-25,-25,-25,-25,-26,-27,-27,-27,-27,-23,-13,7,30,51,61,66,72,73,73,73,73,73,72,69,65,63,62,72,76,81,85,86,86,86,85,85,85,85,85,85,85,85,85,84,83,81,80,80]","[245,234,230,226,223,221,221,221,221,223,225,228,231,234,238,240,242,243,243,243,243,243,243,243,243,241,240,238,233,223,205,174,129,81,45,21,-25,-75,-100,-119,-131,-139,-149,-160,-174,-182,-188,-201,-203,-205,-206,-206,-206,-206,-207,-208,-208,-209,-209,-207,-206,-206,-205,-205,-205,-205,-206,-207]","[0,0,0,0,0,0,0,0,0,0,0,0,0,0,0,0,0,0,0,0,0,0,0,0,0,0,0,0,0,0,0,0,0,0,0,0,0,0,0,0,0,0,0,0,0,0,0,0,0,0,0,0,0,0,0,0,0,0,0,0,0,0,0,0,0,0,0,0]","[0,0,0,0,0,0,0,0,0,0,0,0,0,0,0,0,0,0,0,0,0,0,0,0,0,0,0,0,0,0,0,0,0,0,0,0,0,0,0,0,0,0,0,0,0,0,0,0,0,0,0,0,0,0,0,0,0,0,0,0,0,0,0,0,0,0,0,0]","[0,0,0,0,0,0,0,0,0,0,0,0,0,0,0,0,0,0,0,0,0,0,0,0,0,0,0,0,0,0,0,0,0,0,0,0,0,0,0,0,0,0,0,0,0,0,0,0,0,0,0,0,0,0,0,0,0,0,0,0,0,0,0,0,0,0,0,0]","[0.0003000000007205017,0.01820000000296318,0.033499999999975216,0.049800000000743694,0.06699999999997885,0.08390000000221676,0.10130000000071959,0.11690000000223222,0.13330000000073028,0.15149999999999864,0.1672000000029641,0.18449999999998568,0.20190000000221175,0.2166000000014776,0.23360000000147352,0.2516000000014742,0.2672000000029584,0.28490000000221016,0.30120000000297864,0.3167000000029816,0.3333000000007189,0.35010000000147556,0.3669000000022322,0.38299999999998136,0.40040000000223586,0.4167000000029759,0.43360000000149057,0.44980000000072096,0.46699999999998454,0.4849999999999852,0.5019999999999811,0.5186000000014701,0.5354000000022268,0.5513000000007366,0.5679000000022256,0.5829999999999984,0.5997000000029686,0.6169999999999902,0.633499999999998,0.6514000000022122,0.6686000000014758,0.6836000000014906,0.7011000000014747,0.7171000000014658,0.7337000000029548,0.7501000000014812,0.7669000000022095,0.7846000000014897,0.8001000000014642,0.8168000000007396,0.8338000000007355,0.8509000000022127,0.8666000000014833,0.8837000000029605,0.9007000000029564,0.9168000000007339,0.9334999999999809,0.9507000000029677,0.9667000000029589,0.9834999999999923,0.9997000000029743,1.0167000000029702,1.0336000000014849,1.051499999999976,1.0672000000029698,1.0838000000007355,1.1001000000014756,1.1169999999999902]",,7,0,7,0,1,,,,
,,,,,,,,,,,,,,, PAV-0016,2022-11-03_14h26.25.925,GoFitts,2022.1.4,Win32,59.76214666,,,,,"[73.39153616404997,-225.875922620099]","[-118.74999999999994,205.6810333988042]",40.5,475,0,"[80,79,78,78,78,78,78,78,78,78,78,78,78,78,78,78,78,78,73,59,23,-18,-51,-85,-117,-149,-168,-174,-177,-181,-182,-182,-183,-184,-186,-186,-187,-187,-183,-179,-172,-168,-159,-151,-146,-143,-142,-142,-142,-142,-139,-133,-129,-128,-125,-124,-125,-127]","[-207,-207,-208,-209,-209,-209,-209,-209,-209,-209,-209,-209,-209,-209,-209,-209,-209,-209,-199,-183,-149,-99,-38,51,154,267,355,404,432,454,460,460,460,460,459,452,442,429,414,402,382,374,354,342,334,332,331,331,331,327,321,308,299,295,276,259,238,218]","[0,0,0,0,0,0,0,0,0,0,0,0,0,0,0,0,0,0,0,0,0,0,0,0,0,0,0,0,0,0,0,0,0,0,0,0,0,0,0,0,0,0,0,0,0,0,0,0,0,0,0,0,0,0,0,0,0,0]","[0,0,0,0,0,0,0,0,0,0,0,0,0,0,0,0,0,0,0,0,0,0,0,0,0,0,0,0,0,0,0,0,0,0,0,0,0,0,0,0,0,0,0,0,0,0,0,0,0,0,0,0,0,0,0,0,0,0]","[0,0,0,0,0,0,0,0,0,0,0,0,0,0,0,0,0,0,0,0,0,0,0,0,0,0,0,0,0,0,0,0,0,0,0,0,0,0,0,0,0,0,0,0,0,0,0,0,0,0,0,0,0,0,0,0,0,0]","[0.0006999999992558514,0.017099999997753912,0.033999999999991815,0.05069999999926722,0.0668999999984976,0.08419999999924244,0.09899999999998954,0.1158999999985042,0.13369999999926563,0.15069999999926154,0.1656999999992479,0.18239999999849488,0.19900000000001228,0.21569999999925926,0.23259999999777392,0.24909999999775323,0.26579999999702864,0.28249999999999886,0.2990999999977646,0.31559999999777233,0.3329999999999984,0.35079999999700817,0.3669999999999902,0.38269999999926085,0.3994999999999891,0.4167999999970107,0.43250000000000455,0.44919999999925153,0.4660999999977662,0.4827999999970132,0.5004999999999882,0.5171999999992636,0.5326999999992665,0.5496999999992624,0.5666999999992584,0.5825999999977682,0.600199999999262,0.616899999998509,0.6323999999985119,0.6492999999970266,0.6670000000000016,0.6822999999970136,0.6992999999970095,0.716799999997022,0.7324999999999875,0.750099999997758,0.7658999999985099,0.7824999999999989,0.7988999999984969,0.8158999999985213,0.8337999999970123,0.8510999999977571,0.865399999998516,0.8823999999985119,0.9000999999977637,0.9155999999977666,0.9335000000000093,0.9488999999985026]",,8,0,8,0,1,,,,
,,,,,,,,,,,,,,, PAV-0016,2022-11-03_14h26.25.925,GoFitts,2022.1.4,Win32,59.76214666,,,,,"[-118.74999999999994,205.6810333988042]","[158.9185190102289,-176.49689605088108]",40.5,475,0,"[-127,-127,-127,-127,-127,-127,-127,-126,-126,-126,-126,-124,-122,-121,-119,-119,-118,-118,-118,-118,-118,-117,-116,-113,-104,-87,-66,-27,66,149,187,254,267,270,270,270,270,270,270,270,270,270,270,270,270,270,264,243,227,223,222,222,225,227,228,228,228,230,230,230,229,220,209,198,190,188,185,175]","[218,207,203,203,203,203,203,208,208,209,210,210,211,212,213,214,214,214,214,214,213,210,208,202,192,175,152,113,31,-34,-60,-137,-174,-190,-201,-201,-201,-201,-201,-201,-201,-201,-201,-201,-201,-201,-198,-183,-176,-173,-172,-172,-172,-174,-176,-181,-188,-192,-195,-196,-197,-197,-197,-197,-196,-194,-189,-173]","[0,0,0,0,0,0,0,0,0,0,0,0,0,0,0,0,0,0,0,0,0,0,0,0,0,0,0,0,0,0,0,0,0,0,0,0,0,0,0,0,0,0,0,0,0,0,0,0,0,0,0,0,0,0,0,0,0,0,0,0,0,0,0,0,0,0,0,0]","[0,0,0,0,0,0,0,0,0,0,0,0,0,0,0,0,0,0,0,0,0,0,0,0,0,0,0,0,0,0,0,0,0,0,0,0,0,0,0,0,0,0,0,0,0,0,0,0,0,0,0,0,0,0,0,0,0,0,0,0,0,0,0,0,0,0,0,0]","[0,0,0,0,0,0,0,0,0,0,0,0,0,0,0,0,0,0,0,0,0,0,0,0,0,0,0,0,0,0,0,0,0,0,0,0,0,0,0,0,0,0,0,0,0,0,0,0,0,0,0,0,0,0,0,0,0,0,0,0,0,0,0,0,0,0,0,0]","[0.0004999999999881766,0.017799999997009763,0.03359999999776164,0.05019999999925062,0.06679999999701636,0.08359999999774459,0.09989999999848465,0.117999999999995,0.13309999999773936,0.15059999999775187,0.16679999999701067,0.1834999999999809,0.2002999999970143,0.21709999999774254,0.23379999999701795,0.25149999999999295,0.26689999999848624,0.28469999999924767,0.3017999999970016,0.31799999999998363,0.3335999999977446,0.3499999999999943,0.3676999999992461,0.3836999999992372,0.399899999998496,0.41779999999701545,0.4332999999970184,0.45139999999850033,0.46839999999849624,0.4846999999992363,0.5001999999992393,0.5180999999977587,0.5350999999977546,0.549999999999983,0.5681999999992513,0.5848999999984983,0.5998999999984846,0.6181999999992343,0.6348999999985097,0.6501999999992449,0.6667999999970107,0.6835999999977389,0.7000999999977466,0.7167999999969936,0.7335999999977503,0.7501999999992393,0.766799999997005,0.7850999999977546,0.8004999999999995,0.8183999999984906,0.8350999999977375,0.8498999999984846,0.8671999999992295,0.8837999999969952,0.9014999999999986,0.9181999999992456,0.9334999999999809,0.9513999999985003,0.9665999999977544,0.9834999999999923,1.0002999999969973,1.0172999999969932,1.033699999999243,1.0503999999984899,1.0670999999977369,1.0836999999992543,1.1011999999992383,1.1163999999984924]",,9,0,9,0,1,,,,
,,,,,,,,,,,,,,, PAV-0016,2022-11-03_14h26.25.925,GoFitts,2022.1.4,Win32,59.76214666,,,,,"[158.9185190102289,-176.49689605088108]","[-192.14153616405,139.5989974194624]",40.5,475,0,"[175,171,167,165,165,165,166,168,168,168,168,168,167,167,167,167,167,167,167,167,167,167,167,158,129,42,-94,-224,-316,-390,-443,-465,-470,-470,-467,-462,-458,-456,-451,-439,-414,-379,-343,-318,-298,-284,-273,-270,-269,-269,-269,-263,-259,-254,-254,-254,-252,-239,-223,-216,-187]","[-173,-166,-162,-159,-158,-158,-157,-157,-157,-157,-157,-156,-158,-159,-159,-159,-159,-160,-160,-160,-160,-160,-157,-145,-122,-61,37,133,197,248,289,310,317,319,319,319,319,319,319,316,307,291,274,262,253,246,240,237,234,231,227,220,216,213,213,213,206,180,158,150,128]","[0,0,0,0,0,0,0,0,0,0,0,0,0,0,0,0,0,0,0,0,0,0,0,0,0,0,0,0,0,0,0,0,0,0,0,0,0,0,0,0,0,0,0,0,0,0,0,0,0,0,0,0,0,0,0,0,0,0,0,0,0]","[0,0,0,0,0,0,0,0,0,0,0,0,0,0,0,0,0,0,0,0,0,0,0,0,0,0,0,0,0,0,0,0,0,0,0,0,0,0,0,0,0,0,0,0,0,0,0,0,0,0,0,0,0,0,0,0,0,0,0,0,0]","[0,0,0,0,0,0,0,0,0,0,0,0,0,0,0,0,0,0,0,0,0,0,0,0,0,0,0,0,0,0,0,0,0,0,0,0,0,0,0,0,0,0,0,0,0,0,0,0,0,0,0,0,0,0,0,0,0,0,0,0,0]","[0.0003000000007489234,0.019100000001486706,0.03530000000074551,0.05180000000072482,0.06669999999925835,0.08360000000146783,0.10160000000146852,0.11690000000223222,0.13450000000000273,0.15030000000072619,0.16680000000073392,0.18369999999924858,0.20130000000074233,0.2179999999999893,0.23449999999999704,0.25,0.26680000000072823,0.2836999999992429,0.30030000000073187,0.3166000000014719,0.3334999999999866,0.35010000000147556,0.36730000000073915,0.383100000001491,0.4011999999992497,0.41669999999925267,0.4329000000022347,0.4501000000014699,0.4684000000022195,0.4851000000014949,0.5,0.5179000000022143,0.5353000000007455,0.5501000000014926,0.5669000000022208,0.5836000000014678,0.6014999999999873,0.6169000000022322,0.6345000000000027,0.6519999999999868,0.6681000000014876,0.6838000000007298,0.7011999999992327,0.7171999999992522,0.7338000000007412,0.7506000000014694,0.7679000000022143,0.7839999999999918,0.8015000000000043,0.8183000000007326,0.8353000000007285,0.8501999999992336,0.8681000000014762,0.8839000000022281,0.9001999999992449,0.9169000000022152,0.9338000000007298,0.9516000000014913,0.9679999999999893,0.9831000000014853,1.0004000000022302]",,10,0,10,0,1,,,,
,,,,,,,,,,,,,,, PAV-0016,2022-11-03_14h26.25.925,GoFitts,2022.1.4,Win32,59.76214666,,,,,"[-192.14153616405,139.5989974194624]","[216.96704619011774,-96.59995273050254]",40.5,475,0,"[-187,-175,-173,-172,-172,-172,-169,-166,-164,-163,-163,-167,-169,-174,-183,-188,-191,-191,-191,-191,-191,-190,-190,-188,-187,-185,-184,-182,-179,-176,-172,-163,-142,-95,27,117,164,296,343,358,363,365,366,367,370,371,372,372,368,360,341,305,284,275,270,269,269,269,269,268,266,261,261,260,258,251,236,221]","[128,122,121,121,121,120,114,111,109,109,110,116,118,121,127,132,136,139,140,142,142,142,142,142,141,141,139,138,134,131,126,116,99,65,-16,-84,-121,-210,-242,-255,-261,-266,-267,-269,-269,-269,-269,-269,-267,-260,-244,-210,-186,-171,-161,-153,-146,-139,-129,-126,-122,-117,-116,-115,-114,-112,-110,-108]","[0,0,0,0,0,0,0,0,0,0,0,0,0,0,0,0,0,0,0,0,0,0,0,0,0,0,0,0,0,0,0,0,0,0,0,0,0,0,0,0,0,0,0,0,0,0,0,0,0,0,0,0,0,0,0,0,0,0,0,0,0,0,0,0,0,0,0,0]","[0,0,0,0,0,0,0,0,0,0,0,0,0,0,0,0,0,0,0,0,0,0,0,0,0,0,0,0,0,0,0,0,0,0,0,0,0,0,0,0,0,0,0,0,0,0,0,0,0,0,0,0,0,0,0,0,0,0,0,0,0,0,0,0,0,0,0,0]","[0,0,0,0,0,0,0,0,0,0,0,0,0,0,0,0,0,0,0,0,0,0,0,0,0,0,0,0,0,0,0,0,0,0,0,0,0,0,0,0,0,0,0,0,0,0,0,0,0,0,0,0,0,0,0,0,0,0,0,0,0,0,0,0,0,0,0,0]","[0.00019999999926767487,0.019000000000005457,0.034000000000020236,0.05089999999850647,0.06700000000000728,0.08289999999851716,0.09969999999927381,0.11619999999925312,0.13319999999924903,0.15069999999926154,0.16599999999999682,0.1823999999985233,0.20000000000001705,0.21600000000000819,0.23379999999701795,0.24889999999851398,0.26709999999778233,0.2825999999977853,0.2995999999977812,0.316899999998526,0.3340000000000032,0.34950000000000614,0.36579999999702295,0.38269999999926085,0.3991999999992686,0.41589999999851557,0.4328999999985115,0.4493999999985192,0.46629999999703386,0.48269999999925517,0.4996999999992511,0.5160999999977776,0.5331999999992547,0.550599999997786,0.56809999999777,0.5838999999985219,0.5996999999992738,0.6162999999970395,0.6330000000000098,0.6508999999985292,0.6673999999985085,0.6825000000000045,0.6995999999977585,0.7160999999977662,0.7340000000000089,0.7493999999985306,0.7672999999970216,0.7826999999992665,0.8006999999992672,0.817199999999275,0.8342999999970289,0.8506999999992502,0.8672999999970159,0.8823999999985119,0.9004999999999939,0.9160999999977832,0.9330000000000211,0.9510999999977798,0.9675000000000011,0.9827999999970416,0.9990999999977817,1.0158999999985099,1.0335999999977616,1.0496999999992624,1.06579999999704,1.0837999999970407,1.1007999999970366,1.115399999998516]",,11,0,11,0,1,,,,
,,,,,,,,,,,,,,, PAV-0016,2022-11-03_14h26.25.925,GoFitts,2022.1.4,Win32,59.76214666,,,,,"[216.96704619011774,-96.59995273050254]","[-232.31005517427886,49.379026569217835]",40.5,475,0,"[221,210,206,204,204,204,204,204,204,205,205,205,206,207,208,209,210,211,211,211,211,211,211,211,211,211,211,210,187,126,74,-150,-283,-398,-482,-526,-541,-543,-543,-543,-543,-543,-543,-538,-528,-508,-470,-405,-330,-287,-271,-268,-268,-269,-271,-271,-271,-271,-261,-248]","[-108,-106,-104,-103,-103,-102,-101,-100,-99,-98,-97,-97,-97,-97,-97,-95,-95,-95,-95,-95,-94,-94,-94,-94,-94,-94,-94,-94,-82,-61,-38,48,97,140,178,201,211,213,214,214,214,214,214,213,204,191,170,142,111,91,83,79,76,73,73,73,73,72,66,61]","[0,0,0,0,0,0,0,0,0,0,0,0,0,0,0,0,0,0,0,0,0,0,0,0,0,0,0,0,0,0,0,0,0,0,0,0,0,0,0,0,0,0,0,0,0,0,0,0,0,0,0,0,0,0,0,0,0,0,0,0]","[0,0,0,0,0,0,0,0,0,0,0,0,0,0,0,0,0,0,0,0,0,0,0,0,0,0,0,0,0,0,0,0,0,0,0,0,0,0,0,0,0,0,0,0,0,0,0,0,0,0,0,0,0,0,0,0,0,0,0,0]","[0,0,0,0,0,0,0,0,0,0,0,0,0,0,0,0,0,0,0,0,0,0,0,0,0,0,0,0,0,0,0,0,0,0,0,0,0,0,0,0,0,0,0,0,0,0,0,0,0,0,0,0,0,0,0,0,0,0,0,0]","[0.00019999999923925316,0.018300000000749606,0.03359999999776164,0.05009999999776937,0.06789999999850238,0.08589999999850306,0.1018999999984942,0.11699999999999022,0.13369999999926563,0.1503000000007546,0.16730000000075052,0.18350000000000932,0.20039999999849556,0.21730000000073346,0.23459999999775505,0.2513999999985117,0.2670999999977539,0.28389999999851057,0.30030000000073187,0.3168999999984976,0.3340000000000032,0.351300000000748,0.3669999999999902,0.3838000000007469,0.40049999999999386,0.4170000000000016,0.4335999999977673,0.4506999999992445,0.46789999999850806,0.4838000000007412,0.5004999999999882,0.5180000000000007,0.5338000000007526,0.5506999999992388,0.5666999999992584,0.5848999999984983,0.601300000000748,0.616800000000751,0.6338000000007469,0.6501999999992449,0.6670000000000016,0.6838000000007298,0.7003000000007376,0.7169999999999845,0.7338999999984992,0.7505999999977746,0.7683999999985076,0.7838999999985106,0.8006999999992388,0.8174999999999955,0.8340000000000032,0.8503999999985012,0.8669999999999902,0.883499999999998,0.9011999999992497,0.9168000000007339,0.9335999999977673,0.9503000000007376,0.9671999999992522,0.9836999999992599]",,12,0,12,0,1,,,,
,,,,,,,,,,,,,,, PAV-0016,2022-11-03_14h26.25.925,GoFitts,2022.1.4,Win32,59.76214666,,,,,"[-232.31005517427886,49.379026569217835]","[237.5,0]",40.5,475,0,"[-248,-239,-239,-239,-239,-239,-239,-233,-231,-231,-230,-230,-230,-230,-232,-232,-233,-233,-233,-233,-233,-232,-218,-184,-108,10,164,333,486,586,633,634,634,634,633,633,632,630,623,608,579,564,534,482,457,433,413,398,386,375,360,339,277,269,261,260,263,265,265,265,261,257]","[61,59,59,59,59,59,59,57,56,56,56,56,56,56,56,56,56,56,56,56,56,56,56,52,44,30,13,-3,-17,-29,-39,-40,-41,-41,-41,-42,-44,-45,-46,-46,-49,-49,-49,-46,-46,-45,-45,-45,-44,-42,-38,-30,-11,-9,-5,-4,-2,-2,-1,-1,2,3]","[0,0,0,0,0,0,0,0,0,0,0,0,0,0,0,0,0,0,0,0,0,0,0,0,0,0,0,0,0,0,0,0,0,0,0,0,0,0,0,0,0,0,0,0,0,0,0,0,0,0,0,0,0,0,0,0,0,0,0,0,0,0]","[0,0,0,0,0,0,0,0,0,0,0,0,0,0,0,0,0,0,0,0,0,0,0,0,0,0,0,0,0,0,0,0,0,0,0,0,0,0,0,0,0,0,0,0,0,0,0,0,0,0,0,0,0,0,0,0,0,0,0,0,0,0]","[0,0,0,0,0,0,0,0,0,0,0,0,0,0,0,0,0,0,0,0,0,0,0,0,0,0,0,0,0,0,0,0,0,0,0,0,0,0,0,0,0,0,0,0,0,0,0,0,0,0,0,0,0,0,0,0,0,0,0,0,0,0]","[0.0003000000007205017,0.018899999998495787,0.033199999999254715,0.04949999999999477,0.06619999999924175,0.08309999999775641,0.09949999999997772,0.11730000000073915,0.13309999999776778,0.1495999999977471,0.166499999999985,0.18309999999775073,0.2001999999992563,0.21759999999775914,0.2330999999977621,0.2494999999999834,0.26680000000072823,0.28299999999998704,0.29949999999999477,0.316300000000723,0.3329999999999984,0.34980000000072664,0.36739999999849715,0.38319999999924903,0.399899999998496,0.416599999997743,0.4340999999977555,0.4493999999984908,0.4663000000007287,0.483399999998511,0.501199999999244,0.5165999999977657,0.533099999997745,0.549699999999234,0.5663999999985094,0.5833999999985053,0.5998000000007266,0.61659999999776,0.6339999999999861,0.6499999999999773,0.6674999999999898,0.6825999999977626,0.6993999999984908,0.7175999999977591,0.7326999999992552,0.7505999999977462,0.7659999999999911,0.7831999999992547,0.7998999999985017,0.816300000000723,0.8343000000007237,0.8498000000007266,0.8673000000007391,0.8829999999999814,0.899899999998496,0.9178000000007387,0.9341999999992368,0.9493000000007328,0.9666999999992356,0.9846999999992363,1.0009999999999764,1.0173999999985028]",,13,0,13,0,1,,,,
,,,,,,,,,,,,,,, PAV-0016,2022-11-03_14h26.25.925,GoFitts,2022.1.4,Win32,59.76214666,,,,,"[237.5,0]","[-232.31005517427886,-49.37902656921778]",40.5,475,0,"[257,255,255,255,255,255,252,247,243,241,241,241,241,243,244,244,244,244,244,244,244,244,232,204,138,46,-61,-169,-251,-308,-347,-363,-380,-395,-409,-422,-430,-432,-432,-428,-412,-389,-323,-265,-217,-189,-183,-182,-189,-196,-199,-200,-201,-203,-207,-211,-213,-214]","[3,3,3,3,3,3,3,2,0,0,0,-1,-1,-1,-1,-1,-1,-1,-1,-1,-1,0,1,1,2,2,-1,-3,-4,-4,-4,-7,-12,-16,-20,-25,-28,-31,-33,-37,-43,-49,-61,-69,-73,-74,-74,-73,-67,-64,-62,-61,-61,-61,-60,-59,-59,-58]","[0,0,0,0,0,0,0,0,0,0,0,0,0,0,0,0,0,0,0,0,0,0,0,0,0,0,0,0,0,0,0,0,0,0,0,0,0,0,0,0,0,0,0,0,0,0,0,0,0,0,0,0,0,0,0,0,0,0]","[0,0,0,0,0,0,0,0,0,0,0,0,0,0,0,0,0,0,0,0,0,0,0,0,0,0,0,0,0,0,0,0,0,0,0,0,0,0,0,0,0,0,0,0,0,0,0,0,0,0,0,0,0,0,0,0,0,0]","[0,0,0,0,0,0,0,0,0,0,0,0,0,0,0,0,0,0,0,0,0,0,0,0,0,0,0,0,0,0,0,0,0,0,0,0,0,0,0,0,0,0,0,0,0,0,0,0,0,0,0,0,0,0,0,0,0,0]","[0.0002000000029909188,0.01700000000002433,0.03190000000225268,0.048600000001499666,0.0667000000029816,0.0821000000015033,0.09880000000075029,0.11640000000224404,0.132000000000005,0.14970000000298,0.16570000000299956,0.1823000000007653,0.19860000000150535,0.21540000000223358,0.2324000000022579,0.2486000000014883,0.26540000000224495,0.281800000000743,0.2985000000000184,0.31530000000074665,0.33220000000298455,0.3491000000014992,0.365300000000758,0.3836000000015076,0.3989000000022429,0.4156000000014899,0.43240000000224654,0.4490000000000123,0.4657000000029825,0.482100000001509,0.49970000000300274,0.5149000000022568,0.5330000000000155,0.5488000000007673,0.5657000000030052,0.5821000000015033,0.599000000000018,0.6155000000000257,0.6317000000029793,0.6488000000007617,0.6654000000022506,0.6825000000000045,0.700000000000017,0.7154000000022336,0.7335000000000207,0.7503000000007489,0.7657000000029939,0.7823000000007596,0.7982000000029927,0.8164000000022327,0.8322000000029846,0.8492000000029805,0.866800000000751,0.881900000002247,0.8987000000030037,0.9167000000030043,0.9333000000007701,0.9487000000029866]",,14,0,14,0,1,,,,
,,,,,,,,,,,,,,, PAV-0016,2022-11-03_14h26.25.925,GoFitts,2022.1.4,Win32,59.76214666,,,,,,,,,0,,,,,,,,,,,,,0,0,0,1
,,,,,,,,,,,,,,, PAV-0016,2022-11-03_14h26.25.925,GoFitts,2022.1.4,Win32,59.76214666,,,return,2.0746,"[125,15]","[350,0]",20,700,1,"[125,125,125,125,125,125,125,125,125,125,125,125,125,125,125,125,125,125,125,125,125,125,125,125,125,125,125,125,125,125,125,125,125,125,125,125,125,125,125,152,234,315,353,369,386,403,413,418,418,418,418,426,432,433,422,405,396,386,368,347]","[15,15,15,15,15,15,15,15,15,15,15,15,15,15,15,15,15,15,15,15,15,15,15,15,15,15,15,15,15,15,15,15,15,15,15,15,15,15,15,7,-39,-89,-122,-145,-167,-184,-187,-187,-187,-187,-187,-182,-173,-156,-132,-97,-74,-50,-19,7]","[0,0,0,0,0,0,0,0,0,0,0,0,0,0,0,0,0,0,0,0,0,0,0,0,0,0,0,0,0,0,0,0,0,0,0,0,0,0,0,0,0,0,0,0,0,0,0,0,0,0,0,0,0,0,0,0,0,0,0,0]","[0,0,0,0,0,0,0,0,0,0,0,0,0,0,0,0,0,0,0,0,0,0,0,0,0,0,0,0,0,0,0,0,0,0,0,0,0,0,0,0,0,0,0,0,0,0,0,0,0,0,0,0,0,0,0,0,0,0,0,0]","[0,0,0,0,0,0,0,0,0,0,0,0,0,0,0,0,0,0,0,0,0,0,0,0,0,0,0,0,0,0,0,0,0,0,0,0,0,0,0,0,0,0,0,0,0,0,0,0,0,0,0,0,0,0,0,0,0,0,0,0]","[0.0016000000015026217,0.017500000000012506,0.03270000000298978,0.04920000000299751,0.06660000000150035,0.08320000000298933,0.09980000000075506,0.1163000000007628,0.13300000000000978,0.1495000000000175,0.16630000000074574,0.18280000000075347,0.19970000000299137,0.2163000000007571,0.23330000000075302,0.24960000000149307,0.2675000000000125,0.28330000000073596,0.2997000000029857,0.31660000000150035,0.3329999999999984,0.34950000000000614,0.3663000000007628,0.3829000000022518,0.39970000000298,0.4165000000000134,0.4331000000015024,0.4496000000014817,0.46649999999999636,0.48310000000148534,0.49980000000076075,0.516600000001489,0.5331000000014967,0.5494999999999948,0.5664000000022327,0.5833000000007473,0.5996000000014874,0.6162000000029764,0.6332000000029723,0.6496000000014988,0.6678000000007387,0.6833000000007416,0.700000000000017,0.7174000000022431,0.7330000000000041,0.75,0.7671000000015056,0.7847000000029993,0.8015000000000043,0.8163000000007514,0.8328000000007592,0.8499000000022363,0.8662000000029764,0.8843000000007635,0.9000000000000057,0.9168000000007623,0.9327000000029955,0.9498000000007494,0.9667000000029873,0.983300000000753]",,0,0,0,0,1,,,,
,,,,,,,,,,,,,,, PAV-0016,2022-11-03_14h26.25.925,GoFitts,2022.1.4,Win32,59.76214666,,,,,"[350,0]","[-342.351660256832,-72.76909178621567]",20,700,1,"[347,323,312,303,300,300,303,309,315,316,316,316,316,321,332,334,337,338,338,339,341,344,349,352,352,352,353,353,353,353,353,353,353,353,353,353,353,353,353,353,353,346,333,301,228,66,-137,-352,-630,-696,-775,-852,-877,-896,-911,-919,-920,-920,-916,-904,-879,-827,-728,-698,-624,-592,-570,-553,-549,-549,-549,-549,-545,-532,-505,-501,-496,-496,-493,-479,-452,-411,-377,-366,-363,-366,-367,-367,-364,-354,-349,-348,-349,-353,-354,-354,-354,-352,-349,-349,-349,-349,-349,-349,-349,-349,-349,-349,-349]","[7,30,38,41,41,41,41,41,35,31,30,28,25,20,13,12,10,10,10,8,6,2,-4,-6,-6,-6,-5,-5,-5,-5,-5,-5,-5,-4,-4,-4,-4,-4,-4,-4,-3,-1,0,0,0,0,-8,-35,-84,-94,-105,-112,-113,-113,-111,-109,-108,-107,-107,-107,-107,-107,-107,-109,-116,-121,-123,-124,-124,-124,-124,-124,-124,-121,-115,-113,-111,-110,-108,-100,-93,-86,-85,-84,-84,-82,-81,-80,-82,-82,-83,-83,-83,-83,-83,-83,-83,-83,-83,-83,-82,-81,-81,-81,-81,-81,-81,-81,-80]","[0,0,0,0,0,0,0,0,0,0,0,0,0,0,0,0,0,0,0,0,0,0,0,0,0,0,0,0,0,0,0,0,0,0,0,0,0,0,0,0,0,0,0,0,0,0,0,0,0,0,0,0,0,0,0,0,0,0,0,0,0,0,0,0,0,0,0,0,0,0,0,0,0,0,0,0,0,0,0,0,0,0,0,0,0,0,0,0,0,0,0,0,0,0,0,0,0,0,0,0,0,0,0,0,0,0,0,0,0]","[0,0,0,0,0,0,0,0,0,0,0,0,0,0,0,0,0,0,0,0,0,0,0,0,0,0,0,0,0,0,0,0,0,0,0,0,0,0,0,0,0,0,0,0,0,0,0,0,0,0,0,0,0,0,0,0,0,0,0,0,0,0,0,0,0,0,0,0,0,0,0,0,0,0,0,0,0,0,0,0,0,0,0,0,0,0,0,0,0,0,0,0,0,0,0,0,0,0,0,0,0,0,0,0,0,0,0,0,0]","[0,0,0,0,0,0,0,0,0,0,0,0,0,0,0,0,0,0,0,0,0,0,0,0,0,0,0,0,0,0,0,0,0,0,0,0,0,0,0,0,0,0,0,0,0,0,0,0,0,0,0,0,0,0,0,0,0,0,0,0,0,0,0,0,0,0,0,0,0,0,0,0,0,0,0,0,0,0,0,0,0,0,0,0,0,0,0,0,0,0,0,0,0,0,0,0,0,0,0,0,0,0,0,0,0,0,0,0,0]","[0.00040000000223017196,0.0174000000022545,0.034000000000020236,0.04919999999927427,0.06610000000151217,0.08260000000149148,0.09940000000224813,0.11650000000000205,0.13369999999926563,0.14940000000223108,0.16599999999999682,0.183699999999277,0.1988000000007446,0.21610000000148943,0.2335000000000207,0.24940000000225382,0.26630000000074006,0.2839000000022338,0.30080000000074847,0.3163000000007514,0.3326000000014915,0.3505000000000109,0.36590000000225587,0.38369999999926563,0.39930000000074983,0.41580000000075756,0.433699999999277,0.4490000000000123,0.46700000000001296,0.48269999999925517,0.4991999999992629,0.5158000000007519,0.5326000000015085,0.5494000000022368,0.5659000000022445,0.5838000000007639,0.5993000000007669,0.6160000000000139,0.6336999999992656,0.6493000000007498,0.6659999999999968,0.6826000000014858,0.6994000000022425,0.716900000002255,0.7323000000007482,0.7506999999992559,0.7674000000022545,0.7826000000015085,0.8004000000022415,0.8156999999992536,0.8326999999992779,0.850199999999262,0.8675000000000068,0.881900000002247,0.8990000000000009,0.9175000000000182,0.9331999999992604,0.9506000000014865,0.9676000000015108,0.9828000000007648,0.9996000000014931,1.0161000000015008,1.0340000000000202,1.0491000000014878,1.0660000000000025,1.0829999999999984,1.100199999999262,1.117199999999258,1.132300000000754,1.1501999999992734,1.1658000000007576,1.1824000000022465,1.1996999999992681,1.216699999999264,1.233600000001502,1.249199999999263,1.2660000000000196,1.2838000000007526,1.2996999999992624,1.3156000000014956,1.3321999999992613,1.3503000000007432,1.3659000000022559,1.3838000000007469,1.3999000000022477,1.4170000000000016,1.4328000000007535,1.4505000000000052,1.4654000000022336,1.482400000002258,1.4993000000007441,1.5174000000022545,1.5326999999992665,1.5493000000007555,1.5661999999992702,1.5826000000014915,1.5991999999992572,1.6161999999992531,1.6336999999992656,1.6505000000000223,1.6655000000000086,1.6828000000007535,1.6993000000007612,1.7159000000022502,1.7326000000014972,1.7493000000007441,1.7661000000015008,1.7826000000015085,1.7996000000015044]",,1,0,1,0,1,,,,
,,,,,,,,,,,,,,, PAV-0016,2022-11-03_14h26.25.925,GoFitts,2022.1.4,Win32,59.76214666,,,,,"[-342.351660256832,-72.76909178621567]","[319.7409101749103,142.35782507653005]",20,700,1,"[-349,-349,-349,-349,-349,-349,-349,-349,-349,-349,-349,-349,-349,-349,-349,-349,-349,-345,-329,-281,-164,26,248,441,589,673,696,701,701,701,701,701,701,701,701,699,695,685,665,593,531,474,432,408,396,393,393,393,393,393,389,386,386,388,390,390,387,369,347,331,321,312,309,305,305,305,305,309,315]","[-80,-80,-80,-79,-78,-78,-78,-78,-78,-78,-78,-78,-78,-78,-78,-78,-78,-77,-73,-64,-46,-13,31,78,117,139,149,152,154,155,155,156,156,156,156,156,156,155,151,145,139,132,131,130,130,130,130,130,130,130,130,129,129,128,128,129,131,132,132,132,132,132,133,133,134,134,134,136,136]","[0,0,0,0,0,0,0,0,0,0,0,0,0,0,0,0,0,0,0,0,0,0,0,0,0,0,0,0,0,0,0,0,0,0,0,0,0,0,0,0,0,0,0,0,0,0,0,0,0,0,0,0,0,0,0,0,0,0,0,0,0,0,0,0,0,0,0,0,0]","[0,0,0,0,0,0,0,0,0,0,0,0,0,0,0,0,0,0,0,0,0,0,0,0,0,0,0,0,0,0,0,0,0,0,0,0,0,0,0,0,0,0,0,0,0,0,0,0,0,0,0,0,0,0,0,0,0,0,0,0,0,0,0,0,0,0,0,0,0]","[0,0,0,0,0,0,0,0,0,0,0,0,0,0,0,0,0,0,0,0,0,0,0,0,0,0,0,0,0,0,0,0,0,0,0,0,0,0,0,0,0,0,0,0,0,0,0,0,0,0,0,0,0,0,0,0,0,0,0,0,0,0,0,0,0,0,0,0,0]","[0.0006999999992558514,0.017099999997753912,0.03259999999775687,0.04949999999999477,0.06699999999997885,0.08269999999924948,0.09939999999849647,0.11599999999998545,0.1328999999985001,0.14949999999998909,0.16589999999848715,0.1826999999992438,0.19959999999775846,0.2160999999977662,0.23269999999925517,0.2494999999999834,0.26599999999999113,0.2828999999985058,0.3007999999969968,0.3164999999999907,0.33429999999700044,0.3505999999977689,0.3656999999992365,0.3825999999977512,0.40029999999700294,0.4160999999977548,0.4327999999970018,0.44959999999775846,0.4671999999992522,0.4830000000000041,0.49939999999850215,0.5163999999984981,0.5324999999999989,0.5492999999970039,0.5660000000000025,0.5830999999977564,0.5994999999999777,0.6161999999992531,0.6328999999985001,0.650999999999982,0.6662999999970225,0.6825999999977626,0.6993999999984908,0.7162999999970054,0.7325999999977455,0.7502999999969973,0.7674999999999841,0.7840999999977498,0.7990999999977646,0.8158999999984928,0.8329999999999984,0.8495999999977641,0.8658999999985042,0.8828999999985001,0.8993999999985078,0.9163999999985037,0.9334999999999809,0.9503999999984956,0.9663999999984867,0.9830000000000041,0.9991999999992345,1.0171999999992352,1.0328999999985058,1.0504999999999995,1.0658999999984928,1.0835999999977446,1.0993999999984965,1.1161999999992531,1.1325999999977512]",,2,0,2,0,1,,,,
,,,,,,,,,,,,,,, PAV-0016,2022-11-03_14h26.25.925,GoFitts,2022.1.4,Win32,59.76214666,,,,,"[319.7409101749103,142.35782507653005]","[-283.1559480312316,-205.72483830236555]",20,700,1,"[315,317,319,321,321,323,324,324,324,324,324,324,324,324,324,324,324,324,324,324,324,322,309,286,234,154,34,-117,-262,-404,-437,-488,-503,-511,-514,-515,-516,-517,-517,-512,-501,-495,-486,-468,-460,-456,-455,-454,-452,-449,-445,-441,-440,-437,-428,-409,-353,-289,-259,-199,-185,-184,-190,-198,-208,-214,-221,-224,-227,-235,-242,-253,-259,-263,-265,-265,-266,-269,-274,-277,-277]","[136,136,137,138,138,139,139,139,139,140,140,140,140,140,140,140,140,140,140,140,140,140,135,121,86,15,-100,-242,-367,-495,-525,-539,-539,-539,-539,-539,-538,-535,-530,-522,-504,-495,-477,-433,-411,-397,-390,-383,-380,-376,-372,-369,-368,-366,-363,-357,-342,-326,-316,-294,-286,-281,-275,-269,-260,-253,-244,-240,-236,-232,-228,-224,-222,-221,-220,-219,-219,-217,-215,-214,-213]","[0,0,0,0,0,0,0,0,0,0,0,0,0,0,0,0,0,0,0,0,0,0,0,0,0,0,0,0,0,0,0,0,0,0,0,0,0,0,0,0,0,0,0,0,0,0,0,0,0,0,0,0,0,0,0,0,0,0,0,0,0,0,0,0,0,0,0,0,0,0,0,0,0,0,0,0,0,0,0,0,0]","[0,0,0,0,0,0,0,0,0,0,0,0,0,0,0,0,0,0,0,0,0,0,0,0,0,0,0,0,0,0,0,0,0,0,0,0,0,0,0,0,0,0,0,0,0,0,0,0,0,0,0,0,0,0,0,0,0,0,0,0,0,0,0,0,0,0,0,0,0,0,0,0,0,0,0,0,0,0,0,0,0]","[0,0,0,0,0,0,0,0,0,0,0,0,0,0,0,0,0,0,0,0,0,0,0,0,0,0,0,0,0,0,0,0,0,0,0,0,0,0,0,0,0,0,0,0,0,0,0,0,0,0,0,0,0,0,0,0,0,0,0,0,0,0,0,0,0,0,0,0,0,0,0,0,0,0,0,0,0,0,0,0,0]","[0.0003000000007205017,0.01810000000148193,0.03430000000074074,0.051400000002217894,0.06780000000074438,0.08340000000222858,0.10069999999925017,0.1161000000014667,0.1328000000007421,0.14999999999997726,0.16619999999923607,0.18280000000072505,0.1996999999992397,0.2163000000007287,0.23290000000221767,0.24960000000146465,0.26630000000074006,0.28290000000222904,0.3009000000022297,0.3176000000014767,0.33419999999924244,0.35149999999998727,0.36630000000073437,0.384699999999242,0.39999999999997726,0.4181000000014876,0.43440000000222767,0.4499000000022306,0.46640000000220994,0.4838000000007412,0.4994000000022254,0.5169999999999959,0.532999999999987,0.55080000000072,0.5661000000014837,0.5829999999999984,0.6003000000007432,0.6176999999992461,0.6341999999992538,0.6514999999999986,0.667999999999978,0.6829000000022347,0.6996999999992397,0.7171999999992522,0.7328000000007364,0.7498000000007323,0.7661999999992304,0.7839999999999918,0.799999999999983,0.8176999999992347,0.8331000000014797,0.8499999999999943,0.8664999999999736,0.883100000001491,0.8996999999992568,0.9161999999992361,0.9338000000007298,0.9496999999992397,0.9663000000007287,0.9839999999999804,0.9994000000022254,1.017499999999984,1.0334000000022172,1.0509999999999877,1.0664000000022327,1.0831999999992377,1.1006000000014637,1.1161000000014667,1.133100000001491,1.149800000000738,1.1659000000022104,1.183199999999232,1.2004999999999768,1.2179000000022313,1.2331999999992433,1.2506000000014694,1.2676000000014653,1.2839000000022338,1.3011999999992554,1.3176999999992347,1.3329999999999984]",,3,0,3,0,1,,,,
,,,,,,,,,,,,,,, PAV-0016,2022-11-03_14h26.25.925,GoFitts,2022.1.4,Win32,59.76214666,,,,,"[-283.1559480312316,-205.72483830236555]","[234.19571222560037,260.100688917088]",20,700,1,"[-277,-277,-276,-275,-275,-275,-275,-275,-276,-276,-276,-276,-276,-277,-277,-279,-280,-280,-280,-281,-281,-281,-281,-281,-281,-281,-281,-281,-276,-260,-238,-186,-113,-26,69,165,267,302,314,315,313,311,311,311,311,310,306,300,294,285,272,260,253,245,240,239,239,239,239,241,242,244,244,244,244,244,243,241]","[-213,-212,-210,-210,-210,-209,-208,-206,-204,-203,-203,-203,-203,-203,-203,-202,-201,-201,-201,-201,-201,-201,-201,-201,-201,-201,-201,-201,-200,-193,-181,-159,-124,-79,-13,63,159,202,228,243,250,251,251,251,251,252,252,253,252,250,245,242,240,240,240,240,240,240,240,240,241,245,247,249,250,251,254,257]","[0,0,0,0,0,0,0,0,0,0,0,0,0,0,0,0,0,0,0,0,0,0,0,0,0,0,0,0,0,0,0,0,0,0,0,0,0,0,0,0,0,0,0,0,0,0,0,0,0,0,0,0,0,0,0,0,0,0,0,0,0,0,0,0,0,0,0,0]","[0,0,0,0,0,0,0,0,0,0,0,0,0,0,0,0,0,0,0,0,0,0,0,0,0,0,0,0,0,0,0,0,0,0,0,0,0,0,0,0,0,0,0,0,0,0,0,0,0,0,0,0,0,0,0,0,0,0,0,0,0,0,0,0,0,0,0,0]","[0,0,0,0,0,0,0,0,0,0,0,0,0,0,0,0,0,0,0,0,0,0,0,0,0,0,0,0,0,0,0,0,0,0,0,0,0,0,0,0,0,0,0,0,0,0,0,0,0,0,0,0,0,0,0,0,0,0,0,0,0,0,0,0,0,0,0,0]","[0.0003000000007489234,0.019200000002996376,0.03510000000150626,0.05110000000149739,0.0665000000000191,0.08490000000224995,0.10010000000150399,0.1163000000007628,0.13360000000150762,0.15130000000075938,0.16650000000001342,0.1831000000015024,0.19980000000074938,0.21690000000222653,0.23420000000297136,0.25010000000148125,0.26680000000075665,0.28290000000222904,0.2997000000029857,0.3167000000029816,0.3329000000022404,0.3499000000022363,0.36640000000224404,0.3833000000007587,0.39960000000149876,0.41660000000149466,0.4329999999999927,0.4498000000007494,0.4658000000007405,0.48310000000148534,0.49980000000076075,0.5169000000022379,0.5345000000000084,0.5500000000000114,0.5667000000029816,0.5833000000007473,0.6011000000015088,0.6181000000015047,0.6326000000015028,0.6516000000015083,0.6667000000029759,0.6835000000000093,0.7009000000022354,0.7164000000022384,0.733200000002995,0.749900000002242,0.7667000000029986,0.782900000002229,0.7999000000022534,0.8162000000029934,0.8332000000029893,0.85120000000299,0.8678000000007557,0.8829000000022518,0.9000000000000057,0.9179000000022484,0.9331000000015024,0.9498000000007494,0.9660000000000082,0.983200000002995,1.000700000002979,1.0159999999999911,1.0326000000015085,1.0497000000029857,1.067900000002254,1.083500000000015,1.0999999999999943,1.116700000002993]",,4,0,4,0,1,,,,
,,,,,,,,,,,,,,, PAV-0016,2022-11-03_14h26.25.925,GoFitts,2022.1.4,Win32,59.76214666,,,,,"[234.19571222560037,260.100688917088]","[-175.00000000000014,-303.1088913245535]",20,700,1,"[241,239,236,235,235,235,235,235,235,235,234,234,233,233,233,233,233,233,233,233,233,233,233,233,233,224,205,121,18,-89,-174,-219,-240,-250,-255,-257,-262,-271,-273,-277,-278,-278,-278,-270,-257,-239,-220,-203,-191,-183,-180,-179,-179,-179,-179,-179,-180,-181,-183,-186,-189,-191,-192,-192,-186,-183,-181,-180,-179,-179,-179,-179,-179,-179,-179,-179,-179,-179,-179]","[257,260,263,263,264,264,264,264,264,264,264,265,265,265,265,265,265,265,265,265,265,265,265,265,265,249,215,76,-60,-209,-349,-439,-485,-505,-512,-514,-514,-514,-514,-514,-514,-514,-511,-504,-494,-479,-461,-440,-419,-402,-388,-377,-368,-365,-364,-363,-361,-359,-356,-352,-349,-346,-340,-335,-308,-296,-291,-287,-286,-286,-286,-286,-286,-286,-286,-286,-288,-291,-295]","[0,0,0,0,0,0,0,0,0,0,0,0,0,0,0,0,0,0,0,0,0,0,0,0,0,0,0,0,0,0,0,0,0,0,0,0,0,0,0,0,0,0,0,0,0,0,0,0,0,0,0,0,0,0,0,0,0,0,0,0,0,0,0,0,0,0,0,0,0,0,0,0,0,0,0,0,0,0,0]","[0,0,0,0,0,0,0,0,0,0,0,0,0,0,0,0,0,0,0,0,0,0,0,0,0,0,0,0,0,0,0,0,0,0,0,0,0,0,0,0,0,0,0,0,0,0,0,0,0,0,0,0,0,0,0,0,0,0,0,0,0,0,0,0,0,0,0,0,0,0,0,0,0,0,0,0,0,0,0]","[0,0,0,0,0,0,0,0,0,0,0,0,0,0,0,0,0,0,0,0,0,0,0,0,0,0,0,0,0,0,0,0,0,0,0,0,0,0,0,0,0,0,0,0,0,0,0,0,0,0,0,0,0,0,0,0,0,0,0,0,0,0,0,0,0,0,0,0,0,0,0,0,0,0,0,0,0,0,0]","[0.0004999999999881766,0.017100000001477156,0.03260000000148011,0.04939999999851352,0.06700000000000728,0.08249999999998181,0.09930000000073846,0.11599999999998545,0.1328999999985001,0.14969999999925676,0.16630000000074574,0.18299999999999272,0.20050000000000523,0.21600000000000819,0.23280000000073642,0.24930000000074415,0.2658999999985099,0.2826999999992381,0.29949999999999477,0.31610000000148375,0.33280000000073073,0.34930000000073846,0.3658000000007462,0.38239999999851193,0.39939999999850784,0.41639999999850374,0.43330000000074165,0.45039999999849556,0.46569999999925926,0.48239999999850625,0.5006999999992559,0.515500000000003,0.5321999999992499,0.549600000001476,0.5661999999992418,0.5829999999999984,0.6006000000014922,0.6173000000007391,0.6326999999992609,0.6508000000007428,0.6676000000014994,0.6823000000007369,0.6993999999985192,0.7173000000007335,0.7340000000000089,0.7506999999992559,0.7656999999992422,0.7838999999985106,0.7996999999992624,0.8178999999985024,0.8328999999985172,0.8496000000014874,0.8673000000007391,0.8824999999999932,0.9008999999985008,0.9158999999985156,0.9328999999985115,0.9496999999992397,0.966699999999264,0.9838999999984992,0.9998000000007323,1.017499999999984,1.0345000000000084,1.049600000001476,1.0673000000007278,1.0821999999992613,1.1003999999985012,1.1171000000014715,1.132000000000005,1.150999999999982,1.1674999999999898,1.1841999999992368,1.2006999999992445,1.2160000000000082,1.2326000000014972,1.2491000000014765,1.2661000000014724,1.2841999999992595,1.2991000000014878]",,5,0,5,0,1,,,,
,,,,,,,,,,,,,,, PAV-0016,2022-11-03_14h26.25.925,GoFitts,2022.1.4,Win32,59.76214666,,,,,"[-175.00000000000014,-303.1088913245535]","[108.1559480312316,332.8697807033037]",20,700,1,"[-179,-179,-179,-179,-179,-179,-179,-179,-179,-179,-179,-179,-179,-179,-179,-179,-179,-179,-185,-197,-202,-203,-200,-199,-199,-199,-165,-51,48,122,167,169,155,132,121,115,113,112,112,112,112,111,107,105,105,116,122,126,129,130,130,131,131,132,133,134,135,135,132,125,118,111,104]","[-295,-298,-301,-301,-301,-301,-301,-301,-301,-301,-301,-301,-301,-301,-301,-301,-301,-301,-301,-303,-305,-306,-306,-306,-306,-305,-259,-130,-7,131,295,334,391,452,535,540,540,540,540,540,533,518,501,485,465,436,419,406,397,395,395,395,395,396,397,397,397,397,395,385,368,350,336]","[0,0,0,0,0,0,0,0,0,0,0,0,0,0,0,0,0,0,0,0,0,0,0,0,0,0,0,0,0,0,0,0,0,0,0,0,0,0,0,0,0,0,0,0,0,0,0,0,0,0,0,0,0,0,0,0,0,0,0,0,0,0,0]","[0,0,0,0,0,0,0,0,0,0,0,0,0,0,0,0,0,0,0,0,0,0,0,0,0,0,0,0,0,0,0,0,0,0,0,0,0,0,0,0,0,0,0,0,0,0,0,0,0,0,0,0,0,0,0,0,0,0,0,0,0,0,0]","[0,0,0,0,0,0,0,0,0,0,0,0,0,0,0,0,0,0,0,0,0,0,0,0,0,0,0,0,0,0,0,0,0,0,0,0,0,0,0,0,0,0,0,0,0,0,0,0,0,0,0,0,0,0,0,0,0,0,0,0,0,0,0]","[0.00019999999926767487,0.018699999999256534,0.03489999999851534,0.05009999999776937,0.0665000000000191,0.08330000000074733,0.10030000000077166,0.11819999999926267,0.1346999999992704,0.15000000000000568,0.16680000000076234,0.18339999999852807,0.20009999999777506,0.21680000000074529,0.23319999999927177,0.2500999999977864,0.26700000000002433,0.28300000000001546,0.30059999999778597,0.318300000000761,0.33330000000074733,0.3515000000000157,0.36839999999853035,0.3851999999992586,0.40180000000074756,0.41689999999852034,0.4328999999985115,0.45009999999777506,0.46809999999777574,0.48480000000074597,0.5016999999992606,0.5180999999977871,0.5333999999985224,0.5503000000007603,0.568000000000012,0.5866999999992686,0.5996999999992738,0.6170999999977766,0.6333000000007587,0.6510000000000105,0.6671999999992693,0.6840000000000259,0.70150000000001,0.7173000000007619,0.7346999999992647,0.7500999999977864,0.7665000000000077,0.7843000000007692,0.8003000000007603,0.817199999999275,0.8343000000007521,0.8503999999985297,0.8670999999977766,0.8840999999977726,0.9013000000007594,0.9166999999992811,0.9345999999977721,0.9500999999977751,0.9678999999985365,0.9835999999977787,1.0010999999977912,1.0166999999992754,1.0333999999985224]",,6,0,6,0,1,,,,
,,,,,,,,,,,,,,, PAV-0016,2022-11-03_14h26.25.925,GoFitts,2022.1.4,Win32,59.76214666,,,,,"[108.1559480312316,332.8697807033037]","[-36.58496214367898,-348.08266337889563]",20,700,1,"[104,101,101,101,101,101,101,101,101,101,102,105,107,108,108,108,108,109,110,110,110,110,110,110,110,110,110,110,109,109,105,100,95,89,76,50,8,-50,-113,-149,-156,-153,-148,-148,-148,-148,-148,-148,-148,-148,-148,-148,-146,-138,-111,-85,-69,-39,-34,-33,-33,-35,-37,-38,-39,-40,-45,-47,-53,-57,-61,-62,-55,-51,-48,-41]","[336,326,319,317,315,315,315,315,315,316,316,319,321,323,324,326,328,330,333,335,336,336,336,336,337,337,339,339,339,339,336,328,311,282,223,126,-9,-191,-370,-502,-539,-539,-539,-539,-539,-539,-538,-535,-534,-533,-533,-533,-533,-533,-519,-503,-492,-463,-453,-448,-447,-445,-443,-443,-442,-441,-438,-436,-432,-424,-414,-399,-384,-375,-364,-354]","[0,0,0,0,0,0,0,0,0,0,0,0,0,0,0,0,0,0,0,0,0,0,0,0,0,0,0,0,0,0,0,0,0,0,0,0,0,0,0,0,0,0,0,0,0,0,0,0,0,0,0,0,0,0,0,0,0,0,0,0,0,0,0,0,0,0,0,0,0,0,0,0,0,0,0,0]","[0,0,0,0,0,0,0,0,0,0,0,0,0,0,0,0,0,0,0,0,0,0,0,0,0,0,0,0,0,0,0,0,0,0,0,0,0,0,0,0,0,0,0,0,0,0,0,0,0,0,0,0,0,0,0,0,0,0,0,0,0,0,0,0,0,0,0,0,0,0,0,0,0,0,0,0]","[0,0,0,0,0,0,0,0,0,0,0,0,0,0,0,0,0,0,0,0,0,0,0,0,0,0,0,0,0,0,0,0,0,0,0,0,0,0,0,0,0,0,0,0,0,0,0,0,0,0,0,0,0,0,0,0,0,0,0,0,0,0,0,0,0,0,0,0,0,0,0,0,0,0,0,0]","[0.00040000000223017196,0.0182000000029916,0.03530000000074551,0.049000000000006594,0.06740000000223745,0.0824000000022238,0.09920000000298046,0.11610000000149512,0.1328000000007421,0.14949999999998909,0.166400000002227,0.18270000000296704,0.19940000000224245,0.21560000000150126,0.2330000000000041,0.2503000000007489,0.2661000000015008,0.28290000000222904,0.2992000000029691,0.3173000000007562,0.3338000000007355,0.34950000000000614,0.3658000000007462,0.3839000000022281,0.39970000000298,0.4159000000022388,0.4331000000015024,0.4498000000007494,0.46720000000297546,0.4828000000007364,0.5004000000022302,0.5172000000029868,0.5323000000007312,0.5494000000022368,0.5667000000029816,0.5823000000007426,0.6004000000022245,0.6163000000007344,0.6326000000015028,0.6507000000029848,0.666400000002227,0.6839000000022395,0.7005000000000052,0.7161000000014894,0.7327000000029784,0.7492000000029861,0.7661000000015008,0.7826000000014801,0.8004000000022415,0.8166000000015003,0.8334999999999866,0.8489999999999895,0.8673000000007391,0.8836000000014792,0.9004999999999939,0.9172000000029925,0.9323000000007369,0.9492000000029748,0.9660000000000082,0.9837000000029832,0.9989000000022372,1.016200000002982,1.0339000000022338,1.0497000000029857,1.0656000000014956,1.0824000000022238,1.100500000000011,1.1161000000014951,1.1336000000014792,1.149400000002231,1.166100000001478,1.1829000000022347,1.198600000001477,1.2172000000029755,1.2323000000007482,1.2504999999999882]",,7,0,7,0,1,,,,
,,,,,,,,,,,,,,, PAV-0016,2022-11-03_14h26.25.925,GoFitts,2022.1.4,Win32,59.76214666,,,,,"[-36.58496214367898,-348.08266337889563]","[-36.584962143678666,348.0826633788957]",20,700,1,"[-41,-36,-36,-31,-30,-29,-29,-29,-29,-29,-30,-31,-32,-33,-34,-38,-40,-42,-42,-42,-42,-42,-41,-40,-39,-39,-39,-39,-39,-39,-39,-39,-39,-39,-39,-39,-39,-39,-39,-39,-39,-39,-41,-41,-41,-40,-36,-28,-17,-3,15,21,16,-4,-20,-27,-36,-37,-37,-37,-37,-37,-37,-41,-47,-50,-51,-51,-50,-46,-43,-42,-42,-42,-42,-42,-42,-46,-50,-49,-45,-41,-39,-37,-36,-34,-34,-32,-32,-32,-31,-31,-32,-35,-43,-48,-48,-48,-48,-48,-48,-48,-48,-48,-48,-46,-42]","[-354,-343,-342,-337,-335,-334,-333,-332,-332,-332,-332,-332,-333,-333,-335,-339,-343,-346,-347,-347,-347,-347,-347,-346,-345,-345,-345,-345,-345,-345,-345,-345,-345,-345,-345,-345,-345,-345,-345,-345,-345,-345,-345,-345,-344,-329,-300,-243,-164,-53,66,191,319,462,517,531,540,540,540,540,540,540,540,535,521,509,494,480,468,456,450,448,448,447,447,447,447,440,429,418,413,409,406,405,404,401,399,397,397,397,397,397,393,382,365,350,343,341,340,340,340,340,340,340,341,343,345]","[0,0,0,0,0,0,0,0,0,0,0,0,0,0,0,0,0,0,0,0,0,0,0,0,0,0,0,0,0,0,0,0,0,0,0,0,0,0,0,0,0,0,0,0,0,0,0,0,0,0,0,0,0,0,0,0,0,0,0,0,0,0,0,0,0,0,0,0,0,0,0,0,0,0,0,0,0,0,0,0,0,0,0,0,0,0,0,0,0,0,0,0,0,0,0,0,0,0,0,0,0,0,0,0,0,0,0]","[0,0,0,0,0,0,0,0,0,0,0,0,0,0,0,0,0,0,0,0,0,0,0,0,0,0,0,0,0,0,0,0,0,0,0,0,0,0,0,0,0,0,0,0,0,0,0,0,0,0,0,0,0,0,0,0,0,0,0,0,0,0,0,0,0,0,0,0,0,0,0,0,0,0,0,0,0,0,0,0,0,0,0,0,0,0,0,0,0,0,0,0,0,0,0,0,0,0,0,0,0,0,0,0,0,0,0]","[0,0,0,0,0,0,0,0,0,0,0,0,0,0,0,0,0,0,0,0,0,0,0,0,0,0,0,0,0,0,0,0,0,0,0,0,0,0,0,0,0,0,0,0,0,0,0,0,0,0,0,0,0,0,0,0,0,0,0,0,0,0,0,0,0,0,0,0,0,0,0,0,0,0,0,0,0,0,0,0,0,0,0,0,0,0,0,0,0,0,0,0,0,0,0,0,0,0,0,0,0,0,0,0,0,0,0]","[0.00019999999926767487,0.017299999997021587,0.03169999999926176,0.049599999997752775,0.06569999999925358,0.08369999999925426,0.10029999999702,0.11529999999703477,0.1328999999985001,0.14850000000001273,0.16559999999776664,0.18209999999777438,0.19869999999926335,0.2154999999999916,0.2324999999999875,0.24850000000000705,0.2653999999985217,0.2820000000000107,0.2987999999970157,0.3152999999970234,0.33199999999999363,0.34859999999775937,0.36650000000000205,0.3824999999999932,0.3981999999992638,0.4151999999992597,0.43179999999702545,0.4485999999977537,0.46539999999851034,0.4819999999999993,0.49859999999776505,0.515299999997012,0.5320999999977687,0.5486999999992577,0.5653999999985047,0.5819999999999936,0.598699999999269,0.6151999999992483,0.632099999997763,0.6485999999977707,0.6651999999992597,0.6816999999992674,0.6984999999999957,0.7150999999977614,0.7335999999977787,0.7487999999970327,0.7648999999985051,0.7833999999985224,0.8000000000000114,0.8153999999985047,0.8321999999992613,0.848799999997027,0.8652999999970348,0.882000000000005,0.898699999999252,0.9151999999992597,0.9318999999985067,0.9498999999985074,0.9668999999985033,0.9857999999970275,1.000099999997758,1.0165000000000077,1.0317999999970198,1.0485999999977764,1.0664999999999907,1.0817999999970311,1.098699999999269,1.1151999999992483,1.132000000000005,1.1495999999977755,1.1655999999977666,1.1816999999992674,1.1996999999992681,1.215599999997778,1.2320999999977573,1.2495000000000118,1.265199999999254,1.2820999999977687,1.2986999999992577,1.3163999999985094,1.3322999999970193,1.349899999998513,1.3660000000000139,1.382099999997763,1.3991999999992686,1.4163999999985037,1.4322999999970136,1.4490000000000123,1.4662999999970339,1.4831999999992433,1.5017999999970186,1.515299999997012,1.5323999999985176,1.5492999999970323,1.566599999997777,1.5825000000000102,1.599899999998513,1.61659999999776,1.632099999997763,1.6500000000000057,1.6666999999992527,1.6832999999970184,1.6980000000000075,1.7165999999977544,1.7324999999999875,1.7487999999970327,1.7657999999970286]",,8,0,8,0,1,,,,
,,,,,,,,,,,,,,, PAV-0016,2022-11-03_14h26.25.925,GoFitts,2022.1.4,Win32,59.76214666,,,,,"[-36.584962143678666,348.0826633788957]","[108.15594803123153,-332.8697807033038]",20,700,1,"[-42,-39,-36,-35,-35,-35,-35,-35,-35,-35,-35,-35,-35,-35,-35,-35,-35,-35,-35,-35,-32,-31,-31,-37,-43,-43,-43,-31,-9,-4,5,8,10,13,19,25,38,51,68,88,94,99,99,100,101,101,102,103,104,109,109,109,109,109,109,109,115]","[345,348,350,351,352,353,353,353,353,353,353,353,353,353,353,353,353,353,347,328,304,269,212,132,30,-81,-189,-276,-357,-372,-391,-400,-402,-405,-409,-412,-416,-418,-419,-419,-417,-409,-405,-392,-384,-376,-370,-364,-357,-350,-346,-344,-344,-344,-343,-343,-338]","[0,0,0,0,0,0,0,0,0,0,0,0,0,0,0,0,0,0,0,0,0,0,0,0,0,0,0,0,0,0,0,0,0,0,0,0,0,0,0,0,0,0,0,0,0,0,0,0,0,0,0,0,0,0,0,0,0]","[0,0,0,0,0,0,0,0,0,0,0,0,0,0,0,0,0,0,0,0,0,0,0,0,0,0,0,0,0,0,0,0,0,0,0,0,0,0,0,0,0,0,0,0,0,0,0,0,0,0,0,0,0,0,0,0,0]","[0,0,0,0,0,0,0,0,0,0,0,0,0,0,0,0,0,0,0,0,0,0,0,0,0,0,0,0,0,0,0,0,0,0,0,0,0,0,0,0,0,0,0,0,0,0,0,0,0,0,0,0,0,0,0,0,0]","[0.00040000000223017196,0.016699999999246984,0.032900000002229035,0.04910000000148784,0.06590000000221607,0.08330000000074733,0.10019999999923357,0.1158000000007462,0.13269999999923243,0.1493000000007214,0.16610000000147807,0.18240000000221812,0.1991000000014651,0.21590000000222176,0.23399999999998045,0.24910000000147647,0.26580000000072346,0.2823000000007312,0.299600000001476,0.3173000000007278,0.332900000002212,0.34880000000072187,0.3661000000014667,0.38349999999999795,0.4019000000022288,0.4170000000000016,0.4329999999999927,0.4501999999992563,0.4671999999992522,0.48260000000146874,0.4994999999999834,0.5171000000014772,0.5326000000014801,0.549999999999983,0.5676999999992347,0.5823000000007426,0.5989000000022315,0.6159000000022274,0.6321999999992443,0.6511000000014917,0.6661999999992361,0.6836000000014906,0.6996999999992397,0.7156000000014728,0.7324999999999875,0.7508000000007371,0.7676999999992518,0.7836999999992429,0.8009000000022297,0.816300000000723,0.8336000000014678,0.8508000000007314,0.8658000000007462,0.8824000000022352,0.8999000000022193,0.9158000000007291,0.9326999999992438]",,9,0,9,0,1,,,,
,,,,,,,,,,,,,,, PAV-0016,2022-11-03_14h26.25.925,GoFitts,2022.1.4,Win32,59.76214666,,,,,"[108.15594803123153,-332.8697807033038]","[-174.99999999999991,303.10889132455355]",20,700,1,"[115,118,119,119,119,119,119,119,119,118,117,117,117,117,116,113,109,106,103,101,101,101,102,103,103,103,104,104,104,104,104,104,104,104,104,104,104,104,104,104,104,104,104,104,104,104,102,92,57,13,-34,-87,-137,-161,-169,-173,-177,-181,-190,-195,-195,-194,-192,-190,-188,-188,-187,-185,-180,-176,-173,-172,-171,-171,-171,-171,-171,-171,-171,-171]","[-338,-336,-334,-333,-333,-333,-333,-333,-333,-333,-333,-333,-333,-333,-333,-333,-334,-335,-335,-335,-335,-334,-332,-331,-329,-329,-328,-328,-328,-327,-327,-327,-327,-327,-327,-327,-327,-327,-327,-327,-327,-327,-327,-327,-327,-323,-317,-303,-247,-189,-128,-55,16,63,94,123,144,157,177,193,200,229,245,254,255,257,260,262,267,271,275,278,279,279,279,280,284,287,290,294]","[0,0,0,0,0,0,0,0,0,0,0,0,0,0,0,0,0,0,0,0,0,0,0,0,0,0,0,0,0,0,0,0,0,0,0,0,0,0,0,0,0,0,0,0,0,0,0,0,0,0,0,0,0,0,0,0,0,0,0,0,0,0,0,0,0,0,0,0,0,0,0,0,0,0,0,0,0,0,0,0]","[0,0,0,0,0,0,0,0,0,0,0,0,0,0,0,0,0,0,0,0,0,0,0,0,0,0,0,0,0,0,0,0,0,0,0,0,0,0,0,0,0,0,0,0,0,0,0,0,0,0,0,0,0,0,0,0,0,0,0,0,0,0,0,0,0,0,0,0,0,0,0,0,0,0,0,0,0,0,0,0]","[0,0,0,0,0,0,0,0,0,0,0,0,0,0,0,0,0,0,0,0,0,0,0,0,0,0,0,0,0,0,0,0,0,0,0,0,0,0,0,0,0,0,0,0,0,0,0,0,0,0,0,0,0,0,0,0,0,0,0,0,0,0,0,0,0,0,0,0,0,0,0,0,0,0,0,0,0,0,0,0]","[0.0003000000007489234,0.01730000000074483,0.03299999999998704,0.04890000000222017,0.06630000000075142,0.08280000000073073,0.09969999999924539,0.11619999999925312,0.1328000000007421,0.15099999999998204,0.1678000000007387,0.18299999999999272,0.1996000000014817,0.21610000000148943,0.23280000000073642,0.24969999999925108,0.2674000000022261,0.2841999999992595,0.2993000000007271,0.31619999999924175,0.3329000000022404,0.34980000000072664,0.36640000000224404,0.38290000000222335,0.39960000000149876,0.41630000000074574,0.4329000000022347,0.4496000000014817,0.46619999999924744,0.48349999999999227,0.4994999999999834,0.5161000000014724,0.532900000002229,0.549600000001476,0.5663000000007514,0.5829000000022404,0.5996000000014874,0.616400000002244,0.633100000001491,0.6494999999999891,0.6671000000014828,0.6829000000022347,0.6995000000000005,0.7163000000007287,0.7329000000022177,0.75,0.7664000000022213,0.7831000000014967,0.8006000000014808,0.8161000000014837,0.8328000000007307,0.8511000000014803,0.8661999999992531,0.8844000000022447,0.9011000000014917,0.9169000000022436,0.933100000001474,0.9501000000014983,0.9671999999992522,0.9829000000022177,0.9993000000007441,1.017400000002226,1.0331999999992547,1.0504999999999995,1.0679999999999836,1.084699999999259,1.1011000000014803,1.1166000000014833,1.1341000000014958,1.1499000000022193,1.1670000000000016,1.1841999999992368,1.1995000000000005,1.2171000000014942,1.2331000000014853,1.2509000000022183,1.2664000000022213,1.284400000002222,1.2994000000022368,1.3176999999992631]",,10,0,10,0,1,,,,
,,,,,,,,,,,,,,, PAV-0016,2022-11-03_14h26.25.925,GoFitts,2022.1.4,Win32,59.76214666,,,,,"[-174.99999999999991,303.10889132455355]","[234.19571222560046,-260.1006889170879]",20,700,1,"[-171,-171,-171,-171,-171,-171,-171,-171,-171,-171,-171,-171,-171,-171,-171,-171,-171,-171,-171,-167,-151,-109,-39,45,138,237,318,340,348,349,349,349,354,360,365,366,366,359,349,336,316,296,277,266,259,255,254,254,254,254,256,256,255,253,250,248,247,247,247,245,241]","[294,294,295,296,306,314,317,317,317,317,317,317,317,317,317,317,317,317,317,306,282,234,160,84,11,-52,-113,-137,-159,-174,-182,-194,-210,-222,-230,-232,-233,-236,-237,-238,-238,-238,-239,-239,-240,-240,-241,-241,-242,-244,-245,-245,-249,-253,-261,-263,-264,-264,-264,-264,-263]","[0,0,0,0,0,0,0,0,0,0,0,0,0,0,0,0,0,0,0,0,0,0,0,0,0,0,0,0,0,0,0,0,0,0,0,0,0,0,0,0,0,0,0,0,0,0,0,0,0,0,0,0,0,0,0,0,0,0,0,0,0]","[0,0,0,0,0,0,0,0,0,0,0,0,0,0,0,0,0,0,0,0,0,0,0,0,0,0,0,0,0,0,0,0,0,0,0,0,0,0,0,0,0,0,0,0,0,0,0,0,0,0,0,0,0,0,0,0,0,0,0,0,0]","[0,0,0,0,0,0,0,0,0,0,0,0,0,0,0,0,0,0,0,0,0,0,0,0,0,0,0,0,0,0,0,0,0,0,0,0,0,0,0,0,0,0,0,0,0,0,0,0,0,0,0,0,0,0,0,0,0,0,0,0,0]","[0.0003000000007489234,0.017199999999263582,0.033300000000764385,0.04810000000151149,0.06490000000223972,0.08150000000000546,0.09950000000000614,0.1150000000000091,0.13140000000225882,0.14840000000225473,0.16500000000002046,0.18160000000150944,0.19819999999927518,0.2149000000022454,0.2316000000014924,0.24819999999925813,0.2649000000022568,0.28160000000150376,0.2981999999992695,0.3146999999992772,0.33190000000223563,0.3496000000015158,0.3661999999992531,0.38180000000076575,0.3995000000000175,0.4148000000007528,0.4326999999992722,0.44919999999927995,0.4654000000022336,0.4811999999992622,0.4983000000007678,0.5156999999992706,0.5331000000014967,0.5496000000015044,0.5666000000015003,0.5831999999992661,0.6004000000022529,0.6161999999992531,0.6329000000022518,0.6496999999992568,0.6650000000000205,0.6826999999992722,0.6983000000007564,0.7146999999992545,0.7318000000007601,0.749900000002242,0.7653000000007637,0.7816000000015038,0.7999000000022534,0.8161999999992702,0.8316999999992731,0.8491000000014992,0.8661999999992531,0.8830000000000098,0.9001000000015154,0.9148000000007528,0.9328000000007535,0.950000000000017,0.9646999999992545,0.9819999999999993,0.998500000000007]",,11,0,11,0,1,,,,
,,,,,,,,,,,,,,, PAV-0016,2022-11-03_14h26.25.925,GoFitts,2022.1.4,Win32,59.76214666,,,,,"[234.19571222560046,-260.1006889170879]","[-283.15594803123156,205.72483830236564]",20,700,1,"[241,236,235,235,235,235,235,234,233,233,233,233,233,233,233,233,233,233,233,233,233,233,233,228,191,106,52,-70,-113,-144,-157,-166,-167,-167,-170,-174,-179,-183,-183,-183,-184,-190,-203,-216,-235,-258,-273,-277]","[-263,-262,-261,-260,-258,-257,-256,-254,-253,-253,-253,-253,-252,-252,-252,-252,-252,-252,-252,-252,-252,-252,-252,-247,-224,-175,-142,-59,-12,36,80,105,119,129,140,146,152,157,160,162,165,168,173,176,182,191,198,202]","[0,0,0,0,0,0,0,0,0,0,0,0,0,0,0,0,0,0,0,0,0,0,0,0,0,0,0,0,0,0,0,0,0,0,0,0,0,0,0,0,0,0,0,0,0,0,0,0]","[0,0,0,0,0,0,0,0,0,0,0,0,0,0,0,0,0,0,0,0,0,0,0,0,0,0,0,0,0,0,0,0,0,0,0,0,0,0,0,0,0,0,0,0,0,0,0,0]","[0,0,0,0,0,0,0,0,0,0,0,0,0,0,0,0,0,0,0,0,0,0,0,0,0,0,0,0,0,0,0,0,0,0,0,0,0,0,0,0,0,0,0,0,0,0,0,0]","[0.00019999999926767487,0.018199999999268357,0.03450000000000841,0.050600000001480794,0.06580000000073483,0.08439999999851011,0.09980000000075506,0.11650000000000205,0.1328000000007421,0.1503999999985126,0.1661999999992645,0.18380000000075825,0.20110000000150308,0.2158000000007405,0.23400000000000887,0.24950000000001182,0.2661999999992588,0.28269999999926654,0.29969999999926245,0.31619999999924175,0.33280000000075916,0.3496000000014874,0.36630000000073437,0.3828999999985001,0.4011000000014917,0.41769999999925744,0.43250000000000455,0.4511999999992611,0.4676000000014824,0.4828000000007364,0.5003999999985069,0.5165000000000077,0.5343000000007407,0.5508999999985065,0.5661000000014837,0.5836999999992543,0.5998000000007551,0.6166000000014833,0.633100000001491,0.6494999999999891,0.6661000000014781,0.6836999999992486,0.6990000000000123,0.716699999999264,0.7338000000007412,0.7493999999985022,0.7673999999985028,0.7848000000007573]",,12,0,12,0,1,,,,
,,,,,,,,,,,,,,, PAV-0016,2022-11-03_14h26.25.925,GoFitts,2022.1.4,Win32,59.76214666,,,,,"[-283.15594803123156,205.72483830236564]","[319.74091017491037,-142.35782507653005]",20,700,1,"[-277,-277,-277,-277,-277,-278,-278,-278,-278,-278,-278,-278,-278,-278,-278,-278,-278,-279,-279,-279,-279,-279,-279,-279,-279,-275,-258,-177,-69,3,265,431,540,586,594,591,577,554,546,529,523,509,509,509,509,509,509,498,469,410,360,342,312,271,256,255,254,254,254,254,256,261,268,278,288,301,310,317,321,323,324,324,324,324,323,323,322]","[202,211,213,217,217,218,219,221,221,222,223,223,223,223,223,223,217,210,203,199,196,195,195,195,195,195,195,189,173,162,112,72,36,10,-6,-17,-29,-48,-54,-84,-98,-135,-147,-150,-151,-151,-151,-144,-132,-117,-114,-113,-112,-109,-108,-108,-108,-108,-108,-110,-115,-121,-130,-141,-148,-156,-159,-161,-161,-161,-161,-159,-158,-155,-153,-152,-151]","[0,0,0,0,0,0,0,0,0,0,0,0,0,0,0,0,0,0,0,0,0,0,0,0,0,0,0,0,0,0,0,0,0,0,0,0,0,0,0,0,0,0,0,0,0,0,0,0,0,0,0,0,0,0,0,0,0,0,0,0,0,0,0,0,0,0,0,0,0,0,0,0,0,0,0,0,0]","[0,0,0,0,0,0,0,0,0,0,0,0,0,0,0,0,0,0,0,0,0,0,0,0,0,0,0,0,0,0,0,0,0,0,0,0,0,0,0,0,0,0,0,0,0,0,0,0,0,0,0,0,0,0,0,0,0,0,0,0,0,0,0,0,0,0,0,0,0,0,0,0,0,0,0,0,0]","[0,0,0,0,0,0,0,0,0,0,0,0,0,0,0,0,0,0,0,0,0,0,0,0,0,0,0,0,0,0,0,0,0,0,0,0,0,0,0,0,0,0,0,0,0,0,0,0,0,0,0,0,0,0,0,0,0,0,0,0,0,0,0,0,0,0,0,0,0,0,0,0,0,0,0,0,0]","[0.0005000000000165983,0.01730000000074483,0.03249999999999886,0.048600000001499666,0.06360000000148602,0.08100000000001728,0.09870000000299228,0.11549999999999727,0.13050000000001205,0.14910000000151058,0.16450000000000387,0.18080000000074392,0.19730000000075165,0.21390000000224063,0.2308000000007553,0.24870000000299797,0.26590000000223313,0.28070000000298023,0.29720000000298796,0.3149000000022397,0.3307000000029916,0.34840000000224336,0.3639000000022463,0.3810000000000002,0.39740000000224995,0.41410000000149694,0.4309000000022536,0.4484000000022377,0.46510000000148466,0.48050000000000637,0.4989999999999952,0.5144000000022402,0.5308000000007382,0.5476000000014949,0.5646000000014908,0.5818000000007544,0.5978000000007455,0.6156000000015069,0.630800000000761,0.6484000000022547,0.6644000000022459,0.68190000000223,0.6974000000022329,0.7142000000029896,0.7313000000007435,0.7486000000014883,0.763900000002252,0.7813000000007548,0.7981000000015115,0.8153000000007466,0.8322000000029846,0.8476000000015063,0.8643000000007532,0.8809000000022422,0.8973000000007403,0.915300000000741,0.9314000000022418,0.9473000000007517,0.9639999999999986,0.9813000000007435,0.9989000000022372,1.0160000000000196,1.0307000000029802,1.0485000000000184,1.0654000000022563,1.0821000000015033,1.0970000000000084,1.1140000000000043,1.130400000002254,1.147100000001501,1.165200000002983,1.1813000000007605,1.1978000000007398,1.2146000000014965,1.2317000000029736,1.2478000000007512,1.2641000000014913]",,13,0,13,0,1,,,,
,,,,,,,,,,,,,,, PAV-0016,2022-11-03_14h26.25.925,GoFitts,2022.1.4,Win32,59.76214666,,,,,"[319.74091017491037,-142.35782507653005]","[-342.351660256832,72.76909178621575]",20,700,1,"[322,318,314,311,308,308,308,308,308,308,308,308,308,308,309,310,316,322,323,324,324,324,324,324,324,324,315,294,242,160,55,-66,-177,-249,-288,-309,-323,-329,-331,-334]","[-151,-149,-147,-144,-142,-142,-141,-141,-141,-141,-141,-141,-141,-141,-141,-141,-141,-140,-139,-139,-139,-138,-138,-138,-138,-138,-133,-125,-108,-82,-55,-20,13,36,50,58,66,70,73,78]","[0,0,0,0,0,0,0,0,0,0,0,0,0,0,0,0,0,0,0,0,0,0,0,0,0,0,0,0,0,0,0,0,0,0,0,0,0,0,0,0]","[0,0,0,0,0,0,0,0,0,0,0,0,0,0,0,0,0,0,0,0,0,0,0,0,0,0,0,0,0,0,0,0,0,0,0,0,0,0,0,0]","[0,0,0,0,0,0,0,0,0,0,0,0,0,0,0,0,0,0,0,0,0,0,0,0,0,0,0,0,0,0,0,0,0,0,0,0,0,0,0,0]","[0.00039999999853534973,0.018000000000000682,0.034399999998527164,0.04919999999927427,0.06709999999776528,0.08250000000001023,0.09939999999852489,0.11589999999853262,0.13309999999776778,0.15069999999926154,0.1675000000000182,0.18219999999925562,0.19919999999927995,0.21589999999852694,0.23330000000075302,0.2503000000007489,0.2663000000007685,0.2825000000000273,0.30000000000001137,0.316800000000768,0.33259999999776824,0.3505999999977689,0.3673999999985256,0.3825999999977796,0.3990000000000009,0.41580000000075756,0.4328999999985115,0.4493999999985192,0.4673999999985199,0.4825000000000159,0.5001999999992677,0.5171999999992636,0.5326999999992665,0.5493000000007555,0.5665999999977771,0.5826999999992779,0.599099999997776,0.6160999999977719,0.6340000000000146,0.6505000000000223]",,14,0,14,0,1,,,,
,,,,,,,,,,,,,,, PAV-0016,2022-11-03_14h26.25.925,GoFitts,2022.1.4,Win32,59.76214666,,,,,,,,,1,,,,,,,,,,,,,1,0,0,1
,,,,,,,,,,,,,,, PAV-0016,2022-11-03_14h26.25.925,GoFitts,2022.1.4,Win32,59.76214666,,,return,1.5556,"[317,-16]","[-62.50000000000006,-108.25317547305481]",71.5,250,2,"[317,317,317,317,317,317,317,317,317,317,317,317,317,317,317,317,317,317,317,317,317,317,317,317,317,317,317,317,317,317,317,329,354,376,377,377,377,362,311,175,10,-141,-283,-418,-481,-485,-487,-488,-489,-491,-492,-494,-486,-466,-443,-416,-390,-359,-318,-298,-282,-263,-244,-238,-237,-237,-238,-238,-215,-182,-126,-91,-68]","[-16,-16,-16,-16,-16,-16,-16,-16,-16,-16,-16,-16,-16,-16,-16,-16,-16,-16,-16,-16,-16,-16,-16,-16,-16,-16,-16,-16,-16,-16,-16,-16,-14,-12,-12,-12,-12,-12,-17,-29,-51,-68,-80,-97,-105,-108,-112,-114,-114,-115,-117,-119,-122,-123,-123,-120,-116,-110,-102,-98,-96,-95,-95,-95,-95,-95,-95,-95,-102,-110,-125,-133,-136]","[0,0,0,0,0,0,0,0,0,0,0,0,0,0,0,0,0,0,0,0,0,0,0,0,0,0,0,0,0,0,0,0,0,0,0,0,0,0,0,0,0,0,0,0,0,0,0,0,0,0,0,0,0,0,0,0,0,0,0,0,0,0,0,0,0,0,0,0,0,0,0,0,0]","[0,0,0,0,0,0,0,0,0,0,0,0,0,0,0,0,0,0,0,0,0,0,0,0,0,0,0,0,0,0,0,0,0,0,0,0,0,0,0,0,0,0,0,0,0,0,0,0,0,0,0,0,0,0,0,0,0,0,0,0,0,0,0,0,0,0,0,0,0,0,0,0,0]","[0,0,0,0,0,0,0,0,0,0,0,0,0,0,0,0,0,0,0,0,0,0,0,0,0,0,0,0,0,0,0,0,0,0,0,0,0,0,0,0,0,0,0,0,0,0,0,0,0,0,0,0,0,0,0,0,0,0,0,0,0,0,0,0,0,0,0,0,0,0,0,0,0]","[0.0008000000007655217,0.017199999999263582,0.03300000000001546,0.04939999999851352,0.06639999999850943,0.0848000000007687,0.09950000000000614,0.1163000000007628,0.13269999999926085,0.1495000000000175,0.1661999999992645,0.18300000000002115,0.19959999999778688,0.2160999999977662,0.23289999999852284,0.24950000000001182,0.2661999999992588,0.2828999999985058,0.30080000000074847,0.3163000000007514,0.33280000000075916,0.3493999999985249,0.3661999999992531,0.38289999999852853,0.3995999999977755,0.41639999999853217,0.4326999999992722,0.4495999999977869,0.4673000000007619,0.48419999999927654,0.49959999999776983,0.5163000000007685,0.5333000000007644,0.5504999999999995,0.5665000000000191,0.5829999999999984,0.6005000000000109,0.6163000000007628,0.6330000000000098,0.6508000000007428,0.6680000000000064,0.6831999999992604,0.6995000000000005,0.7164999999999964,0.733300000000753,0.7498000000007607,0.7663000000007685,0.7838999999985106,0.8008999999985065,0.8161999999992702,0.832399999998529,0.8495999999977641,0.8676999999992745,0.8823999999985119,0.8996999999992568,0.917099999997788,0.9330999999977792,0.9495000000000005,0.9676999999992688,0.9846999999992647,1.0010000000000048,1.0161999999992588,1.0330000000000155,1.0506999999992672,1.0661999999992702,1.0828000000007592,1.099800000000755,1.1160999999977719,1.1331999999992775,1.1498999999985244,1.1676999999992574,1.184800000000763,1.1991999999992515]",,0,0,0,0,1,,,,
,,,,,,,,,,,,,,, PAV-0016,2022-11-03_14h26.25.925,GoFitts,2022.1.4,Win32,59.76214666,,,,,"[-62.50000000000006,-108.25317547305481]","[38.62712429686843,118.88206453689419]",71.5,250,2,"[-68,-58,-53,-42,-26,-7,-1,-1,-4,-13,-21,-30,-45,-62,-79,-87,-89,-90,-89,-86,-83,-78,-75,-60,-45,-27,-10,10,30,51,65,73,75,75,72,68,67,67,67,65,63,59,57,52,49]","[-136,-138,-139,-141,-141,-141,-141,-141,-140,-137,-134,-134,-132,-129,-123,-120,-117,-115,-114,-112,-110,-106,-103,-90,-81,-70,-58,-45,-30,-8,18,41,52,56,59,63,66,68,72,74,75,77,80,83,96]","[0,0,0,0,0,0,0,0,0,0,0,0,0,0,0,0,0,0,0,0,0,0,0,0,0,0,0,0,0,0,0,0,0,0,0,0,0,0,0,0,0,0,0,0,0]","[0,0,0,0,0,0,0,0,0,0,0,0,0,0,0,0,0,0,0,0,0,0,0,0,0,0,0,0,0,0,0,0,0,0,0,0,0,0,0,0,0,0,0,0,0]","[0,0,0,0,0,0,0,0,0,0,0,0,0,0,0,0,0,0,0,0,0,0,0,0,0,0,0,0,0,0,0,0,0,0,0,0,0,0,0,0,0,0,0,0,0]","[0.00040000000223017196,0.017600000001465332,0.03330000000073596,0.04999999999998295,0.06799999999998363,0.0837000000029775,0.09980000000072664,0.11680000000072255,0.13480000000072323,0.15049999999999386,0.16740000000223176,0.18440000000222767,0.1996000000014817,0.2163000000007287,0.23360000000147352,0.25010000000148125,0.2669999999999959,0.2836000000014849,0.30030000000073187,0.3167000000029816,0.33310000000147966,0.35110000000148034,0.36720000000298114,0.38430000000073505,0.399800000000738,0.4167000000029759,0.433100000001474,0.44980000000072096,0.4671000000014658,0.48480000000074597,0.5017000000029554,0.5180000000000007,0.5334999999999752,0.549999999999983,0.5667000000029816,0.5846000000014726,0.6014999999999873,0.6183000000007439,0.6351000000014722,0.6514999999999986,0.6670000000000016,0.6836000000014906,0.699700000002963,0.7176000000014824,0.7344000000022106]",,1,0,1,0,1,,,,
,,,,,,,,,,,,,,, PAV-0016,2022-11-03_14h26.25.925,GoFitts,2022.1.4,Win32,59.76214666,,,,,"[38.62712429686843,118.88206453689419]","[-13.066057908456779,-124.31523692103416]",71.5,250,2,"[49,49,49,49,49,49,49,49,50,50,50,48,47,46,45,45,45,42,38,31,22,14,-1,-12,-22,-33,-39,-45,-46,-44,-40,-37,-34]","[96,106,110,116,121,121,121,123,124,129,136,141,142,143,143,143,143,141,135,121,98,69,42,21,0,-24,-32,-57,-72,-82,-91,-96,-100]","[0,0,0,0,0,0,0,0,0,0,0,0,0,0,0,0,0,0,0,0,0,0,0,0,0,0,0,0,0,0,0,0,0]","[0,0,0,0,0,0,0,0,0,0,0,0,0,0,0,0,0,0,0,0,0,0,0,0,0,0,0,0,0,0,0,0,0]","[0,0,0,0,0,0,0,0,0,0,0,0,0,0,0,0,0,0,0,0,0,0,0,0,0,0,0,0,0,0,0,0,0]","[0,0.01689999999851466,0.03209999999776869,0.048799999997015675,0.06619999999927018,0.08200000000002206,0.09859999999775937,0.11549999999999727,0.13229999999703068,0.14839999999853148,0.1662999999970225,0.18250000000000455,0.19829999999703318,0.21569999999925926,0.232299999997025,0.24859999999776505,0.26519999999925403,0.2820000000000107,0.29869999999925767,0.3152999999970234,0.333599999997773,0.34909999999777597,0.3660999999977719,0.3821999999992727,0.3991999999992686,0.4162999999970225,0.4323999999985233,0.4495999999977869,0.4647999999970409,0.4827999999970416,0.5005000000000166,0.5165000000000077,0.5320000000000107]",,2,0,2,0,1,,,,
,,,,,,,,,,,,,,, PAV-0016,2022-11-03_14h26.25.925,GoFitts,2022.1.4,Win32,59.76214666,,,,,"[-13.066057908456779,-124.31523692103416]","[-13.066057908456667,124.31523692103417]",71.5,250,2,"[-34,-30,-26,-22,-19,-13,-3,9,14,15,15,12,11,9,8,8,7,6,5,2,2,1,8,18,26,30,34,37,38,38,37,36,34,33,32,30,25,19,10]","[-100,-103,-105,-105,-108,-112,-119,-126,-129,-129,-130,-130,-131,-131,-131,-131,-131,-131,-131,-131,-131,-129,-118,-97,-56,-10,23,47,67,81,92,100,102,103,103,104,104,104,104]","[0,0,0,0,0,0,0,0,0,0,0,0,0,0,0,0,0,0,0,0,0,0,0,0,0,0,0,0,0,0,0,0,0,0,0,0,0,0,0]","[0,0,0,0,0,0,0,0,0,0,0,0,0,0,0,0,0,0,0,0,0,0,0,0,0,0,0,0,0,0,0,0,0,0,0,0,0,0,0]","[0,0,0,0,0,0,0,0,0,0,0,0,0,0,0,0,0,0,0,0,0,0,0,0,0,0,0,0,0,0,0,0,0,0,0,0,0,0,0]","[0.0002999999970256795,0.01879999999704296,0.03499999999999659,0.05129999999704182,0.06809999999777006,0.08679999999702659,0.10089999999851784,0.11809999999778142,0.13409999999777256,0.1492999999970266,0.1662999999970225,0.1831999999992604,0.20089999999851216,0.21619999999927586,0.23319999999927177,0.2502999999970257,0.2666999999992754,0.28300000000001546,0.2995999999977812,0.3160000000000025,0.3326999999992779,0.34909999999777597,0.3671999999992579,0.3830000000000098,0.3995000000000175,0.41669999999925267,0.43309999999777915,0.4498999999985074,0.46759999999778756,0.4830000000000041,0.4991999999992629,0.5169999999999959,0.5325999999977853,0.5510000000000161,0.5678999999985308,0.5832999999970241,0.6005000000000109,0.616500000000002,0.6328999999985285]",,3,0,3,0,1,,,,
,,,,,,,,,,,,,,, PAV-0016,2022-11-03_14h26.25.925,GoFitts,2022.1.4,Win32,59.76214666,,,,,"[-13.066057908456667,124.31523692103417]","[38.6271242968684,-118.8820645368942]",71.5,250,2,"[10,-5,-17,-35,-37,-39,-40,-40,-40,-37,-36,-35,-34,-34,-34,-34,-34,-34,-30,-25,-20,-16,-12,-2,8,24,27,31,36]","[104,103,103,107,108,111,113,115,118,121,123,124,124,124,124,124,124,124,118,105,85,59,35,12,-12,-46,-57,-74,-90]","[0,0,0,0,0,0,0,0,0,0,0,0,0,0,0,0,0,0,0,0,0,0,0,0,0,0,0,0,0]","[0,0,0,0,0,0,0,0,0,0,0,0,0,0,0,0,0,0,0,0,0,0,0,0,0,0,0,0,0]","[0,0,0,0,0,0,0,0,0,0,0,0,0,0,0,0,0,0,0,0,0,0,0,0,0,0,0,0,0]","[0.00040000000223017196,0.017200000002986826,0.03320000000297796,0.05030000000073187,0.06610000000148375,0.08380000000073551,0.09930000000073846,0.11780000000072732,0.13299999999998136,0.14949999999998909,0.16620000000298774,0.18410000000147875,0.2009999999999934,0.21620000000297068,0.2327000000029784,0.2494999999999834,0.26590000000223313,0.2828000000007478,0.29940000000223677,0.31740000000223745,0.33280000000073073,0.34950000000000614,0.3675000000000068,0.3841000000014958,0.3994999999999891,0.41749999999998977,0.4329000000022347,0.44970000000296295,0.46770000000296363]",,4,0,4,0,1,,,,
,,,,,,,,,,,,,,, PAV-0016,2022-11-03_14h26.25.925,GoFitts,2022.1.4,Win32,59.76214666,,,,,"[38.6271242968684,-118.8820645368942]","[-62.49999999999997,108.25317547305484]",71.5,250,2,"[36,37,39,40,40,40,40,40,41,43,44,47,48,48,48,48,47,46,45,42,37,26,-4,-8,-13,-16,-16,-14,-10,-7,-7,-7,-10,-12,-14,-14,-18,-31,-45]","[-90,-95,-100,-105,-109,-111,-112,-112,-112,-120,-129,-133,-134,-134,-134,-133,-131,-131,-129,-122,-114,-96,-39,-29,-4,6,12,19,28,35,41,43,47,50,51,53,59,75,88]","[0,0,0,0,0,0,0,0,0,0,0,0,0,0,0,0,0,0,0,0,0,0,0,0,0,0,0,0,0,0,0,0,0,0,0,0,0,0,0]","[0,0,0,0,0,0,0,0,0,0,0,0,0,0,0,0,0,0,0,0,0,0,0,0,0,0,0,0,0,0,0,0,0,0,0,0,0,0,0]","[0,0,0,0,0,0,0,0,0,0,0,0,0,0,0,0,0,0,0,0,0,0,0,0,0,0,0,0,0,0,0,0,0,0,0,0,0,0,0]","[0.0002000000029909188,0.01620000000298205,0.031400000002236084,0.04770000000297614,0.0646000000014908,0.08150000000000546,0.09840000000224336,0.11510000000149034,0.13170000000297932,0.14880000000076166,0.16530000000074097,0.18140000000224177,0.19849999999999568,0.21480000000073574,0.23150000000001114,0.2478000000007512,0.2650000000000148,0.28160000000150376,0.2985000000000184,0.3159000000022445,0.3312000000029798,0.3488000000007503,0.36600000000001387,0.3816000000014981,0.39920000000299183,0.4146000000014851,0.43110000000149284,0.4480000000000075,0.46520000000299433,0.48170000000297364,0.49960000000149307,0.5150000000000148,0.5324000000022409,0.5490000000000066,0.5658000000007632,0.5813000000007378,0.5986000000014826,0.6156000000015069,0.6309000000022422]",,5,0,5,0,1,,,,
