key_resp_4.keys,key_resp_4.rt,mouse_2.x,mouse_2.y,mouse_2.leftButton,mouse_2.midButton,mouse_2.rightButton,mouse_2.time,cont.keys,cont.rt,retry_testing.thisRepN,retry_testing.thisTrialN,retry_testing.thisN,retry_testing.thisIndex,retry_testing.ran,受試者編號,date,expName,psychopyVersion,OS,frameRate,key_resp.keys,key_resp.rt,key_resp_3.keys,key_resp_3.rt,from,to,w,a,sequence_loop.thisN,mouse.x,mouse.y,mouse.leftButton,mouse.midButton,mouse.rightButton,mouse.time,key_resp_2.keys,trial_loop.thisRepN,trial_loop.thisTrialN,trial_loop.thisN,trial_loop.thisIndex,trial_loop.ran,sequence_loop.thisRepN,sequence_loop.thisTrialN,sequence_loop.thisIndex,sequence_loop.ran
return,2.9686,"[215,215,215,215,215,215,215,215,215,215,215,215,215,215,215,215,215,215,215,215,215,215,215,215,215,215,215,215,215,215,215,215,215,215,215,215,215,215,215,213,212,220,231,241,242,271,331,397,433,455,465,466,466,459,455,454,450,447,422,405,395,386,383,383,383,383,383,383,383,381,378,372,365,361,360,360,360,360,360,361,363,363,363,364,364,364,364,364,364,363,354,330,239,193,101,34,22,15,10,10,9,-18,-56,-119,-181,-228,-231,-233,-233,-233,-233,-233,-233,-217,-176,-127,-95,-64,-58,-54,-53,-53,-53,-53,-53,-53,-53,-53,-53,-43,-32,42,92,111,112,112,101,78,58,31,27,18,14,11,10,10,10,10,10,10,10,10,10,9,8,8,8,8,8,7,-6,-34,-92,-174,-273,-416,-481,-505,-508,-506,-495,-480,-466,-454,-444,-438,-433,-415,-406,-379,-368,-364,-362,-362,-362,-362,-361,-361,-358,-358,-358,-358,-358,-358,-358,-358,-358,-358,-358,-357,-344,-295,-270,-175,-103,-41,2,24,32,34,35,35,35,35,35,35,27,12]","[-80,-80,-80,-80,-80,-80,-80,-80,-80,-80,-80,-80,-80,-80,-80,-80,-80,-80,-80,-80,-80,-80,-80,-80,-80,-80,-80,-80,-80,-80,-80,-80,-80,-80,-80,-80,-80,-80,-80,-77,-56,-38,-25,-20,-20,-20,-22,-22,-21,-18,-16,-16,-16,-16,-16,-16,-16,-16,-13,-13,-13,-13,-13,-13,-13,-13,-13,-13,-12,-9,-7,0,6,9,11,11,11,11,11,11,11,11,11,11,8,6,4,4,4,3,1,-2,-2,-2,7,28,44,63,84,104,131,200,270,354,434,514,525,533,533,533,533,533,533,512,474,439,421,403,400,397,396,396,396,396,396,396,396,396,396,386,378,342,325,319,318,318,322,329,335,341,343,346,348,349,350,350,350,350,350,350,350,350,350,350,350,350,350,350,350,347,331,306,262,202,124,7,-52,-81,-90,-94,-95,-93,-87,-79,-69,-63,-58,-44,-40,-23,-14,-8,-4,-2,0,0,0,1,2,2,2,2,2,2,2,2,2,2,2,0,-19,-80,-105,-188,-243,-281,-311,-329,-338,-341,-342,-342,-342,-342,-342,-342,-347,-355]","[0,0,0,0,0,0,0,0,0,0,0,0,0,0,0,0,0,0,0,0,0,0,0,0,0,0,0,0,0,0,0,0,0,0,0,0,0,0,0,0,0,0,0,0,0,0,0,0,0,0,0,0,0,0,0,0,0,0,0,0,0,0,0,0,0,0,0,0,0,0,0,0,0,0,0,0,0,0,0,0,0,0,0,0,0,0,0,0,0,0,0,0,0,0,0,0,0,0,0,0,0,0,0,0,0,0,0,0,0,0,0,0,0,0,0,0,0,0,0,0,0,0,0,0,0,0,0,0,0,0,0,0,0,0,0,0,0,0,0,0,0,0,0,0,0,0,0,0,0,0,0,0,0,0,0,0,0,0,0,0,0,0,0,0,0,0,0,0,0,0,0,0,0,0,0,0,0,0,0,0,0,0,0,0,0,0,0,0,0,0,0,0,0,0,0,0,0,0,0,0,0,0,0,0,0,0,0,0,0,0,0,0,0,0,0,0,0,0]","[0,0,0,0,0,0,0,0,0,0,0,0,0,0,0,0,0,0,0,0,0,0,0,0,0,0,0,0,0,0,0,0,0,0,0,0,0,0,0,0,0,0,0,0,0,0,0,0,0,0,0,0,0,0,0,0,0,0,0,0,0,0,0,0,0,0,0,0,0,0,0,0,0,0,0,0,0,0,0,0,0,0,0,0,0,0,0,0,0,0,0,0,0,0,0,0,0,0,0,0,0,0,0,0,0,0,0,0,0,0,0,0,0,0,0,0,0,0,0,0,0,0,0,0,0,0,0,0,0,0,0,0,0,0,0,0,0,0,0,0,0,0,0,0,0,0,0,0,0,0,0,0,0,0,0,0,0,0,0,0,0,0,0,0,0,0,0,0,0,0,0,0,0,0,0,0,0,0,0,0,0,0,0,0,0,0,0,0,0,0,0,0,0,0,0,0,0,0,0,0,0,0,0,0,0,0,0,0,0,0,0,0,0,0,0,0,0,0]","[0,0,0,0,0,0,0,0,0,0,0,0,0,0,0,0,0,0,0,0,0,0,0,0,0,0,0,0,0,0,0,0,0,0,0,0,0,0,0,0,0,0,0,0,0,0,0,0,0,0,0,0,0,0,0,0,0,0,0,0,0,0,0,0,0,0,0,0,0,0,0,0,0,0,0,0,0,0,0,0,0,0,0,0,0,0,0,0,0,0,0,0,0,0,0,0,0,0,0,0,0,0,0,0,0,0,0,0,0,0,0,0,0,0,0,0,0,0,0,0,0,0,0,0,0,0,0,0,0,0,0,0,0,0,0,0,0,0,0,0,0,0,0,0,0,0,0,0,0,0,0,0,0,0,0,0,0,0,0,0,0,0,0,0,0,0,0,0,0,0,0,0,0,0,0,0,0,0,0,0,0,0,0,0,0,0,0,0,0,0,0,0,0,0,0,0,0,0,0,0,0,0,0,0,0,0,0,0,0,0,0,0,0,0,0,0,0,0]","[0.0019999999999988916,0.012000000000000455,0.01780000000004378,0.03500000000000014,0.05010000000009285,0.06700000000000017,0.08380000000004628,0.10180000000004696,0.11720000000018516,0.13449999999999918,0.15030000000004407,0.16740000000013922,0.1849000000001375,0.20170000000018362,0.21830000000004546,0.23330000000004603,0.2502000000001843,0.2671000000000916,0.28380000000004557,0.30010000000009285,0.31700000000000017,0.3338000000000463,0.35050000000000026,0.36690000000013967,0.383800000000047,0.40030000000004407,0.41830000000004475,0.43380000000004415,0.4504000000001369,0.46690000000013754,0.4853000000000449,0.5004999999999988,0.5169000000001382,0.5350000000000001,0.5519000000001384,0.566900000000139,0.5837000000001851,0.600400000000139,0.6169000000001397,0.6341000000000925,0.6513000000000453,0.6676000000000926,0.6852000000001865,0.7016000000000915,0.7174000000001399,0.7347000000001849,0.7511000000000934,0.7694000000001395,0.7859000000001402,0.8022000000001839,0.8204000000001379,0.8352000000001851,0.8511000000000912,0.8679000000001373,0.8847000000001835,0.9004999999999974,0.9183000000000447,0.9338000000000442,0.9533000000000449,0.9667000000001842,0.9846000000000927,1.000600000000091,1.019700000000185,1.0335,1.0529999999999973,1.0667000000001856,1.0839000000001384,1.1011000000000912,1.1179000000001373,1.1336000000000936,1.151100000000092,1.1681000000000914,1.1864000000001376,1.2044000000001382,1.220100000000091,1.236200000000185,1.2532000000001844,1.2694000000001395,1.2835,1.3007000000001838,1.317499999999999,1.3367000000001852,1.3532000000001858,1.3673000000000464,1.386800000000047,1.4036000000000932,1.416999999999998,1.4359000000001387,1.4502000000001836,1.4673000000000442,1.4852000000001837,1.5007000000001867,1.5181000000000928,1.5338000000000456,1.5504000000001383,1.568400000000139,1.5852000000001851,1.600300000000047,1.6179000000001373,1.6339000000001391,1.6519000000001398,1.668499999999998,1.6849999999999987,1.7004999999999981,1.7173000000000442,1.7346000000000927,1.7504000000001376,1.7684000000001383,1.7839000000001377,1.8003000000000462,1.816900000000139,1.8334999999999972,1.8502000000001857,1.8674000000001385,1.8847000000001835,1.9004999999999974,1.9175000000000004,1.934600000000092,1.950400000000137,1.9677000000001854,1.9849000000001382,2.0019000000001377,2.016700000000185,2.0335,2.050900000000137,2.0682000000001857,2.083600000000093,2.100400000000139,2.1181000000000907,2.134900000000137,2.1504999999999974,2.1688000000000436,2.185300000000044,2.2006000000000903,2.21740000000014,2.234700000000185,2.2523000000000444,2.268300000000046,2.2842000000001867,2.301499999999997,2.3173000000000457,2.3346000000000906,2.352300000000046,2.3688000000000464,2.384900000000137,2.3999000000001374,2.416900000000137,2.434700000000184,2.450400000000137,2.467100000000091,2.4836000000000915,2.5017000000001843,2.5172000000001837,2.5338000000000456,2.5518000000000463,2.566900000000139,2.583700000000185,2.600400000000139,2.617100000000093,2.6340000000000003,2.6513000000000453,2.667300000000047,2.6852000000001865,2.7016000000000915,2.7183000000000455,2.7352000000001837,2.7515,2.7684000000001383,2.784100000000091,2.8009999999999984,2.81790000000014,2.8341000000000918,2.8516000000000936,2.8682000000001864,2.8846000000000913,2.9004000000001398,2.9176000000000926,2.9345,2.950499999999998,2.9684000000001376,2.985400000000137,3.0009999999999977,3.0184999999999995,3.0352000000001844,3.050300000000046,3.066900000000139,3.085100000000093,3.1022000000001846,3.1189999999999998,3.134900000000137,3.1514000000001374,3.16710000000009,3.1837000000001865,3.200499999999998,3.2168000000000454,3.2336000000000915,3.2518000000000455,3.2672000000001837,3.2837000000001844,3.300900000000137,3.3187000000001845,3.335200000000185,3.3507000000001845,3.367100000000093,3.3846000000000913,3.4016000000000908,3.4183000000000447,3.4339999999999975,3.4511000000000926,3.468100000000092,3.4841000000000903,3.501999999999999,3.5172000000001837,3.53440000000014,3.551600000000093,3.566900000000139,3.5849999999999973,3.6006000000000924]",return,2.4028,0,0,0,0,1,PAV-0015,2022-11-01_16h31.55.119,GoFitts,2022.1.4,Win32,59.99160118,,,,,,,,,,,,,,,,,,,,,,,,,
,,,,,,,,,,,,,,,PAV-0015,2022-11-01_16h31.55.119,GoFitts,2022.1.4,Win32,59.99160118,return,1.1458,return,1.4847,"[37,-270]","[-122.26845009172571,25.988961352219913]",71.5,250,0,"[37,37,37,37,37,37,37,37,37,37,37,37,37,37,37,37,36,36,29,19,14,12,7,-8,-27,-52,-58,-61,-67,-71,-75,-75,-78,-81,-86,-86,-86,-86,-89,-98,-100,-105]","[-270,-270,-270,-270,-270,-270,-270,-270,-270,-270,-270,-270,-270,-270,-270,-270,-269,-269,-247,-219,-190,-161,-134,-114,-95,-80,-78,-77,-76,-76,-76,-76,-73,-66,-49,-43,-28,-23,-12,-4,-2,0]","[0,0,0,0,0,0,0,0,0,0,0,0,0,0,0,0,0,0,0,0,0,0,0,0,0,0,0,0,0,0,0,0,0,0,0,0,0,0,0,0,0,0]","[0,0,0,0,0,0,0,0,0,0,0,0,0,0,0,0,0,0,0,0,0,0,0,0,0,0,0,0,0,0,0,0,0,0,0,0,0,0,0,0,0,0]","[0,0,0,0,0,0,0,0,0,0,0,0,0,0,0,0,0,0,0,0,0,0,0,0,0,0,0,0,0,0,0,0,0,0,0,0,0,0,0,0,0,0]","[0.0012000000001819444,0.0167000000001849,0.03249999999999886,0.04899999999999949,0.06590000000014129,0.08240000000014192,0.10000000000000142,0.11660000000009063,0.13240000000013907,0.14980000000004878,0.1657000000001858,0.18230000000004765,0.19910000000009376,0.21570000000018297,0.2325000000000017,0.24910000000009092,0.2672000000001873,0.28270000000018314,0.29960000000009046,0.31720000000018445,0.3328000000000486,0.3506000000000924,0.3673000000000428,0.38260000000008887,0.3994999999999962,0.4171000000000902,0.4338000000000477,0.44890000000013686,0.46570000000018297,0.48390000000014055,0.5004999999999953,0.5158000000000484,0.53290000000014,0.5506000000000952,0.5676000000000911,0.5837000000001851,0.6009000000001379,0.6154999999999973,0.6322000000001822,0.6501000000000943,0.6674000000001357,0.6826000000000931]",,0,0,0,0,1,,,,
,,,,,,,,,,,,,,,PAV-0015,2022-11-01_16h31.55.119,GoFitts,2022.1.4,Win32,59.99160118,,,,,"[-122.26845009172571,25.988961352219913]","[125,0]",71.5,250,0,"[-105,-109,-112,-116,-118,-122,-123,-125,-126,-126,-126,-124,-123,-121,-118,-112,-105,-98,-93,-84,-52,-39,-5,14,31,42,53,64,71,76,80,82,90,92]","[0,0,0,0,0,3,3,7,9,10,12,13,14,15,16,17,17,18,19,19,19,19,16,12,11,10,10,10,10,10,9,9,8,8]","[0,0,0,0,0,0,0,0,0,0,0,0,0,0,0,0,0,0,0,0,0,0,0,0,0,0,0,0,0,0,0,0,0,0]","[0,0,0,0,0,0,0,0,0,0,0,0,0,0,0,0,0,0,0,0,0,0,0,0,0,0,0,0,0,0,0,0,0,0]","[0,0,0,0,0,0,0,0,0,0,0,0,0,0,0,0,0,0,0,0,0,0,0,0,0,0,0,0,0,0,0,0,0,0]","[0.00030000000005259153,0.0173000000000485,0.03319999999995815,0.05069999999995645,0.06769999999995946,0.08419999999996008,0.09910000000009944,0.11630000000005225,0.13400000000000034,0.1493999999999076,0.16619999999995372,0.1838000000000477,0.19969999999995736,0.21719999999995565,0.23430000000004725,0.25130000000005026,0.2673000000000485,0.28389999999991034,0.2993000000000521,0.3163999999999092,0.3338000000000534,0.34919999999995355,0.36619999999995656,0.38389999999991176,0.3996999999999602,0.417500000000004,0.43339999999991363,0.45030000000004833,0.4663999999999078,0.4838999999999132,0.5013999999999115,0.516399999999912,0.5335000000000036,0.5491000000000952]",,1,0,1,0,1,,,,
,,,,,,,,,,,,,,,PAV-0015,2022-11-01_16h31.55.119,GoFitts,2022.1.4,Win32,59.99160118,,,,,"[125,0]","[-122.26845009172571,-25.98896135221988]",71.5,250,0,"[92,93,93,94,102,108,113,116,119,123,124,124,124,124,120,114,101,81,56,20,-25,-47,-59,-63,-63,-64,-64,-65,-66,-68,-70,-72,-73,-74,-79,-80,-85,-88,-90,-91]","[8,8,8,8,7,5,5,4,3,2,1,1,1,1,0,0,-8,-19,-31,-48,-59,-61,-61,-60,-60,-57,-56,-55,-54,-52,-49,-46,-45,-44,-43,-43,-43,-42,-42,-42]","[0,0,0,0,0,0,0,0,0,0,0,0,0,0,0,0,0,0,0,0,0,0,0,0,0,0,0,0,0,0,0,0,0,0,0,0,0,0,0,0]","[0,0,0,0,0,0,0,0,0,0,0,0,0,0,0,0,0,0,0,0,0,0,0,0,0,0,0,0,0,0,0,0,0,0,0,0,0,0,0,0]","[0,0,0,0,0,0,0,0,0,0,0,0,0,0,0,0,0,0,0,0,0,0,0,0,0,0,0,0,0,0,0,0,0,0,0,0,0,0,0,0]","[0.0003999999999066972,0.017499999999998295,0.03310000000009694,0.05150000000000432,0.06630000000004799,0.08489999999990516,0.10030000000004691,0.11769999999995662,0.13389999999991176,0.15069999999995787,0.1668000000000447,0.18319999999995673,0.2010000000000005,0.21680000000004895,0.23380000000004486,0.2510000000000048,0.26610000000009393,0.28350000000000364,0.30100000000000193,0.3168999999999116,0.33460000000009416,0.35160000000009717,0.3678000000000452,0.38319999999995247,0.40010000000009427,0.417500000000004,0.4350000000000023,0.4516999999999527,0.46669999999995326,0.48419999999995156,0.5001999999999569,0.5168999999999073,0.5339999999999989,0.5500000000000043,0.5673999999999069,0.5836999999999577,0.6008000000000493,0.616500000000002,0.6345000000000027,0.6501000000000943]",,2,0,2,0,1,,,,
,,,,,,,,,,,,,,,PAV-0015,2022-11-01_16h31.55.119,GoFitts,2022.1.4,Win32,59.99160118,,,,,"[-122.26845009172571,-25.98896135221988]","[114.19318220532512,50.84208038447502]",71.5,250,0,"[-91,-91,-92,-93,-94,-95,-95,-95,-95,-95,-102,-110,-118,-118,-116,-98,-76,-41,1,45,88]","[-42,-42,-42,-42,-42,-41,-41,-41,-41,-41,-36,-32,-27,-26,-25,-23,-15,-5,9,24,42]","[0,0,0,0,0,0,0,0,0,0,0,0,0,0,0,0,0,0,0,0,0]","[0,0,0,0,0,0,0,0,0,0,0,0,0,0,0,0,0,0,0,0,0]","[0,0,0,0,0,0,0,0,0,0,0,0,0,0,0,0,0,0,0,0,0]","[0.0006999999999521833,0.01719999999995281,0.033199999999951046,0.05019999999995406,0.06739999999990687,0.08250000000000313,0.10050000000000381,0.11599999999999966,0.13280000000004577,0.1493999999999076,0.1673999999999083,0.1844999999999999,0.19910000000009376,0.21650000000000347,0.2328999999999084,0.25099999999999767,0.26610000000009393,0.28300000000000125,0.30010000000009285,0.3163999999999092,0.3336000000000965]",,3,0,3,0,1,,,,
,,,,,,,,,,,,,,,PAV-0015,2022-11-01_16h31.55.119,GoFitts,2022.1.4,Win32,59.99160118,,,,,"[114.19318220532512,50.84208038447502]","[-101.12712429686843,-73.47315653655913]",71.5,250,0,"[88,101,106,107,111,114,118,120,121,121,121,121,121,121,116,112,105,95,87,72,53,18,-34,-113]","[42,50,53,54,56,58,60,61,62,62,62,62,62,62,62,61,60,58,52,37,18,-9,-44,-88]","[0,0,0,0,0,0,0,0,0,0,0,0,0,0,0,0,0,0,0,0,0,0,0,0]","[0,0,0,0,0,0,0,0,0,0,0,0,0,0,0,0,0,0,0,0,0,0,0,0]","[0,0,0,0,0,0,0,0,0,0,0,0,0,0,0,0,0,0,0,0,0,0,0,0]","[0.0006000000000909722,0.0173000000000485,0.03160000000008978,0.049400000000140665,0.06550000000000011,0.08370000000018507,0.10010000000009,0.11580000000004986,0.13230000000004338,0.1490000000000009,0.16540000000014032,0.18190000000014095,0.19899999999999807,0.21540000000013748,0.23370000000018365,0.25,0.26470000000018956,0.2820000000000036,0.30030000000004975,0.31710000000009586,0.33190000000013953,0.3502000000001857,0.36540000000014317,0.38320000000018695]",,4,0,4,0,1,,,,
,,,,,,,,,,,,,,,PAV-0015,2022-11-01_16h31.55.119,GoFitts,2022.1.4,Win32,59.99160118,,,,,"[-101.12712429686843,-73.47315653655913]","[83.64132579485728,92.89310318467427]",71.5,250,0,"[-113,-155,-181,-189,-190,-190,-190,-187,-186,-181,-159,-137,-126,-99,-90,-79,-73,-66,-58,-50,-37,-21,-6,15,26,30,41,48,51]","[-88,-109,-119,-122,-122,-122,-122,-121,-121,-120,-112,-102,-96,-82,-75,-67,-60,-50,-37,-22,-6,10,24,44,52,59,78,84,88]","[0,0,0,0,0,0,0,0,0,0,0,0,0,0,0,0,0,0,0,0,0,0,0,0,0,0,0,0,0]","[0,0,0,0,0,0,0,0,0,0,0,0,0,0,0,0,0,0,0,0,0,0,0,0,0,0,0,0,0]","[0,0,0,0,0,0,0,0,0,0,0,0,0,0,0,0,0,0,0,0,0,0,0,0,0,0,0,0,0]","[0.0003000000000454861,0.01680000000004611,0.03180000000004668,0.04970000000018615,0.06510000000009342,0.083300000000051,0.09799999999999898,0.11490000000014078,0.1318000000000481,0.14990000000014447,0.1666000000000949,0.18330000000004532,0.19820000000019178,0.21610000000009677,0.23180000000004952,0.2494000000001435,0.26510000000009626,0.28350000000000364,0.30060000000009524,0.3168000000000504,0.333300000000051,0.34880000000004685,0.36680000000004753,0.38370000000018933,0.3999000000001445,0.41490000000014504,0.43299999999999983,0.4485000000000028,0.46620000000018536]",,5,0,5,0,1,,,,
,,,,,,,,,,,,,,,PAV-0015,2022-11-01_16h31.55.119,GoFitts,2022.1.4,Win32,59.99160118,,,,,"[83.64132579485728,92.89310318467427]","[-62.50000000000006,-108.25317547305481]",71.5,250,0,"[51,53,53,53,53,53,53,53,53,53,53,53,53,53,44,31,22,13,0,-17,-48,-59,-91,-102,-109,-114,-114,-114,-114,-114,-114,-113,-110,-106,-89]","[88,89,89,89,89,89,89,89,89,89,89,89,89,89,89,87,86,83,71,51,12,-4,-62,-100,-130,-153,-166,-173,-175,-176,-176,-176,-164,-156,-131]","[0,0,0,0,0,0,0,0,0,0,0,0,0,0,0,0,0,0,0,0,0,0,0,0,0,0,0,0,0,0,0,0,0,0,0]","[0,0,0,0,0,0,0,0,0,0,0,0,0,0,0,0,0,0,0,0,0,0,0,0,0,0,0,0,0,0,0,0,0,0,0]","[0,0,0,0,0,0,0,0,0,0,0,0,0,0,0,0,0,0,0,0,0,0,0,0,0,0,0,0,0,0,0,0,0,0,0]","[0.00019999999995690132,0.017000000000003013,0.03139999999991261,0.04800000000000182,0.06689999999991159,0.08180000000005094,0.09960000000009472,0.11510000000009768,0.13310000000009836,0.15039999999991238,0.16500000000000625,0.18160000000009546,0.198300000000053,0.2150000000000034,0.23200000000000642,0.2498000000000502,0.2666999999999575,0.2820000000000036,0.2996999999999588,0.315699999999957,0.3330000000000055,0.34850000000000136,0.36669999999995895,0.38310000000009836,0.39839999999990994,0.4165000000000063,0.4318999999999136,0.4481999999999573,0.4653999999999101,0.4833999999999108,0.4998999999999114,0.5171999999999599,0.5333000000000467,0.5483000000000473,0.5653000000000503]",,6,0,6,0,1,,,,
,,,,,,,,,,,,,,,PAV-0015,2022-11-01_16h31.55.119,GoFitts,2022.1.4,Win32,59.99160118,,,,,"[-62.50000000000006,-108.25317547305481]","[38.62712429686843,118.88206453689419]",71.5,250,0,"[-89,-72,-51,-34,-27,-25,-25,-25,-25,-25,-26,-29,-32,-37,-40,-40,-41,-40,-28,-13,4,32]","[-131,-111,-85,-63,-50,-45,-44,-44,-44,-44,-44,-44,-47,-54,-56,-56,-46,-18,18,51,77,134]","[0,0,0,0,0,0,0,0,0,0,0,0,0,0,0,0,0,0,0,0,0,0]","[0,0,0,0,0,0,0,0,0,0,0,0,0,0,0,0,0,0,0,0,0,0]","[0,0,0,0,0,0,0,0,0,0,0,0,0,0,0,0,0,0,0,0,0,0]","[0.000299999999811007,0.017899999999904992,0.03450000000000131,0.04919999999995639,0.06629999999981351,0.08469999999995537,0.09929999999981476,0.11609999999986087,0.13289999999990698,0.1495000000000033,0.16619999999995372,0.1839999999999975,0.19959999999986167,0.21639999999990778,0.23409999999986297,0.25219999999995224,0.2676999999999552,0.282799999999817,0.30129999999981294,0.3161999999999523,0.3340999999998573,0.3515000000000015]",,7,0,7,0,1,,,,
,,,,,,,,,,,,,,,PAV-0015,2022-11-01_16h31.55.119,GoFitts,2022.1.4,Win32,59.99160118,,,,,"[38.62712429686843,118.88206453689419]","[-13.066057908456779,-124.31523692103416]",71.5,250,0,"[32,44,57,62,64,64,64,64,64,64,64,62,59,46,41,27,18,14,12,10,6,4,2,-6,-9,-20,-31]","[134,166,190,204,209,210,210,210,210,210,210,210,203,179,169,136,114,95,80,62,43,16,-12,-52,-64,-87,-113]","[0,0,0,0,0,0,0,0,0,0,0,0,0,0,0,0,0,0,0,0,0,0,0,0,0,0,0]","[0,0,0,0,0,0,0,0,0,0,0,0,0,0,0,0,0,0,0,0,0,0,0,0,0,0,0]","[0,0,0,0,0,0,0,0,0,0,0,0,0,0,0,0,0,0,0,0,0,0,0,0,0,0,0]","[0.0004000000001411763,0.01620000000018962,0.03080000000004901,0.04790000000014061,0.0658000000000456,0.08120000000018734,0.09760000000009228,0.11570000000018865,0.13270000000018456,0.14750000000000085,0.16410000000009717,0.18220000000018644,0.1977000000001894,0.21570000000019007,0.23100000000000165,0.24750000000000227,0.26599999999999824,0.28249999999999886,0.2976000000000951,0.31420000000019144,0.33110000000009165,0.34949999999999903,0.36620000000019104,0.382600000000096,0.39750000000000085,0.41470000000018814,0.4327000000001888]",,8,0,8,0,1,,,,
,,,,,,,,,,,,,,,PAV-0015,2022-11-01_16h31.55.119,GoFitts,2022.1.4,Win32,59.99160118,,,,,"[-13.066057908456779,-124.31523692103416]","[-13.066057908456667,124.31523692103417]",71.5,250,0,"[-31,-33,-33,-33,-33,-34,-35,-36,-37,-37,-37,-37,-41,-42,-42,-40,-39,-39,-39,-41,-43,-45]","[-113,-123,-125,-125,-125,-124,-123,-122,-122,-122,-122,-122,-107,-88,-64,-33,-2,29,56,81,99,118]","[0,0,0,0,0,0,0,0,0,0,0,0,0,0,0,0,0,0,0,0,0,0]","[0,0,0,0,0,0,0,0,0,0,0,0,0,0,0,0,0,0,0,0,0,0]","[0,0,0,0,0,0,0,0,0,0,0,0,0,0,0,0,0,0,0,0,0,0]","[0.00010000000009569021,0.01620000000018962,0.032800000000051455,0.04910000000009518,0.06640000000014368,0.08140000000014425,0.09810000000009467,0.11650000000000205,0.13320000000018695,0.1495000000000033,0.16430000000004696,0.18090000000014328,0.19990000000014163,0.2148000000000465,0.2317000000001883,0.249700000000189,0.26630000000005083,0.2815000000000012,0.29920000000019087,0.31460000000009813,0.33110000000009165,0.3498000000000516]",,9,0,9,0,1,,,,
,,,,,,,,,,,,,,,PAV-0015,2022-11-01_16h31.55.119,GoFitts,2022.1.4,Win32,59.99160118,,,,,"[-13.066057908456667,124.31523692103417]","[38.6271242968684,-118.8820645368942]",71.5,250,0,"[-45,-45,-45,-44,-43,-43,-43,-43,-43,-43,-43,-43,-43,-42,-38,-35,-25,-15,-6,-2,2,6,10,14,17,18,18,18,18,18,18,18,18,18,18,18,20]","[118,123,131,137,138,138,139,139,139,139,139,139,139,139,139,137,123,101,76,49,17,-16,-41,-63,-77,-87,-88,-89,-89,-89,-89,-89,-89,-89,-89,-89,-90]","[0,0,0,0,0,0,0,0,0,0,0,0,0,0,0,0,0,0,0,0,0,0,0,0,0,0,0,0,0,0,0,0,0,0,0,0,0]","[0,0,0,0,0,0,0,0,0,0,0,0,0,0,0,0,0,0,0,0,0,0,0,0,0,0,0,0,0,0,0,0,0,0,0,0,0]","[0,0,0,0,0,0,0,0,0,0,0,0,0,0,0,0,0,0,0,0,0,0,0,0,0,0,0,0,0,0,0,0,0,0,0,0,0]","[0.0001999999999497959,0.016199999999948034,0.031399999999905504,0.049199999999949284,0.06660000000009347,0.0833000000000439,0.09780000000004208,0.11630000000004515,0.1311000000000888,0.14780000000004634,0.16430000000004696,0.18099999999999739,0.197499999999998,0.21430000000004412,0.23149999999999693,0.2494999999999976,0.26460000000009387,0.28249999999999886,0.2978000000000449,0.3161999999999523,0.33139999999990266,0.34919999999995355,0.3644999999999996,0.38299999999999557,0.4001999999999484,0.4163000000000423,0.4313999999999041,0.44919999999994786,0.4643000000000441,0.48080000000004475,0.49760000000009086,0.5143000000000413,0.5308000000000419,0.5491999999999493,0.5658000000000456,0.580999999999996,0.5978999999999033]",,10,0,10,0,1,,,,
,,,,,,,,,,,,,,,PAV-0015,2022-11-01_16h31.55.119,GoFitts,2022.1.4,Win32,59.99160118,,,,,"[38.6271242968684,-118.8820645368942]","[-62.49999999999997,108.25317547305484]",71.5,250,0,"[20,26,29,30,30,30,30,30,22,9,-10,-28,-51,-57,-72,-79,-85,-86,-86,-86,-86,-86]","[-90,-96,-99,-100,-100,-100,-100,-100,-88,-71,-49,-27,4,13,40,54,64,70,73,77,79,82]","[0,0,0,0,0,0,0,0,0,0,0,0,0,0,0,0,0,0,0,0,0,0]","[0,0,0,0,0,0,0,0,0,0,0,0,0,0,0,0,0,0,0,0,0,0]","[0,0,0,0,0,0,0,0,0,0,0,0,0,0,0,0,0,0,0,0,0,0]","[0.002100000000091029,0.01770000000018257,0.03249999999999886,0.04920000000018376,0.06720000000018445,0.08249999999999602,0.09910000000009234,0.11770000000018399,0.1346000000000913,0.15120000000018763,0.16840000000014044,0.18490000000014106,0.2014000000001417,0.21630000000004657,0.23440000000013583,0.25140000000013885,0.26599999999999824,0.2845000000000013,0.29960000000009046,0.31770000000018683,0.33440000000013725,0.35160000000009006]",,11,0,11,0,1,,,,
,,,,,,,,,,,,,,,PAV-0015,2022-11-01_16h31.55.119,GoFitts,2022.1.4,Win32,59.99160118,,,,,"[-62.49999999999997,108.25317547305484]","[83.64132579485731,-92.89310318467426]",71.5,250,0,"[-86,-86,-85,-83,-80,-75,-74,-72,-72,-72,-72,-72,-70,-66,-48,-13,25,69]","[82,84,85,87,92,101,102,104,104,104,104,104,104,103,80,37,-10,-65]","[0,0,0,0,0,0,0,0,0,0,0,0,0,0,0,0,0,0]","[0,0,0,0,0,0,0,0,0,0,0,0,0,0,0,0,0,0]","[0,0,0,0,0,0,0,0,0,0,0,0,0,0,0,0,0,0]","[0.0001999999999497959,0.015800000000048442,0.03140000000013998,0.04790000000014061,0.06469999999995224,0.08260000000009171,0.09799999999999898,0.11549999999999727,0.13080000000004333,0.14869999999995542,0.16419999999995127,0.18090000000013617,0.1974000000001368,0.2146000000000896,0.2326999999999515,0.24799999999999756,0.2644999999999982,0.28210000000009217]",,12,0,12,0,1,,,,
,,,,,,,,,,,,,,,PAV-0015,2022-11-01_16h31.55.119,GoFitts,2022.1.4,Win32,59.99160118,,,,,"[83.64132579485731,-92.89310318467426]","[-101.12712429686842,73.47315653655916]",71.5,250,0,"[69,86,93,104,107,109,110,110,110,110,110,110,110,110,106,93,75,48,21,-15,-54,-84,-100,-109]","[-65,-88,-97,-117,-126,-130,-132,-132,-132,-132,-132,-132,-132,-132,-127,-113,-95,-72,-51,-27,3,24,35,43]","[0,0,0,0,0,0,0,0,0,0,0,0,0,0,0,0,0,0,0,0,0,0,0,0]","[0,0,0,0,0,0,0,0,0,0,0,0,0,0,0,0,0,0,0,0,0,0,0,0]","[0,0,0,0,0,0,0,0,0,0,0,0,0,0,0,0,0,0,0,0,0,0,0,0]","[0.00010000000009569021,0.0173000000000485,0.03189999999990789,0.05019999999995406,0.0656000000000958,0.08360000000009649,0.09900000000000375,0.11510000000009768,0.132000000000005,0.14869999999995542,0.16530000000005174,0.18180000000005236,0.1986999999999597,0.2153999999999101,0.23239999999991312,0.2506000000000981,0.2671000000000987,0.28360000000009933,0.2990000000000066,0.3156000000000958,0.3341999999999601,0.3503999999999081,0.3653999999999087,0.38389999999991176]",,13,0,13,0,1,,,,
,,,,,,,,,,,,,,,PAV-0015,2022-11-01_16h31.55.119,GoFitts,2022.1.4,Win32,59.99160118,,,,,"[-101.12712429686842,73.47315653655916]","[114.19318220532512,-50.84208038447502]",71.5,250,0,"[-109,-111,-111,-112,-112,-112,-112,-111,-110,-110,-109,-109,-107,-102,-99,-90,-84,-70,-45,-11,38,76,98]","[43,47,50,51,52,52,52,53,54,54,54,54,54,54,54,54,54,47,34,17,-5,-22,-37]","[0,0,0,0,0,0,0,0,0,0,0,0,0,0,0,0,0,0,0,0,0,0,0]","[0,0,0,0,0,0,0,0,0,0,0,0,0,0,0,0,0,0,0,0,0,0,0]","[0,0,0,0,0,0,0,0,0,0,0,0,0,0,0,0,0,0,0,0,0,0,0]","[0.00020000000019138042,0.016000000000005343,0.0309000000001447,0.04750000000000654,0.06420000000019144,0.08090000000014186,0.09880000000004685,0.11450000000000671,0.13250000000000028,0.14720000000018985,0.16450000000000387,0.18230000000004765,0.19920000000018945,0.21620000000019246,0.23100000000000165,0.24770000000018655,0.2644000000001441,0.28220000000018786,0.29940000000014066,0.31430000000005265,0.33090000000014186,0.34770000000018797,0.36560000000009296]",,14,0,14,0,1,,,,
,,,,,,,,,,,,,,,PAV-0015,2022-11-01_16h31.55.119,GoFitts,2022.1.4,Win32,59.99160118,,,,,,,,,0,,,,,,,,,,,,,0,0,0,1
,,,,,,,,,,,,,,,PAV-0015,2022-11-01_16h31.55.119,GoFitts,2022.1.4,Win32,59.99160118,,,return,1.6002,"[-140,6]","[73.39153616405002,225.87592262009898]",40.5,475,1,"[-140,-140,-140,-140,-140,-140,-140,-140,-140,-140,-140,-140,-140,-140,-140,-140,-140,-140,-140,-140,-140,-140,-133,-129,-126,-110,-101,-69,-49,-35,-27,-26,-25,-25,-25,-25,-24,-17,-9,1,12,24,30,33,35,37,40,43,45,46,46,46,46,51,58]","[6,6,6,6,6,6,6,6,6,6,6,6,6,6,6,6,6,6,6,6,6,6,6,7,11,52,69,120,148,168,180,185,186,187,187,187,188,191,194,198,202,206,208,209,211,214,216,219,221,222,222,222,223,224,227]","[0,0,0,0,0,0,0,0,0,0,0,0,0,0,0,0,0,0,0,0,0,0,0,0,0,0,0,0,0,0,0,0,0,0,0,0,0,0,0,0,0,0,0,0,0,0,0,0,0,0,0,0,0,0,0]","[0,0,0,0,0,0,0,0,0,0,0,0,0,0,0,0,0,0,0,0,0,0,0,0,0,0,0,0,0,0,0,0,0,0,0,0,0,0,0,0,0,0,0,0,0,0,0,0,0,0,0,0,0,0,0]","[0,0,0,0,0,0,0,0,0,0,0,0,0,0,0,0,0,0,0,0,0,0,0,0,0,0,0,0,0,0,0,0,0,0,0,0,0,0,0,0,0,0,0,0,0,0,0,0,0,0,0,0,0,0,0]","[0.0005000000000023874,0.018300000000046168,0.03300000000000125,0.049500000000001876,0.06610000000009819,0.0829000000001443,0.09969999999995593,0.11610000000009535,0.13310000000009836,0.14980000000004878,0.1664999999999992,0.1843000000000501,0.19990000000014163,0.21660000000009205,0.23330000000004958,0.2496000000000933,0.2664000000001394,0.28300000000000125,0.30010000000009285,0.31780000000004804,0.333300000000051,0.3498000000000516,0.36669999999995895,0.3848000000000482,0.4001999999999555,0.41830000000005185,0.433400000000141,0.4511999999999574,0.46650000000000347,0.4830000000000041,0.4996999999999545,0.5166000000000963,0.5348000000000468,0.5514000000001431,0.5664000000001437,0.5829000000001443,0.6013000000000517,0.6183000000000476,0.6334000000001438,0.6511999999999531,0.6664000000001451,0.6835000000000022,0.701300000000046,0.7184999999999988,0.7334999999999994,0.7515000000000001,0.7669000000001418,0.7830000000000013,0.7996000000000976,0.818400000000139,0.8346999999999554,0.8498000000000516,0.8661000000000953,0.8836000000000936,0.9014999999999986]",,0,0,0,0,1,,,,
,,,,,,,,,,,,,,,PAV-0015,2022-11-01_16h31.55.119,GoFitts,2022.1.4,Win32,59.99160118,,,,,"[73.39153616405002,225.87592262009898]","[-24.82551002606788,-236.1989501499649]",40.5,475,1,"[58,64,67,68,68,68,68,65,63,62,61,61,60,60,60,60,56,48,39,34,22,10,-7,-19,-25,-25,-25,-25,-26,-29,-32,-37,-39,-42,-42,-42]","[227,229,230,230,230,230,230,230,230,230,230,229,227,217,199,173,131,71,-2,-74,-178,-232,-277,-298,-306,-307,-307,-307,-307,-304,-300,-291,-286,-265,-248,-228]","[0,0,0,0,0,0,0,0,0,0,0,0,0,0,0,0,0,0,0,0,0,0,0,0,0,0,0,0,0,0,0,0,0,0,0,0]","[0,0,0,0,0,0,0,0,0,0,0,0,0,0,0,0,0,0,0,0,0,0,0,0,0,0,0,0,0,0,0,0,0,0,0,0]","[0,0,0,0,0,0,0,0,0,0,0,0,0,0,0,0,0,0,0,0,0,0,0,0,0,0,0,0,0,0,0,0,0,0,0,0]","[0.00029999999981811243,0.01609999999985945,0.03209999999986479,0.0492999999998176,0.06459999999986366,0.08119999999995287,0.09789999999991039,0.11589999999991107,0.13119999999995713,0.14809999999986445,0.16479999999981487,0.1812999999998155,0.1978999999999118,0.2162999999998121,0.2330000000000041,0.24950000000000472,0.2647999999998163,0.28269999999995576,0.29809999999986303,0.31459999999986366,0.33279999999981413,0.3476999999999535,0.3644999999999996,0.3830999999998639,0.4000999999998598,0.4167999999998173,0.43289999999991124,0.4477999999998161,0.4646999999999579,0.4830000000000041,0.49809999999985877,0.5160999999998594,0.5309999999999988,0.5476999999999563,0.5646999999999522,0.5813999999999098]",,1,0,1,0,1,,,,
,,,,,,,,,,,,,,,PAV-0015,2022-11-01_16h31.55.119,GoFitts,2022.1.4,Win32,59.99160118,,,,,"[-24.82551002606788,-236.1989501499649]","[-24.825510026067665,236.19895014996493]",40.5,475,1,"[-42,-41,-40,-39,-39,-39,-39,-39,-39,-39,-39,-39,-39,-38,-37,-35,-35,-35,-35,-35,-35,-41,-47,-56,-61,-64,-65,-65,-62,-57,-54,-52,-52,-52,-49,-45,-41,-37,-37,-37,-48,-62,-69,-70,-73,-76,-76,-76,-76,-75,-73,-72,-67,-54,-42,-30,-17,-14,-9,-8]","[-228,-213,-200,-194,-193,-193,-193,-193,-193,-193,-193,-194,-202,-210,-216,-219,-222,-223,-223,-223,-215,-194,-156,-109,-53,3,50,82,105,118,123,125,126,126,132,139,147,153,156,161,201,240,294,311,338,358,360,360,360,360,360,359,353,341,325,310,282,272,251,246]","[0,0,0,0,0,0,0,0,0,0,0,0,0,0,0,0,0,0,0,0,0,0,0,0,0,0,0,0,0,0,0,0,0,0,0,0,0,0,0,0,0,0,0,0,0,0,0,0,0,0,0,0,0,0,0,0,0,0,0,0]","[0,0,0,0,0,0,0,0,0,0,0,0,0,0,0,0,0,0,0,0,0,0,0,0,0,0,0,0,0,0,0,0,0,0,0,0,0,0,0,0,0,0,0,0,0,0,0,0,0,0,0,0,0,0,0,0,0,0,0,0]","[0,0,0,0,0,0,0,0,0,0,0,0,0,0,0,0,0,0,0,0,0,0,0,0,0,0,0,0,0,0,0,0,0,0,0,0,0,0,0,0,0,0,0,0,0,0,0,0,0,0,0,0,0,0,0,0,0,0,0,0]","[0.0003000000000454861,0.017499999999998295,0.03289999999990556,0.050499999999999545,0.06630000000004088,0.08249999999999602,0.1006999999999465,0.11569999999994707,0.1323999999999046,0.1491000000000895,0.16589999999990113,0.18280000000004293,0.2006000000000867,0.21599999999999397,0.23460000000009273,0.2496000000000862,0.26619999999994803,0.283800000000042,0.29969999999995167,0.31760000000009114,0.33469999999994826,0.3514999999999944,0.36580000000004276,0.38280000000004577,0.40069999999995076,0.4161999999999466,0.43280000000004293,0.4509999999999934,0.46680000000004185,0.48430000000004014,0.4993000000000407,0.517899999999905,0.5343000000000444,0.5491000000000881,0.5676000000000911,0.5828000000000415,0.5993999999999033,0.6163999999999064,0.6341999999999501,0.6498000000000417,0.6678000000000424,0.6846999999999497,0.7011000000000891,0.7161000000000897,0.732999999999997,0.7491999999999521,0.7659999999999982,0.7824999999999989,0.7993999999999062,0.8161999999999523,0.8338999999999004,0.8496999999999488,0.8676000000000883,0.8826999999999501,0.9009999999999962,0.9158999999999011,0.9341000000000932,0.9494999999999933,0.9661999999999509,0.9841000000000903]",,2,0,2,0,1,,,,
,,,,,,,,,,,,,,,PAV-0015,2022-11-01_16h31.55.119,GoFitts,2022.1.4,Win32,59.99160118,,,,,"[-24.825510026067665,236.19895014996493]","[73.39153616404997,-225.875922620099]",40.5,475,1,"[-8,-8,-8,-8,-8,-9,-10,-10,-11,-13,-13,-13,-13,-13,-13,-13,-13,-13,-12,-11,-9,-9,-3,4,8,10,10,10,10,10,10,12,19,22,36,45,50,52,53,53,53,53,54,54,55,57,59,60,62,65,69]","[246,244,243,243,243,243,243,243,243,242,242,242,242,242,242,241,236,217,187,135,18,-28,-168,-240,-279,-296,-298,-299,-299,-295,-292,-289,-285,-284,-275,-270,-265,-263,-263,-263,-262,-262,-262,-262,-260,-257,-255,-254,-252,-247,-242]","[0,0,0,0,0,0,0,0,0,0,0,0,0,0,0,0,0,0,0,0,0,0,0,0,0,0,0,0,0,0,0,0,0,0,0,0,0,0,0,0,0,0,0,0,0,0,0,0,0,0,0]","[0,0,0,0,0,0,0,0,0,0,0,0,0,0,0,0,0,0,0,0,0,0,0,0,0,0,0,0,0,0,0,0,0,0,0,0,0,0,0,0,0,0,0,0,0,0,0,0,0,0,0]","[0,0,0,0,0,0,0,0,0,0,0,0,0,0,0,0,0,0,0,0,0,0,0,0,0,0,0,0,0,0,0,0,0,0,0,0,0,0,0,0,0,0,0,0,0,0,0,0,0,0,0]","[0.00020000000019138042,0.0167000000001849,0.03180000000004668,0.048200000000186094,0.06500000000000483,0.08190000000013953,0.09850000000000136,0.11500000000000199,0.1319000000001438,0.14970000000018757,0.16480000000004935,0.18160000000009546,0.19830000000004588,0.2149000000001422,0.23320000000018837,0.24860000000009563,0.2668000000000461,0.28170000000018547,0.298400000000143,0.3151000000000934,0.3331000000000941,0.34830000000005157,0.367100000000093,0.38330000000004816,0.3986000000000942,0.4164000000001451,0.43170000000019115,0.4484000000001416,0.46650000000000347,0.4818000000000495,0.49830000000005015,0.5166000000000963,0.5333000000000467,0.548400000000143,0.5664000000001437,0.5817000000001897,0.5996000000000947,0.6167000000001863,0.6318000000000481,0.6494000000001421,0.6671000000000973,0.6831000000000955,0.6985000000000028,0.7164000000001423,0.7319000000001452,0.7484999999999999,0.7651000000000963,0.7820000000000036,0.7997000000001862,0.8152000000001891,0.8318000000000509]",,3,0,3,0,1,,,,
,,,,,,,,,,,,,,,PAV-0015,2022-11-01_16h31.55.119,GoFitts,2022.1.4,Win32,59.99160118,,,,,"[73.39153616404997,-225.875922620099]","[-118.74999999999994,205.6810333988042]",40.5,475,1,"[69,72,74,74,74,74,74,74,74,74,74,74,74,67,59,44,19,-18,-58,-98,-141,-159,-170,-175,-176,-177,-178,-178,-178,-178,-178,-178,-178,-173,-171,-163,-158,-154,-151,-149,-149,-149,-149,-149,-149,-149,-146,-141,-134]","[-242,-238,-234,-232,-229,-228,-228,-228,-228,-228,-228,-228,-226,-212,-192,-154,-94,-18,63,145,229,256,271,277,280,281,282,283,283,283,283,283,283,283,283,266,246,228,218,212,211,211,211,211,211,211,211,211,212]","[0,0,0,0,0,0,0,0,0,0,0,0,0,0,0,0,0,0,0,0,0,0,0,0,0,0,0,0,0,0,0,0,0,0,0,0,0,0,0,0,0,0,0,0,0,0,0,0,0]","[0,0,0,0,0,0,0,0,0,0,0,0,0,0,0,0,0,0,0,0,0,0,0,0,0,0,0,0,0,0,0,0,0,0,0,0,0,0,0,0,0,0,0,0,0,0,0,0,0]","[0,0,0,0,0,0,0,0,0,0,0,0,0,0,0,0,0,0,0,0,0,0,0,0,0,0,0,0,0,0,0,0,0,0,0,0,0,0,0,0,0,0,0,0,0,0,0,0,0]","[0.0005999999998635985,0.017699999999955196,0.03469999999995821,0.05100000000000193,0.06629999999982061,0.08439999999990988,0.09950000000000614,0.11619999999995656,0.13269999999995719,0.1495000000000033,0.16589999999990823,0.18289999999991124,0.20109999999986172,0.2162999999998192,0.23450000000000415,0.25119999999995457,0.2676999999999552,0.28289999999991267,0.2998999999999086,0.3163999999999092,0.3340999999998644,0.34959999999986024,0.36639999999991346,0.382899999999907,0.3995999999998645,0.417500000000004,0.43289999999991124,0.4492999999998162,0.4658999999999125,0.4825000000000017,0.5005999999998636,0.5161999999999551,0.5325999999998672,0.5492999999998176,0.5660000000000025,0.5828999999999098,0.6010999999998603,0.6157999999998154,0.6325999999998615,0.6495999999998645,0.6678999999999107,0.6826999999999543,0.7005999999998664,0.7160000000000011,0.7325000000000017,0.7495000000000047,0.7675999999998666,0.7830999999998625,0.7996999999999588]",,4,0,4,0,1,,,,
,,,,,,,,,,,,,,,PAV-0015,2022-11-01_16h31.55.119,GoFitts,2022.1.4,Win32,59.99160118,,,,,"[-118.74999999999994,205.6810333988042]","[158.9185190102289,-176.49689605088108]",40.5,475,1,"[-134,-131,-130,-129,-129,-129,-129,-129,-129,-129,-129,-129,-129,-129,-128,-117,-71,24,159,296,414,528,560,564,545,494,436,378,339,317,307,302,301,299,297,295,292,289,284,273,258,248,241,233,230,226,221,213,202,197,194,192,191,189,186,185,177]","[212,212,212,212,212,212,212,212,212,212,212,212,212,212,212,212,199,172,134,96,52,-25,-78,-111,-140,-171,-191,-202,-208,-209,-209,-207,-207,-205,-204,-204,-203,-201,-198,-193,-190,-188,-187,-187,-187,-188,-190,-193,-193,-193,-193,-193,-193,-191,-187,-186,-180]","[0,0,0,0,0,0,0,0,0,0,0,0,0,0,0,0,0,0,0,0,0,0,0,0,0,0,0,0,0,0,0,0,0,0,0,0,0,0,0,0,0,0,0,0,0,0,0,0,0,0,0,0,0,0,0,0,0]","[0,0,0,0,0,0,0,0,0,0,0,0,0,0,0,0,0,0,0,0,0,0,0,0,0,0,0,0,0,0,0,0,0,0,0,0,0,0,0,0,0,0,0,0,0,0,0,0,0,0,0,0,0,0,0,0,0]","[0,0,0,0,0,0,0,0,0,0,0,0,0,0,0,0,0,0,0,0,0,0,0,0,0,0,0,0,0,0,0,0,0,0,0,0,0,0,0,0,0,0,0,0,0,0,0,0,0,0,0,0,0,0,0,0,0]","[0.000299999999811007,0.017899999999904992,0.03439999999990562,0.049199999999949284,0.06569999999994991,0.08269999999995292,0.09949999999999903,0.11579999999981538,0.1323999999999046,0.1491999999999507,0.16569999999995133,0.1840999999998587,0.19899999999999807,0.2157999999998097,0.232999999999997,0.2507999999998134,0.2680999999998619,0.28289999999990556,0.2998999999999086,0.3164999999999978,0.3330999999998596,0.34959999999986024,0.36639999999990636,0.38429999999981135,0.3996999999999531,0.41799999999999926,0.43299999999999983,0.450699999999955,0.4662999999998121,0.48439999999990846,0.5012999999998158,0.5176999999999552,0.5326999999999558,0.5497999999998129,0.5660999999998566,0.5831999999999553,0.6007999999998148,0.6176999999999495,0.6327999999998113,0.6494999999999962,0.667799999999815,0.683099999999861,0.7008999999999048,0.7176999999999509,0.7343999999999085,0.7495999999998588,0.7659999999999982,0.7827999999998099,0.801099999999856,0.8179999999999978,0.8343999999999028,0.8495999999998602,0.8678999999999064,0.8850999999998592,0.9010999999998575,0.9161999999999537,0.9344999999999999]",,5,0,5,0,1,,,,
,,,,,,,,,,,,,,,PAV-0015,2022-11-01_16h31.55.119,GoFitts,2022.1.4,Win32,59.99160118,,,,,"[158.9185190102289,-176.49689605088108]","[-192.14153616405,139.5989974194624]",40.5,475,1,"[177,172,170,169,169,169,169,169,169,169,169,169,169,161,145,122,87,39,-22,-93,-162,-217,-260,-281,-286,-287,-287,-287,-287,-287,-282,-279,-277,-271,-263,-254,-234,-229,-228,-226,-223,-220,-218,-217,-213,-204]","[-180,-177,-175,-173,-173,-173,-173,-173,-173,-173,-173,-173,-173,-166,-153,-134,-104,-68,-21,36,85,125,151,163,166,166,166,166,166,166,167,167,168,168,169,169,160,156,153,148,143,139,137,135,132,127]","[0,0,0,0,0,0,0,0,0,0,0,0,0,0,0,0,0,0,0,0,0,0,0,0,0,0,0,0,0,0,0,0,0,0,0,0,0,0,0,0,0,0,0,0,0,0]","[0,0,0,0,0,0,0,0,0,0,0,0,0,0,0,0,0,0,0,0,0,0,0,0,0,0,0,0,0,0,0,0,0,0,0,0,0,0,0,0,0,0,0,0,0,0]","[0,0,0,0,0,0,0,0,0,0,0,0,0,0,0,0,0,0,0,0,0,0,0,0,0,0,0,0,0,0,0,0,0,0,0,0,0,0,0,0,0,0,0,0,0,0]","[0.0003000000000454861,0.01630000000005083,0.03290000000014004,0.04790000000014061,0.06590000000014129,0.0831000000000941,0.09799999999999898,0.1143000000000498,0.1312000000001916,0.14760000000009654,0.1662000000001882,0.18299999999999983,0.1979000000001392,0.21620000000018536,0.23140000000014282,0.2496000000000933,0.26470000000018956,0.28310000000009694,0.30010000000009285,0.3162000000001868,0.33150000000000546,0.34830000000005157,0.36590000000013845,0.3814000000001414,0.39790000000014203,0.4160000000000039,0.43130000000005,0.4479000000001392,0.46620000000018536,0.4814000000001428,0.4993000000000478,0.5149000000001394,0.5313000000000514,0.549300000000045,0.5648000000000479,0.5813000000000486,0.5981000000000947,0.6161000000000953,0.6315000000000026,0.6482000000001875,0.6663000000000494,0.683400000000141,0.6984000000001416,0.7162000000001854,0.7316000000000926,0.7484999999999999]",,6,0,6,0,1,,,,
,,,,,,,,,,,,,,,PAV-0015,2022-11-01_16h31.55.119,GoFitts,2022.1.4,Win32,59.99160118,,,,,"[-192.14153616405,139.5989974194624]","[216.96704619011774,-96.59995273050254]",40.5,475,1,"[-204,-190,-186,-186,-185,-185,-183,-179,-177,-177,-177,-177,-177,-177,-177,-177,-161,-129,-60,33,139,233,305,347,363,366,360,333,311,292,278,265,256,253,252,252,251,251,251,251,251,251,251,251,251,251,239,221]","[127,126,126,126,126,126,128,131,134,136,137,137,137,137,137,137,137,137,136,133,117,94,65,35,9,-24,-34,-60,-73,-83,-88,-91,-92,-93,-93,-93,-93,-93,-93,-93,-92,-91,-91,-91,-91,-91,-93,-97]","[0,0,0,0,0,0,0,0,0,0,0,0,0,0,0,0,0,0,0,0,0,0,0,0,0,0,0,0,0,0,0,0,0,0,0,0,0,0,0,0,0,0,0,0,0,0,0,0]","[0,0,0,0,0,0,0,0,0,0,0,0,0,0,0,0,0,0,0,0,0,0,0,0,0,0,0,0,0,0,0,0,0,0,0,0,0,0,0,0,0,0,0,0,0,0,0,0]","[0,0,0,0,0,0,0,0,0,0,0,0,0,0,0,0,0,0,0,0,0,0,0,0,0,0,0,0,0,0,0,0,0,0,0,0,0,0,0,0,0,0,0,0,0,0,0,0]","[0.00019999999995690132,0.017600000000093985,0.034000000000006025,0.049000000000006594,0.06569999999995702,0.08250000000000313,0.09930000000004924,0.11610000000009535,0.13440000000014152,0.15119999999995315,0.1661000000000996,0.1839000000001434,0.19910000000009376,0.21580000000005128,0.23219999999995622,0.2506000000000981,0.26600000000000534,0.28230000000004907,0.2993000000000521,0.3160000000000025,0.3340000000000032,0.34969999999995593,0.3676999999999566,0.38290000000014146,0.3995000000000033,0.4173000000000471,0.43269999999995434,0.450400000000144,0.466199999999958,0.48380000000005197,0.4995000000000047,0.5175000000000054,0.5343000000000515,0.5491000000000952,0.5661000000000982,0.583900000000142,0.5996000000000947,0.6158000000000499,0.6321999999999548,0.6491999999999578,0.6674000000001428,0.6826000000000931,0.700400000000144,0.7176000000000968,0.7321999999999562,0.7494000000001435,0.7661999999999551,0.78290000000014]",,7,0,7,0,1,,,,
,,,,,,,,,,,,,,,PAV-0015,2022-11-01_16h31.55.119,GoFitts,2022.1.4,Win32,59.99160118,,,,,"[216.96704619011774,-96.59995273050254]","[-232.31005517427886,49.379026569217835]",40.5,475,1,"[221,191,183,175,174,173,173,173,173,173,173,168,157,139,101,9,-65,-127,-166,-192,-216,-239]","[-97,-102,-103,-103,-103,-102,-101,-101,-101,-101,-101,-96,-87,-75,-56,-16,7,24,31,34,37,38]","[0,0,0,0,0,0,0,0,0,0,0,0,0,0,0,0,0,0,0,0,0,0]","[0,0,0,0,0,0,0,0,0,0,0,0,0,0,0,0,0,0,0,0,0,0]","[0,0,0,0,0,0,0,0,0,0,0,0,0,0,0,0,0,0,0,0,0,0]","[0.00019999999995690132,0.01739999999990971,0.03300000000000125,0.049500000000001876,0.0660000000000025,0.08239999999990744,0.09950000000000614,0.11589999999991107,0.13269999999995719,0.1491999999999578,0.1673999999999083,0.18289999999991124,0.19939999999991187,0.21610000000009677,0.2328000000000472,0.2508999999999091,0.267600000000094,0.28280000000005145,0.30089999999990624,0.31750000000000256,0.33430000000004867,0.34939999999991045]",,8,0,8,0,1,,,,
,,,,,,,,,,,,,,,PAV-0015,2022-11-01_16h31.55.119,GoFitts,2022.1.4,Win32,59.99160118,,,,,"[-232.31005517427886,49.379026569217835]","[237.5,0]",40.5,475,1,"[-239,-253,-263,-269,-272,-277,-277,-277,-277,-277,-277,-277,-277,-272,-262,-244,-188,-158,-90,39,118,170,190,195,196,203,217,236,253,261,263,263,263,262,261,258,255,250]","[38,39,40,43,46,51,53,55,56,57,57,57,57,57,57,56,52,52,52,56,58,58,58,58,56,53,47,39,32,30,28,28,27,27,25,21,18,12]","[0,0,0,0,0,0,0,0,0,0,0,0,0,0,0,0,0,0,0,0,0,0,0,0,0,0,0,0,0,0,0,0,0,0,0,0,0,0]","[0,0,0,0,0,0,0,0,0,0,0,0,0,0,0,0,0,0,0,0,0,0,0,0,0,0,0,0,0,0,0,0,0,0,0,0,0,0]","[0,0,0,0,0,0,0,0,0,0,0,0,0,0,0,0,0,0,0,0,0,0,0,0,0,0,0,0,0,0,0,0,0,0,0,0,0,0]","[0.0004000000001411763,0.018199999999950478,0.034800000000046794,0.04990000000014305,0.0661999999999523,0.08449999999999847,0.09969999999995593,0.11749999999999972,0.13260000000009597,0.14980000000004878,0.16600000000000392,0.18249999999999744,0.19930000000004355,0.21619999999995088,0.23430000000004725,0.2494000000001435,0.2680000000000007,0.28269999999995576,0.29960000000009046,0.31799999999999784,0.33440000000013725,0.3496000000000947,0.3678000000000452,0.38280000000004577,0.3996999999999531,0.4176999999999538,0.43299999999999983,0.44990000000014163,0.46660000000009205,0.48430000000004725,0.4996999999999545,0.5164000000001394,0.5346999999999511,0.5511000000000905,0.5679999999999978,0.5829999999999984,0.6009000000001379,0.6164000000001408]",,9,0,9,0,1,,,,
,,,,,,,,,,,,,,,PAV-0015,2022-11-01_16h31.55.119,GoFitts,2022.1.4,Win32,59.99160118,,,,,"[237.5,0]","[-232.31005517427886,-49.37902656921778]",40.5,475,1,"[250,245,241,240,240,240,240,239,234,219,195,151,104,51,5,-38,-63,-85,-100,-114,-127,-140,-152,-160,-165,-174,-181,-189,-193,-195,-197,-198,-199,-200,-203,-206,-209,-211,-211,-212,-212,-212,-212,-214]","[12,8,6,5,5,5,5,5,6,9,12,16,19,21,21,17,12,3,-4,-13,-22,-33,-44,-53,-60,-67,-71,-73,-73,-73,-73,-72,-70,-68,-64,-59,-56,-54,-53,-52,-52,-52,-52,-52]","[0,0,0,0,0,0,0,0,0,0,0,0,0,0,0,0,0,0,0,0,0,0,0,0,0,0,0,0,0,0,0,0,0,0,0,0,0,0,0,0,0,0,0,0]","[0,0,0,0,0,0,0,0,0,0,0,0,0,0,0,0,0,0,0,0,0,0,0,0,0,0,0,0,0,0,0,0,0,0,0,0,0,0,0,0,0,0,0,0]","[0,0,0,0,0,0,0,0,0,0,0,0,0,0,0,0,0,0,0,0,0,0,0,0,0,0,0,0,0,0,0,0,0,0,0,0,0,0,0,0,0,0,0,0]","[0.0005000000000023874,0.017499999999998295,0.03460000000008989,0.04910000000009518,0.0658000000000456,0.08410000000009177,0.09939999999990334,0.11630000000004515,0.13310000000009126,0.1496999999999531,0.16639999999990351,0.18310000000009552,0.20000000000000284,0.21799999999999642,0.2328999999999084,0.24939999999990903,0.26619999999995514,0.2839999999999989,0.30080000000004503,0.3161999999999523,0.3328000000000486,0.3496000000000947,0.3674999999999997,0.382899999999907,0.40119999999995315,0.4161999999999537,0.434300000000043,0.4516999999999527,0.4679999999999964,0.48460000000009273,0.5011999999999546,0.5158999999999097,0.5324999999999989,0.5513000000000474,0.5664999999999978,0.5829999999999984,0.6011000000000948,0.6178999999999064,0.6346999999999525,0.6511000000000919,0.665800000000047,0.6823999999999089,0.7011999999999503,0.7181000000000921]",,10,0,10,0,1,,,,
,,,,,,,,,,,,,,,PAV-0015,2022-11-01_16h31.55.119,GoFitts,2022.1.4,Win32,59.99160118,,,,,"[-232.31005517427886,-49.37902656921778]","[216.9670461901177,96.59995273050254]",40.5,475,1,"[-214,-214,-214,-214,-214,-214,-213,-203,-194,-189,-189,-204,-218,-220,-199,-111,21,178,343,483,571,604,606,603,599,597,594,590,579,559,524,473,431,386,377,365,359,348,329,299,263,239,230]","[-52,-52,-52,-52,-52,-52,-51,-44,-38,-35,-34,-34,-35,-35,-35,-18,20,68,116,161,193,206,209,209,209,209,209,208,203,195,180,159,139,117,112,106,103,100,97,93,87,84,83]","[0,0,0,0,0,0,0,0,0,0,0,0,0,0,0,0,0,0,0,0,0,0,0,0,0,0,0,0,0,0,0,0,0,0,0,0,0,0,0,0,0,0,0]","[0,0,0,0,0,0,0,0,0,0,0,0,0,0,0,0,0,0,0,0,0,0,0,0,0,0,0,0,0,0,0,0,0,0,0,0,0,0,0,0,0,0,0]","[0,0,0,0,0,0,0,0,0,0,0,0,0,0,0,0,0,0,0,0,0,0,0,0,0,0,0,0,0,0,0,0,0,0,0,0,0,0,0,0,0,0,0]","[0.00020000000019138042,0.016100000000093928,0.03250000000000597,0.04760000000009512,0.06430000000005265,0.08090000000014186,0.09930000000004924,0.11610000000009535,0.13110000000009592,0.14790000000014203,0.16580000000004702,0.18090000000014328,0.1977000000001894,0.21600000000000108,0.2326000000000974,0.24950000000000472,0.2664000000001394,0.2809000000001447,0.2981000000000975,0.3160000000000025,0.33110000000009876,0.34790000000014487,0.36560000000009296,0.3814000000001414,0.39790000000014203,0.4160000000000039,0.43140000000014567,0.4480000000000004,0.4644000000001398,0.482700000000186,0.4995000000000047,0.5148000000000508,0.5323000000000491,0.5496000000000976,0.5643000000000526,0.5826000000000988,0.5979000000001449,0.6159000000001456,0.6312000000001916,0.647900000000142,0.6647000000001881,0.6824000000001433,0.6980000000000004]",,11,0,11,0,1,,,,
,,,,,,,,,,,,,,,PAV-0015,2022-11-01_16h31.55.119,GoFitts,2022.1.4,Win32,59.99160118,,,,,"[216.9670461901177,96.59995273050254]","[-192.14153616405002,-139.59899741946234]",40.5,475,1,"[230,229,232,232,233,234,236,238,238,238,238,238,238,237,237,237,237,226,206,162,107,39,-37,-99,-134,-144,-144,-144,-145,-153,-161,-168,-179,-188]","[83,83,83,83,83,83,87,89,91,92,93,93,94,94,94,94,94,86,70,39,-1,-46,-96,-137,-159,-166,-167,-167,-167,-164,-161,-159,-156,-154]","[0,0,0,0,0,0,0,0,0,0,0,0,0,0,0,0,0,0,0,0,0,0,0,0,0,0,0,0,0,0,0,0,0,0]","[0,0,0,0,0,0,0,0,0,0,0,0,0,0,0,0,0,0,0,0,0,0,0,0,0,0,0,0,0,0,0,0,0,0]","[0,0,0,0,0,0,0,0,0,0,0,0,0,0,0,0,0,0,0,0,0,0,0,0,0,0,0,0,0,0,0,0,0,0]","[0.000299999999811007,0.0177999999998093,0.0346999999999511,0.04949999999999477,0.066599999999859,0.08289999999990272,0.09949999999999903,0.11659999999985615,0.13309999999985678,0.15109999999985746,0.16639999999990351,0.1839999999999975,0.19969999999995025,0.21789999999990783,0.2326999999999515,0.25099999999999767,0.267899999999905,0.28289999999990556,0.29969999999995167,0.31759999999985666,0.3330999999998596,0.3513999999999058,0.36649999999999494,0.38419999999995014,0.40169999999994843,0.41609999999985803,0.4344999999999999,0.44939999999990476,0.46789999999990783,0.4826999999999515,0.4997999999998086,0.5162999999998092,0.5326999999999487,0.5496999999999517]",,12,0,12,0,1,,,,
,,,,,,,,,,,,,,,PAV-0015,2022-11-01_16h31.55.119,GoFitts,2022.1.4,Win32,59.99160118,,,,,"[-192.14153616405002,-139.59899741946234]","[158.91851901022883,176.49689605088113]",40.5,475,1,"[-188,-190,-191,-191,-191,-191,-191,-191,-191,-191,-191,-191,-191,-191,-181,-163,-126,-76,-23,24,81,114,133,146,153]","[-154,-154,-153,-152,-151,-150,-150,-150,-150,-150,-150,-150,-150,-150,-143,-131,-107,-69,-26,20,85,119,139,152,159]","[0,0,0,0,0,0,0,0,0,0,0,0,0,0,0,0,0,0,0,0,0,0,0,0,0]","[0,0,0,0,0,0,0,0,0,0,0,0,0,0,0,0,0,0,0,0,0,0,0,0,0]","[0,0,0,0,0,0,0,0,0,0,0,0,0,0,0,0,0,0,0,0,0,0,0,0,0]","[0.0003000000000454861,0.017499999999998295,0.03330000000004674,0.049300000000044975,0.06740000000014135,0.08280000000004861,0.1008000000000493,0.11830000000004759,0.13450000000000273,0.1491000000000895,0.16569999999995133,0.18240000000013623,0.19919999999995497,0.21580000000004418,0.2328000000000472,0.25150000000000006,0.2664000000001394,0.28260000000009455,0.2995000000000019,0.31640000000013657,0.334199999999953,0.3494000000001378,0.3676999999999495,0.3825000000000003,0.40099999999999625]",,13,0,13,0,1,,,,
,,,,,,,,,,,,,,,PAV-0015,2022-11-01_16h31.55.119,GoFitts,2022.1.4,Win32,59.99160118,,,,,"[158.91851901022883,176.49689605088113]","[-118.7500000000001,-205.68103339880415]",40.5,475,1,"[153,156,159,163,164,164,164,164,163,159,157,156,155,155,155,155,153,152,143,127,97,52,4,-37,-64,-81,-90,-96,-99,-101,-105,-115]","[159,164,168,172,173,173,174,175,175,175,175,175,175,175,175,175,175,173,150,119,75,12,-49,-102,-140,-162,-173,-180,-182,-183,-184,-186]","[0,0,0,0,0,0,0,0,0,0,0,0,0,0,0,0,0,0,0,0,0,0,0,0,0,0,0,0,0,0,0,0]","[0,0,0,0,0,0,0,0,0,0,0,0,0,0,0,0,0,0,0,0,0,0,0,0,0,0,0,0,0,0,0,0]","[0,0,0,0,0,0,0,0,0,0,0,0,0,0,0,0,0,0,0,0,0,0,0,0,0,0,0,0,0,0,0,0]","[0.0001999999999497959,0.01680000000004611,0.031199999999948602,0.04789999999990613,0.06630000000004088,0.08149999999999835,0.09980000000004452,0.11680000000004043,0.1316000000000912,0.14780000000004634,0.16599999999999682,0.183699999999952,0.1983999999999071,0.21639999999990067,0.23149999999999693,0.24810000000009325,0.26460000000009387,0.2816000000000898,0.29949999999999477,0.3164999999999978,0.3335000000000008,0.34830000000004446,0.3646999999999494,0.3814999999999955,0.39789999999990755,0.41499999999999915,0.43180000000004526,0.44950000000000045,0.4648999999999077,0.4831000000000927,0.4998000000000431,0.5165000000000006]",,14,0,14,0,1,,,,
,,,,,,,,,,,,,,,PAV-0015,2022-11-01_16h31.55.119,GoFitts,2022.1.4,Win32,59.99160118,,,,,,,,,1,,,,,,,,,,,,,1,0,0,1
,,,,,,,,,,,,,,,PAV-0015,2022-11-01_16h31.55.119,GoFitts,2022.1.4,Win32,59.99160118,,,return,0.9263,"[54,43]","[-305.67112522931427,-64.97240338054971]",25.5,625,2,"[54,54,54,54,54,54,54,54,54,54,54,54,54,54,54,54,54,54,45,26,-4,-42,-76,-104,-126,-151,-172,-187,-197,-216,-229,-237,-245,-251,-257,-267,-277,-288,-300]","[43,43,43,43,43,43,43,43,43,43,43,43,43,43,43,43,43,43,41,36,25,8,-9,-27,-44,-62,-75,-84,-89,-94,-95,-95,-95,-94,-91,-88,-83,-77,-71]","[0,0,0,0,0,0,0,0,0,0,0,0,0,0,0,0,0,0,0,0,0,0,0,0,0,0,0,0,0,0,0,0,0,0,0,0,0,0,0]","[0,0,0,0,0,0,0,0,0,0,0,0,0,0,0,0,0,0,0,0,0,0,0,0,0,0,0,0,0,0,0,0,0,0,0,0,0,0,0]","[0,0,0,0,0,0,0,0,0,0,0,0,0,0,0,0,0,0,0,0,0,0,0,0,0,0,0,0,0,0,0,0,0,0,0,0,0,0,0]","[0.0004000000001340709,0.017600000000093985,0.03249999999999886,0.04910000000008807,0.06640000000013657,0.0829000000001372,0.09960000000008762,0.11599999999999966,0.13269999999995008,0.15099999999999625,0.1661000000000925,0.18260000000009313,0.19910000000009376,0.21610000000008966,0.2328000000000472,0.2494000000001364,0.26610000000009393,0.28299999999999415,0.29980000000004736,0.31760000000009114,0.3331000000000941,0.3509999999999991,0.36640000000013373,0.38310000000009126,0.40119999999995315,0.4161999999999537,0.4329000000001386,0.4499000000001345,0.46680000000004185,0.48460000000009273,0.5015000000000001,0.5159999999999982,0.5328000000000443,0.5498000000000474,0.5664999999999978,0.5846999999999483,0.6014000000001403,0.6166000000000906,0.6343000000000458]",,0,0,0,0,1,,,,
,,,,,,,,,,,,,,,PAV-0015,2022-11-01_16h31.55.119,GoFitts,2022.1.4,Win32,59.99160118,,,,,"[-305.67112522931427,-64.97240338054971]","[285.4829555133128,127.10520096118755]",25.5,625,2,"[-300,-302,-302,-302,-302,-302,-302,-302,-302,-302,-302,-302,-302,-302,-288,-255,-206,-140,-50,50,172,294,392,450,468,469,469,469,468,464,452,437,421,400,377,354,335,326,325,324,324,324,322,319,312,302,292]","[-71,-70,-70,-69,-69,-69,-69,-69,-69,-69,-69,-69,-69,-69,-68,-60,-46,-22,7,38,76,113,144,162,169,169,169,169,169,169,169,167,164,157,149,140,131,126,124,124,124,124,123,123,122,121,121]","[0,0,0,0,0,0,0,0,0,0,0,0,0,0,0,0,0,0,0,0,0,0,0,0,0,0,0,0,0,0,0,0,0,0,0,0,0,0,0,0,0,0,0,0,0,0,0]","[0,0,0,0,0,0,0,0,0,0,0,0,0,0,0,0,0,0,0,0,0,0,0,0,0,0,0,0,0,0,0,0,0,0,0,0,0,0,0,0,0,0,0,0,0,0,0]","[0,0,0,0,0,0,0,0,0,0,0,0,0,0,0,0,0,0,0,0,0,0,0,0,0,0,0,0,0,0,0,0,0,0,0,0,0,0,0,0,0,0,0,0,0,0,0]","[0.00010000000009569021,0.017000000000003013,0.031500000000001194,0.048400000000142995,0.06490000000014362,0.08160000000009404,0.1006000000000924,0.11490000000014078,0.1314000000001414,0.14830000000004873,0.16510000000009484,0.18319999999995673,0.19990000000014163,0.2149000000001422,0.232100000000095,0.24860000000009563,0.26540000000014174,0.2821999999999534,0.2985000000000042,0.3165000000000049,0.33190000000013953,0.34880000000004685,0.36650000000000205,0.3821999999999548,0.3989000000001397,0.4164000000001451,0.43180000000004526,0.4481999999999573,0.4653000000000489,0.4816000000000926,0.49869999999995684,0.5151999999999575,0.5320000000000036,0.5503000000000497,0.5651000000000934,0.5821000000000964,0.5986999999999583,0.616500000000002,0.632000000000005,0.6488000000000511,0.6649999999999991,0.6835000000000022,0.6986999999999526,0.7151999999999532,0.7331999999999539,0.7504000000001412,0.765300000000046]",,1,0,1,0,1,,,,
,,,,,,,,,,,,,,,PAV-0015,2022-11-01_16h31.55.119,GoFitts,2022.1.4,Win32,59.99160118,,,,,"[285.4829555133128,127.10520096118755]","[-252.81781074217108,-183.68289134139783]",25.5,625,2,"[292,287,285,283,283,279,279,279,279,279,279,279,279,279,279,279,261,235,194,137,73,17,-19,-40,-51,-55,-58,-64,-88,-106,-120,-127,-134,-140,-150,-163,-180,-193,-204,-213,-219,-222,-225,-227,-228,-230,-232,-236,-238,-239,-239,-239,-240,-240,-240,-240,-240,-240,-241]","[121,121,121,122,122,122,122,122,122,122,122,122,122,122,122,122,102,79,37,-12,-66,-107,-135,-147,-153,-154,-154,-154,-154,-154,-154,-154,-153,-151,-150,-150,-150,-153,-158,-162,-167,-170,-173,-176,-177,-178,-179,-180,-181,-181,-181,-181,-181,-181,-181,-181,-181,-181,-181]","[0,0,0,0,0,0,0,0,0,0,0,0,0,0,0,0,0,0,0,0,0,0,0,0,0,0,0,0,0,0,0,0,0,0,0,0,0,0,0,0,0,0,0,0,0,0,0,0,0,0,0,0,0,0,0,0,0,0,0]","[0,0,0,0,0,0,0,0,0,0,0,0,0,0,0,0,0,0,0,0,0,0,0,0,0,0,0,0,0,0,0,0,0,0,0,0,0,0,0,0,0,0,0,0,0,0,0,0,0,0,0,0,0,0,0,0,0,0,0]","[0,0,0,0,0,0,0,0,0,0,0,0,0,0,0,0,0,0,0,0,0,0,0,0,0,0,0,0,0,0,0,0,0,0,0,0,0,0,0,0,0,0,0,0,0,0,0,0,0,0,0,0,0,0,0,0,0,0,0]","[0.0003000000000454861,0.017699999999955196,0.033100000000089835,0.05090000000014072,0.0660000000000025,0.08319999999995531,0.09990000000014021,0.11619999999994945,0.13290000000014146,0.1496999999999531,0.16619999999995372,0.18290000000013862,0.19950000000000045,0.21619999999995088,0.232999999999997,0.2494000000001364,0.2665000000000006,0.28300000000000125,0.3009000000001407,0.31640000000013657,0.33469999999995537,0.35010000000009,0.36660000000009063,0.38310000000009126,0.40130000000004884,0.41810000000009495,0.4331999999999496,0.44940000000013924,0.4681000000000921,0.4851000000000951,0.5013000000000432,0.5164000000001394,0.5343000000000444,0.5496999999999517,0.566300000000048,0.5833000000000439,0.599499999999999,0.6161000000000953,0.6331999999999525,0.6499999999999986,0.666400000000138,0.6829999999999998,0.7011000000000891,0.7166999999999533,0.7331000000000927,0.7509000000001365,0.7666000000000892,0.783199999999951,0.799900000000136,0.8179000000001366,0.8346999999999554,0.8493000000000421,0.8664000000001408,0.8844999999999956,0.8991999999999507,0.9163000000000423,0.9329999999999998,0.9495000000000005,0.9663000000000466]",,2,0,2,0,1,,,,
,,,,,,,,,,,,,,,PAV-0015,2022-11-01_16h31.55.119,GoFitts,2022.1.4,Win32,59.99160118,,,,,"[-252.81781074217108,-183.68289134139783]","[209.1033144871432,232.2327579616857]",25.5,625,2,"[-241,-241,-241,-241,-240,-239,-239,-239,-247,-257,-260,-260,-261,-261,-261,-261,-256,-217,-190,-69,28,102,156,184,190,190,190,190,190,190,191,194,198,203,206,210,216,221]","[-181,-181,-181,-181,-181,-181,-181,-182,-182,-184,-184,-184,-184,-184,-184,-184,-184,-161,-144,-69,-8,49,100,134,152,161,166,168,169,169,171,173,179,186,192,202,217,234]","[0,0,0,0,0,0,0,0,0,0,0,0,0,0,0,0,0,0,0,0,0,0,0,0,0,0,0,0,0,0,0,0,0,0,0,0,0,0]","[0,0,0,0,0,0,0,0,0,0,0,0,0,0,0,0,0,0,0,0,0,0,0,0,0,0,0,0,0,0,0,0,0,0,0,0,0,0]","[0,0,0,0,0,0,0,0,0,0,0,0,0,0,0,0,0,0,0,0,0,0,0,0,0,0,0,0,0,0,0,0,0,0,0,0,0,0]","[0.0004000000001411763,0.01780000000004378,0.03270000000018314,0.049500000000001876,0.06630000000004799,0.0831000000000941,0.09949999999999903,0.11630000000004515,0.13430000000004583,0.14990000000013737,0.16820000000018354,0.18440000000013868,0.201300000000046,0.21630000000004657,0.2325000000000017,0.2496000000000933,0.2666000000000892,0.2843000000000444,0.30010000000009285,0.31780000000004804,0.3331000000000941,0.35120000000018337,0.3683000000000476,0.384700000000187,0.39970000000018757,0.4163000000000423,0.434300000000043,0.44980000000004594,0.4681000000000921,0.48499999999999943,0.5020000000000024,0.5219999999999985,0.5348000000000468,0.5494000000001407,0.5661000000000911,0.584800000000044,0.5996000000000947,0.6181000000000907]",,3,0,3,0,1,,,,
,,,,,,,,,,,,,,,PAV-0015,2022-11-01_16h31.55.119,GoFitts,2022.1.4,Win32,59.99160118,,,,,"[209.1033144871432,232.2327579616857]","[-156.25000000000014,-270.632938682637]",25.5,625,2,"[221,226,233,236,237,235,234,233,232,230,228,227,225,222,220,218,218,218,218,218,215,210,196,165,87,59,1,-63,-78,-97,-100,-101,-101,-102,-102,-102,-102,-102,-103,-105,-115,-132,-158,-183,-203,-214,-216,-216,-216,-216,-216,-216,-211,-203,-186,-166]","[234,248,260,267,269,269,269,269,268,267,266,261,256,253,248,246,244,243,241,239,235,226,208,170,78,42,-35,-142,-169,-212,-222,-225,-226,-226,-226,-226,-226,-226,-227,-227,-231,-238,-248,-261,-270,-278,-281,-282,-282,-282,-282,-282,-282,-280,-278,-274]","[0,0,0,0,0,0,0,0,0,0,0,0,0,0,0,0,0,0,0,0,0,0,0,0,0,0,0,0,0,0,0,0,0,0,0,0,0,0,0,0,0,0,0,0,0,0,0,0,0,0,0,0,0,0,0,0]","[0,0,0,0,0,0,0,0,0,0,0,0,0,0,0,0,0,0,0,0,0,0,0,0,0,0,0,0,0,0,0,0,0,0,0,0,0,0,0,0,0,0,0,0,0,0,0,0,0,0,0,0,0,0,0,0]","[0,0,0,0,0,0,0,0,0,0,0,0,0,0,0,0,0,0,0,0,0,0,0,0,0,0,0,0,0,0,0,0,0,0,0,0,0,0,0,0,0,0,0,0,0,0,0,0,0,0,0,0,0,0,0,0]","[0.00030000000005259153,0.01619999999995514,0.0313000000000514,0.04819999999995872,0.08250000000000313,0.09800000000000608,0.11589999999991107,0.13150000000000261,0.1496999999999531,0.16489999999991056,0.18149999999999977,0.1980000000000004,0.2148000000000465,0.2325000000000017,0.24789999999990897,0.2645999999998665,0.28269999999995576,0.2983000000000473,0.31480000000004793,0.33150000000000546,0.3478999999999104,0.3643000000000498,0.3813000000000457,0.3993999999999076,0.4165999999998604,0.43280000000005003,0.4480000000000004,0.4658999999999125,0.48169999999995383,0.49900000000000233,0.5146999999999551,0.5313000000000514,0.5491999999999564,0.5648999999999091,0.5811999999999529,0.5975000000000037,0.6163999999999064,0.632899999999907,0.6475999999998621,0.6643999999999082,0.68130000000005,0.699199999999955,0.714500000000001,0.7310999999998629,0.747899999999909,0.7646999999999551,0.7828999999999127,0.797800000000052,0.8143000000000526,0.8308999999999074,0.8495999999998602,0.8644999999999996,0.8810999999998614,0.8983000000000487,0.9160999999998651,0.9313999999999112]",,4,0,4,0,1,,,,
,,,,,,,,,,,,,,,PAV-0015,2022-11-01_16h31.55.119,GoFitts,2022.1.4,Win32,59.99160118,,,,,"[-156.25000000000014,-270.632938682637]","[96.56781074217108,297.2051613422355]",25.5,625,2,"[-166,-149,-136,-132,-132,-132,-132,-132,-132,-132,-133,-134,-134,-135,-136,-140,-142,-141,-130,-107,-71,-28,28,57,71,76,76,76,76,76,75,75,75,79,81,81,84,87,96,99,101]","[-274,-271,-268,-267,-267,-267,-267,-267,-267,-267,-267,-267,-267,-267,-267,-259,-242,-215,-169,-103,-19,75,211,281,320,339,344,345,346,346,346,346,346,346,346,346,345,340,322,311,304]","[0,0,0,0,0,0,0,0,0,0,0,0,0,0,0,0,0,0,0,0,0,0,0,0,0,0,0,0,0,0,0,0,0,0,0,0,0,0,0,0,0]","[0,0,0,0,0,0,0,0,0,0,0,0,0,0,0,0,0,0,0,0,0,0,0,0,0,0,0,0,0,0,0,0,0,0,0,0,0,0,0,0,0]","[0,0,0,0,0,0,0,0,0,0,0,0,0,0,0,0,0,0,0,0,0,0,0,0,0,0,0,0,0,0,0,0,0,0,0,0,0,0,0,0,0]","[0.0001999999999497959,0.017599999999859506,0.032599999999860074,0.049399999999906186,0.06569999999994991,0.08469999999994826,0.10119999999994889,0.11789999999990641,0.13479999999981374,0.14909999999985502,0.16619999999995372,0.18319999999994963,0.19959999999985456,0.21599999999999397,0.232999999999997,0.2496999999999474,0.267299999999814,0.2844999999999942,0.299599999999856,0.3163999999999021,0.3328999999999027,0.34959999999986024,0.36609999999985376,0.382899999999907,0.40119999999995315,0.4161999999999537,0.43309999999985394,0.44969999999995025,0.46649999999999636,0.4827999999998127,0.4997999999998086,0.5160999999998594,0.5326999999999487,0.5507999999998106,0.5659999999999954,0.5838999999999004,0.599499999999999,0.6159999999999997,0.6330999999998568,0.6497999999998072,0.6675999999998581]",,5,0,5,0,1,,,,
,,,,,,,,,,,,,,,PAV-0015,2022-11-01_16h31.55.119,GoFitts,2022.1.4,Win32,59.99160118,,,,,"[96.56781074217108,297.2051613422355]","[-32.66514477114195,-310.7880923025854]",25.5,625,2,"[101,104,104,104,104,104,104,104,104,104,104,103,100,96,91,76,68,26,-5,-28,-44,-50,-52,-53,-55,-55,-55,-55,-55,-55,-55,-53,-48,-41,-34,-32,-29,-29,-31,-36,-41,-47,-48,-48,-48,-48,-48,-48,-48,-48,-48,-47,-46,-40,-35,-32,-29,-29]","[304,300,300,300,300,300,300,300,300,300,300,297,292,282,265,224,204,110,38,-33,-88,-122,-144,-159,-170,-177,-182,-186,-187,-188,-190,-193,-200,-205,-210,-213,-218,-225,-237,-251,-266,-279,-282,-282,-282,-282,-282,-283,-283,-284,-286,-286,-287,-289,-292,-295,-298,-300]","[0,0,0,0,0,0,0,0,0,0,0,0,0,0,0,0,0,0,0,0,0,0,0,0,0,0,0,0,0,0,0,0,0,0,0,0,0,0,0,0,0,0,0,0,0,0,0,0,0,0,0,0,0,0,0,0,0,0]","[0,0,0,0,0,0,0,0,0,0,0,0,0,0,0,0,0,0,0,0,0,0,0,0,0,0,0,0,0,0,0,0,0,0,0,0,0,0,0,0,0,0,0,0,0,0,0,0,0,0,0,0,0,0,0,0,0,0]","[0,0,0,0,0,0,0,0,0,0,0,0,0,0,0,0,0,0,0,0,0,0,0,0,0,0,0,0,0,0,0,0,0,0,0,0,0,0,0,0,0,0,0,0,0,0,0,0,0,0,0,0,0,0,0,0,0,0]","[0.0003000000000454861,0.016600000000096315,0.03169999999995099,0.049399999999906186,0.06489999999990914,0.08160000000009404,0.09799999999999898,0.11460000000009529,0.1313000000000457,0.14800000000000324,0.16469999999995366,0.18189999999990647,0.1983999999999071,0.2151999999999532,0.23310000000009268,0.2498000000000502,0.26460000000009387,0.2816000000000898,0.29999999999999716,0.3151000000000934,0.33180000000004384,0.34989999999990573,0.3651999999999518,0.3816000000000912,0.3999999999999986,0.4173000000000471,0.4313999999999041,0.45039999999990954,0.4648000000000465,0.482999999999997,0.49819999999995446,0.5150000000000006,0.5328000000000443,0.5483999999999085,0.5648999999999091,0.5831999999999553,0.5978999999999104,0.6148000000000451,0.6315000000000026,0.6484999999999985,0.6648999999999106,0.6831000000000955,0.7001999999999526,0.7163000000000466,0.7313000000000471,0.7481000000000932,0.7648999999999049,0.7815000000000012,0.7981000000000904,0.8148999999999091,0.8335000000000008,0.84860000000009,0.8648999999999063,0.8813000000000457,0.898199999999953,0.9163999999999035,0.9314999999999998,0.9483000000000459]",,6,0,6,0,1,,,,
,,,,,,,,,,,,,,,PAV-0015,2022-11-01_16h31.55.119,GoFitts,2022.1.4,Win32,59.99160118,,,,,"[-32.66514477114195,-310.7880923025854]","[-32.66514477114167,310.7880923025854]",25.5,625,2,"[-29,-29,-29,-29,-29,-29,-29,-29,-29,-29,-29,-29,-31,-32,-33,-33,-33,-31,-28,-28,-27,-33,-46,-59,-78,-94,-104,-111,-113,-113,-114,-114,-114,-114,-114,-110,-99,-84,-61,-35,-11,11,14,16,15,9,5,2,-1,-2,-3,-4,-8,-13,-16,-16,-17,-17,-18,-20,-25]","[-300,-302,-302,-303,-304,-304,-304,-304,-304,-304,-304,-300,-295,-290,-280,-264,-241,-213,-177,-141,-77,-31,20,67,115,157,184,207,225,236,243,247,248,248,249,249,250,253,259,271,282,296,299,303,305,307,307,307,307,307,308,309,310,312,312,312,313,313,315,316,318]","[0,0,0,0,0,0,0,0,0,0,0,0,0,0,0,0,0,0,0,0,0,0,0,0,0,0,0,0,0,0,0,0,0,0,0,0,0,0,0,0,0,0,0,0,0,0,0,0,0,0,0,0,0,0,0,0,0,0,0,0,0]","[0,0,0,0,0,0,0,0,0,0,0,0,0,0,0,0,0,0,0,0,0,0,0,0,0,0,0,0,0,0,0,0,0,0,0,0,0,0,0,0,0,0,0,0,0,0,0,0,0,0,0,0,0,0,0,0,0,0,0,0,0]","[0,0,0,0,0,0,0,0,0,0,0,0,0,0,0,0,0,0,0,0,0,0,0,0,0,0,0,0,0,0,0,0,0,0,0,0,0,0,0,0,0,0,0,0,0,0,0,0,0,0,0,0,0,0,0,0,0,0,0,0,0]","[0.0001999999999497959,0.018100000000089267,0.033100000000089835,0.05119999999995173,0.06630000000004088,0.08460000000008705,0.09980000000004452,0.11630000000004515,0.13310000000009126,0.14960000000009188,0.16619999999995372,0.18319999999994963,0.201300000000046,0.2181000000000921,0.23330000000004247,0.2498000000000431,0.2676999999999481,0.28289999999990556,0.29980000000004736,0.3166000000000935,0.33469999999994826,0.3496000000000876,0.3683000000000405,0.38349999999999795,0.3999999999999986,0.416699999999949,0.4348999999999066,0.44999999999999574,0.46660000000009205,0.4833000000000425,0.4996000000000933,0.5183000000000462,0.5331000000000898,0.5496000000000905,0.5663000000000409,0.5833999999999051,0.5998000000000445,0.6166000000000906,0.6331000000000913,0.651399999999903,0.6681000000000878,0.6846999999999497,0.6998000000000459,0.7166999999999533,0.7348999999999037,0.7498999999999043,0.7663999999999049,0.783199999999951,0.8011999999999517,0.8163000000000409,0.8333999999999051,0.8509999999999991,0.8663999999999064,0.8831999999999525,0.901399999999903,0.9181999999999491,0.9329999999999998,0.9513999999999072,0.966600000000092,0.9831999999999539,1.0001000000000886]",,7,0,7,0,1,,,,
,,,,,,,,,,,,,,,PAV-0015,2022-11-01_16h31.55.119,GoFitts,2022.1.4,Win32,59.99160118,,,,,"[-32.66514477114167,310.7880923025854]","[96.567810742171,-297.2051613422355]",25.5,625,2,"[-25,-30,-37,-39,-41,-41,-41,-41,-41,-38,-35,-32,-30,-30,-30,-30,-30,-29,-21,-1,9,33,48,65,88,118,149,172,186,193,195,195,195,195,195,194,190,183,169,148,127,113,104,101,100,100,100,100,101,104,106,108,109,109,109,107,102]","[318,321,324,324,325,325,325,325,325,325,324,324,324,324,324,324,324,324,311,261,231,126,41,-57,-151,-236,-303,-348,-366,-372,-372,-372,-372,-371,-370,-369,-369,-368,-366,-365,-363,-360,-356,-353,-350,-347,-346,-344,-341,-338,-334,-330,-325,-319,-313,-309,-305]","[0,0,0,0,0,0,0,0,0,0,0,0,0,0,0,0,0,0,0,0,0,0,0,0,0,0,0,0,0,0,0,0,0,0,0,0,0,0,0,0,0,0,0,0,0,0,0,0,0,0,0,0,0,0,0,0,0]","[0,0,0,0,0,0,0,0,0,0,0,0,0,0,0,0,0,0,0,0,0,0,0,0,0,0,0,0,0,0,0,0,0,0,0,0,0,0,0,0,0,0,0,0,0,0,0,0,0,0,0,0,0,0,0,0,0]","[0,0,0,0,0,0,0,0,0,0,0,0,0,0,0,0,0,0,0,0,0,0,0,0,0,0,0,0,0,0,0,0,0,0,0,0,0,0,0,0,0,0,0,0,0,0,0,0,0,0,0,0,0,0,0,0,0]","[0.00019999999995690132,0.0173000000000485,0.032800000000051455,0.050600000000095235,0.06610000000009819,0.08410000000009177,0.09930000000004924,0.11589999999991107,0.13269999999995719,0.1493999999999076,0.16589999999990823,0.18389999999990891,0.19919999999995497,0.2153999999999101,0.2325000000000017,0.24930000000004782,0.26569999999995275,0.2823999999999103,0.2991999999999564,0.31819999999995474,0.3328999999999098,0.34939999999991045,0.36599999999999966,0.38389999999991176,0.3993999999999076,0.415800000000047,0.4343000000000501,0.44939999999991187,0.46739999999990545,0.4828999999999084,0.5006000000000981,0.5156999999999528,0.5321999999999534,0.5508000000000521,0.5658000000000456,0.5838999999999075,0.5993999999999104,0.615600000000093,0.6328000000000458,0.6506000000000967,0.6658999999999082,0.6826999999999543,0.7006000000000938,0.7175000000000011,0.7328000000000472,0.7506999999999522,0.7660000000000053,0.7843000000000515,0.7995000000000019,0.8160000000000025,0.8328000000000486,0.8505000000000038,0.8661000000000953,0.8823000000000505,0.8993999999999076,0.9161999999999537,0.9323999999999089]",,8,0,8,0,1,,,,
,,,,,,,,,,,,,,,PAV-0015,2022-11-01_16h31.55.119,GoFitts,2022.1.4,Win32,59.99160118,,,,,"[96.567810742171,-297.2051613422355]","[-156.24999999999994,270.6329386826371]",25.5,625,2,"[102,101,100,100,100,100,100,100,99,99,99,99,98,88,76,60,39,13,-23,-66,-107,-151,-159,-172,-181,-183,-183,-184,-185,-185,-185,-184,-181,-170,-161,-160,-158,-157,-156,-156,-156,-156,-156,-156,-156,-156,-156,-156,-157,-159,-160]","[-305,-304,-304,-303,-303,-303,-303,-303,-303,-303,-303,-303,-301,-283,-264,-231,-185,-126,-55,18,82,150,161,177,192,194,198,200,205,210,219,229,238,246,250,250,250,250,250,251,251,251,251,252,252,253,253,253,253,256,259]","[0,0,0,0,0,0,0,0,0,0,0,0,0,0,0,0,0,0,0,0,0,0,0,0,0,0,0,0,0,0,0,0,0,0,0,0,0,0,0,0,0,0,0,0,0,0,0,0,0,0,0]","[0,0,0,0,0,0,0,0,0,0,0,0,0,0,0,0,0,0,0,0,0,0,0,0,0,0,0,0,0,0,0,0,0,0,0,0,0,0,0,0,0,0,0,0,0,0,0,0,0,0,0]","[0,0,0,0,0,0,0,0,0,0,0,0,0,0,0,0,0,0,0,0,0,0,0,0,0,0,0,0,0,0,0,0,0,0,0,0,0,0,0,0,0,0,0,0,0,0,0,0,0,0,0]","[0.00019999999995690132,0.017800000000050886,0.03350000000000364,0.051699999999954116,0.06640000000014368,0.08299999999999841,0.09990000000014021,0.11640000000014084,0.13319999999995247,0.15140000000013742,0.166400000000138,0.18310000000009552,0.20000000000000284,0.218300000000049,0.23469999999995395,0.25160000000009575,0.2669000000001418,0.2834000000001424,0.3015000000000043,0.3168000000000504,0.33469999999995537,0.35160000000009717,0.36640000000014084,0.38319999999995247,0.40169999999995554,0.41810000000009495,0.4333000000000453,0.44960000000009614,0.468300000000049,0.4834999999999994,0.5001000000000957,0.5166999999999575,0.5350000000000037,0.5519000000001384,0.5681999999999547,0.5834000000001396,0.601199999999956,0.6166999999999518,0.6331999999999525,0.6501000000000943,0.6666000000000949,0.6833000000000453,0.7000000000000028,0.716800000000049,0.7343000000000472,0.75,0.7665000000000006,0.7830000000000013,0.799900000000143,0.8166999999999547,0.8346000000000942]",,9,0,9,0,1,,,,
,,,,,,,,,,,,,,,PAV-0015,2022-11-01_16h31.55.119,GoFitts,2022.1.4,Win32,59.99160118,,,,,"[-156.24999999999994,270.6329386826371]","[209.10331448714328,-232.23275796168562]",25.5,625,2,"[-160,-160,-160,-160,-161,-161,-161,-161,-161,-161,-161,-161,-156,-151,-146,-131,-114,-95,-72,-47,-14,7,27,41,49,57,64,72,80,85,90,97,107,115,135,152,173,192,208,218,222,222,223,223,223,223,223,223,223,222,216,210,203,199,197,196,196,196,198]","[259,260,262,263,263,264,264,264,264,264,264,264,264,264,263,246,228,206,176,144,82,40,1,-23,-40,-51,-61,-68,-73,-76,-80,-88,-97,-106,-124,-137,-152,-169,-183,-193,-198,-200,-201,-201,-201,-201,-201,-201,-201,-203,-207,-209,-212,-215,-218,-220,-221,-223,-227]","[0,0,0,0,0,0,0,0,0,0,0,0,0,0,0,0,0,0,0,0,0,0,0,0,0,0,0,0,0,0,0,0,0,0,0,0,0,0,0,0,0,0,0,0,0,0,0,0,0,0,0,0,0,0,0,0,0,0,0]","[0,0,0,0,0,0,0,0,0,0,0,0,0,0,0,0,0,0,0,0,0,0,0,0,0,0,0,0,0,0,0,0,0,0,0,0,0,0,0,0,0,0,0,0,0,0,0,0,0,0,0,0,0,0,0,0,0,0,0]","[0,0,0,0,0,0,0,0,0,0,0,0,0,0,0,0,0,0,0,0,0,0,0,0,0,0,0,0,0,0,0,0,0,0,0,0,0,0,0,0,0,0,0,0,0,0,0,0,0,0,0,0,0,0,0,0,0,0,0]","[0.0001999999999497959,0.016399999999904935,0.032100000000092166,0.04839999999990141,0.06630000000004088,0.08180000000004384,0.09980000000004452,0.1146999999999494,0.1316000000000912,0.1496999999999531,0.16510000000008773,0.18299999999999983,0.19830000000004588,0.2151999999999532,0.2321000000000879,0.2501000000000886,0.26519999999995036,0.28339999999990084,0.2986999999999469,0.31680000000004327,0.3333000000000439,0.3499999999999943,0.36669999999995184,0.38319999999995247,0.40030000000004407,0.41519999999994894,0.43180000000004526,0.45019999999995264,0.46669999999995326,0.4819999999999993,0.49860000000008853,0.5164999999999935,0.5321000000000922,0.5481999999999516,0.5653000000000432,0.5819999999999936,0.5996000000000876,0.6168000000000404,0.6319999999999979,0.6501999999999484,0.6666000000000878,0.6821000000000907,0.6998000000000459,0.7151999999999532,0.7318000000000424,0.7484999999999999,0.7648000000000437,0.7816000000000898,0.7979999999999947,0.8153000000000432,0.8318000000000438,0.8488000000000397,0.8668000000000404,0.8821999999999477,0.8983999999999028,0.9153999999999058,0.932199999999952,0.9488000000000412,0.9668999999999031]",,10,0,10,0,1,,,,
,,,,,,,,,,,,,,,PAV-0015,2022-11-01_16h31.55.119,GoFitts,2022.1.4,Win32,59.99160118,,,,,"[209.10331448714328,-232.23275796168562]","[-252.81781074217105,183.6828913413979]",25.5,625,2,"[198,200,202,204,204,204,204,204,199,190,176,143,110,75,37,4,-23,-49,-70,-89,-104,-118,-125,-130,-137,-147,-157,-165,-171,-175,-180,-186,-195,-208,-210,-212,-218,-223,-229,-236,-239,-242,-245,-246,-246,-246,-246,-246,-246,-246,-246,-245,-244,-243,-242,-242,-241,-241,-241,-241,-241,-241,-241,-241,-241,-241,-242]","[-227,-232,-235,-237,-237,-237,-237,-235,-227,-212,-195,-166,-142,-121,-103,-87,-72,-57,-41,-25,-9,22,45,70,94,115,132,142,147,150,151,152,153,159,160,162,169,174,181,188,191,194,197,199,199,199,199,199,199,199,199,199,199,199,199,198,197,196,195,194,194,192,192,191,190,189,188]","[0,0,0,0,0,0,0,0,0,0,0,0,0,0,0,0,0,0,0,0,0,0,0,0,0,0,0,0,0,0,0,0,0,0,0,0,0,0,0,0,0,0,0,0,0,0,0,0,0,0,0,0,0,0,0,0,0,0,0,0,0,0,0,0,0,0,0]","[0,0,0,0,0,0,0,0,0,0,0,0,0,0,0,0,0,0,0,0,0,0,0,0,0,0,0,0,0,0,0,0,0,0,0,0,0,0,0,0,0,0,0,0,0,0,0,0,0,0,0,0,0,0,0,0,0,0,0,0,0,0,0,0,0,0,0]","[0,0,0,0,0,0,0,0,0,0,0,0,0,0,0,0,0,0,0,0,0,0,0,0,0,0,0,0,0,0,0,0,0,0,0,0,0,0,0,0,0,0,0,0,0,0,0,0,0,0,0,0,0,0,0,0,0,0,0,0,0,0,0,0,0,0,0]","[0.0001999999999497959,0.01619999999995514,0.03280000000004435,0.048099999999855925,0.06450000000000244,0.08080000000004617,0.09749999999999659,0.11459999999986081,0.1314999999999955,0.14769999999995065,0.16480000000004225,0.18280000000004293,0.19930000000004355,0.21450000000000102,0.2325000000000017,0.24789999999990897,0.2663000000000437,0.2813000000000443,0.2980000000000018,0.3164999999999978,0.3328999999999027,0.34969999999995593,0.36669999999995184,0.38280000000004577,0.3998999999999029,0.41459999999985797,0.4310999999998586,0.44969999999995025,0.4661999999999509,0.48109999999986286,0.4991999999999521,0.5146999999999551,0.5313999999999055,0.549300000000045,0.5649999999999977,0.5813999999999027,0.5991999999999535,0.6145999999998608,0.6313999999999069,0.6480999999998573,0.6646999999999537,0.6809999999999974,0.6978999999999047,0.7161999999999509,0.7326999999999515,0.7475000000000023,0.7644999999999982,0.78109999999986,0.7975999999998606,0.8158999999999068,0.830999999999996,0.8490999999998579,0.8646999999999494,0.8813000000000457,0.8996999999999531,0.9161999999999537,0.9335999999998563,0.950099999999857,0.9660999999998623,0.9811999999999514,0.9975999999998564,1.0143999999999025,1.0311999999999557,1.0481999999999516,1.0645999999998565,1.0810999999998572,1.0981999999999559]",,11,0,11,0,1,,,,
,,,,,,,,,,,,,,,PAV-0015,2022-11-01_16h31.55.119,GoFitts,2022.1.4,Win32,59.99160118,,,,,"[-252.81781074217105,183.6828913413979]","[285.4829555133128,-127.10520096118755]",25.5,625,2,"[-242,-242,-242,-242,-242,-242,-243,-243,-243,-243,-243,-243,-243,-243,-243,-234,-227,-223,-197,-151,-87,-33,17,58,96,129,150,162,168,173,184,194,203,207,211,212,218,225,234,246,254,263,266,268,269,269,269,269,270,270,270,271,275,282]","[188,188,188,188,188,188,188,188,188,188,188,188,188,188,188,188,188,188,182,168,142,111,72,34,-9,-47,-71,-86,-94,-101,-112,-120,-127,-129,-131,-132,-133,-133,-131,-124,-120,-113,-111,-110,-110,-109,-109,-109,-109,-109,-109,-110,-117,-124]","[0,0,0,0,0,0,0,0,0,0,0,0,0,0,0,0,0,0,0,0,0,0,0,0,0,0,0,0,0,0,0,0,0,0,0,0,0,0,0,0,0,0,0,0,0,0,0,0,0,0,0,0,0,0]","[0,0,0,0,0,0,0,0,0,0,0,0,0,0,0,0,0,0,0,0,0,0,0,0,0,0,0,0,0,0,0,0,0,0,0,0,0,0,0,0,0,0,0,0,0,0,0,0,0,0,0,0,0,0]","[0,0,0,0,0,0,0,0,0,0,0,0,0,0,0,0,0,0,0,0,0,0,0,0,0,0,0,0,0,0,0,0,0,0,0,0,0,0,0,0,0,0,0,0,0,0,0,0,0,0,0,0,0,0]","[0.00029999999981811243,0.01739999999990971,0.03239999999991028,0.049399999999906186,0.06750000000000256,0.08299999999999841,0.10099999999999909,0.11609999999986087,0.1327999999998184,0.1491999999999578,0.16639999999991062,0.18269999999995434,0.19909999999985928,0.2158999999999054,0.23259999999986292,0.2494999999999976,0.2665000000000006,0.28309999999986246,0.29969999999995167,0.31799999999999784,0.3329999999999984,0.34929999999981476,0.36609999999986087,0.38409999999986155,0.3996999999999531,0.4175999999998581,0.43279999999981555,0.4508999999999048,0.466199999999958,0.4830999999998582,0.5010999999998589,0.5158999999999097,0.5328999999999056,0.5507999999998177,0.5661999999999523,0.584199999999953,0.5997999999998171,0.6161999999999566,0.6342999999998113,0.6495999999998645,0.6663999999999106,0.6841999999999544,0.7010999999998617,0.7162999999998121,0.7342999999998128,0.7497999999998157,0.7661999999999551,0.7823999999999103,0.7995000000000019,0.8162999999998135,0.8327999999998212,0.8510999999998603,0.8683999999999088,0.8847999999998137]",,12,0,12,0,1,,,,
,,,,,,,,,,,,,,,PAV-0015,2022-11-01_16h31.55.119,GoFitts,2022.1.4,Win32,59.99160118,,,,,"[285.4829555133128,-127.10520096118755]","[-305.67112522931427,64.97240338054979]",25.5,625,2,"[282,290,297,301,302,302,302,302,302,302,302,302,302,302,302,302,297,282,251,192,111,16,-114,-149,-207,-255,-274,-286,-294,-299,-304,-312,-319,-322,-324,-326,-326,-328,-329,-329,-329,-328,-325,-321,-318]","[-124,-132,-136,-138,-138,-138,-138,-138,-138,-138,-137,-137,-137,-137,-137,-136,-136,-133,-129,-122,-112,-100,-74,-65,-47,-27,-15,-3,6,15,24,32,38,42,45,46,48,50,52,54,55,57,59,62,66]","[0,0,0,0,0,0,0,0,0,0,0,0,0,0,0,0,0,0,0,0,0,0,0,0,0,0,0,0,0,0,0,0,0,0,0,0,0,0,0,0,0,0,0,0,0]","[0,0,0,0,0,0,0,0,0,0,0,0,0,0,0,0,0,0,0,0,0,0,0,0,0,0,0,0,0,0,0,0,0,0,0,0,0,0,0,0,0,0,0,0,0]","[0,0,0,0,0,0,0,0,0,0,0,0,0,0,0,0,0,0,0,0,0,0,0,0,0,0,0,0,0,0,0,0,0,0,0,0,0,0,0,0,0,0,0,0,0]","[0.0001999999999497959,0.01619999999995514,0.0309999999999917,0.048299999999812826,0.0660999999998495,0.08109999999985007,0.09789999999989618,0.11459999999985371,0.13119999999995002,0.14769999999994354,0.16469999999995366,0.18239999999990175,0.19779999999981612,0.21429999999980964,0.23129999999980555,0.24809999999985166,0.26579999999981396,0.2813999999999055,0.2993999999999062,0.3160999999998495,0.33149999999999125,0.3480999999998602,0.36619999999994945,0.38129999999981123,0.39769999999994354,0.4161999999999466,0.43169999999994957,0.44939999999989766,0.4660999999998552,0.4829999999999899,0.49809999999985166,0.5158999999999025,0.5333999999999008,0.547899999999899,0.5644999999999953,0.582799999999807,0.597999999999999,0.6145999999998537,0.63119999999995,0.6478999999999075,0.666099999999858,0.6812999999998084,0.6979999999999933,0.7157999999998168,0.7312999999998056]",,13,0,13,0,1,,,,
,,,,,,,,,,,,,,,PAV-0015,2022-11-01_16h31.55.119,GoFitts,2022.1.4,Win32,59.99160118,,,,,"[-305.67112522931427,64.97240338054979]","[312.5,0]",25.5,625,2,"[-318,-314,-310,-308,-308,-308,-308,-308,-308,-308,-308,-308,-308,-308,-297,-283,-258,-196,-136,-66,3,69,120,151,172,185,191,192,194,199,207,210,211,213,222,235,253,265,274,277,279,279,279,279,280,281,281,281,281,281,288,307]","[66,69,73,74,75,75,75,75,75,75,75,75,75,75,75,72,66,54,46,39,36,32,28,25,20,15,12,12,12,11,10,10,10,10,8,6,5,5,3,3,2,1,0,-1,-1,-2,-2,-3,-3,-3,-3,-1]","[0,0,0,0,0,0,0,0,0,0,0,0,0,0,0,0,0,0,0,0,0,0,0,0,0,0,0,0,0,0,0,0,0,0,0,0,0,0,0,0,0,0,0,0,0,0,0,0,0,0,0,0]","[0,0,0,0,0,0,0,0,0,0,0,0,0,0,0,0,0,0,0,0,0,0,0,0,0,0,0,0,0,0,0,0,0,0,0,0,0,0,0,0,0,0,0,0,0,0,0,0,0,0,0,0]","[0,0,0,0,0,0,0,0,0,0,0,0,0,0,0,0,0,0,0,0,0,0,0,0,0,0,0,0,0,0,0,0,0,0,0,0,0,0,0,0,0,0,0,0,0,0,0,0,0,0,0,0]","[0.00020000000019138042,0.01790000000013947,0.03320000000019263,0.04920000000018376,0.06790000000013663,0.08440000000014436,0.09930000000004213,0.11599999999999966,0.13270000000018456,0.15090000000013504,0.1659000000001356,0.18250000000000455,0.19920000000018945,0.21580000000004418,0.23420000000018604,0.25,0.26610000000009393,0.28280000000005145,0.30080000000005214,0.3161000000000911,0.3328000000000486,0.3508000000000493,0.36640000000014084,0.38299999999999557,0.40070000000018524,0.4162000000001882,0.4344999999999999,0.44980000000005305,0.46610000000009677,0.4830000000000041,0.500800000000055,0.5162000000001825,0.5328000000000515,0.5512000000001933,0.5679000000001366,0.584800000000044,0.5994000000001449,0.6175000000000068,0.6328000000000458,0.6494000000001421,0.6659000000001356,0.6850000000000023,0.7014000000001346,0.7162000000001854,0.7326000000000903,0.7507000000001938,0.7657000000001943,0.7828000000000515,0.7992000000001838,0.8171000000000959,0.8328000000000486,0.8496000000000947]",,14,0,14,0,1,,,,
,,,,,,,,,,,,,,,PAV-0015,2022-11-01_16h31.55.119,GoFitts,2022.1.4,Win32,59.99160118,,,,,,,,,2,,,,,,,,,,,,,2,0,0,1
,,,,,,,,,,,,,,,PAV-0015,2022-11-01_16h31.55.119,GoFitts,2022.1.4,Win32,59.99160118,,,return,0.8838,"[-48,-85]","[-24.99999999999999,43.30127018922194]",80,100,3,"[-48,-48,-46,-46,-45,-44,-44,-43,-42,-40,-37,-35,-34,-33,-33,-33,-33,-33,-33,-32,-28,-22,-16,-10,-8,-8,-9,-13]","[-85,-85,-85,-85,-84,-84,-84,-84,-84,-84,-84,-84,-84,-84,-84,-83,-83,-83,-83,-82,-76,-66,-52,-39,-26,-15,-5,6]","[0,0,0,0,0,0,0,0,0,0,0,0,0,0,0,0,0,0,0,0,0,0,0,0,0,0,0,0]","[0,0,0,0,0,0,0,0,0,0,0,0,0,0,0,0,0,0,0,0,0,0,0,0,0,0,0,0]","[0,0,0,0,0,0,0,0,0,0,0,0,0,0,0,0,0,0,0,0,0,0,0,0,0,0,0,0]","[0.000299999999811007,0.015699999999952752,0.030899999999903116,0.04719999999996105,0.06419999999995696,0.08089999999991448,0.09729999999981942,0.11409999999986553,0.13069999999996185,0.14719999999995537,0.16539999999990584,0.1808999999999088,0.19739999999990232,0.21409999999985985,0.23050000000000637,0.2472999999998109,0.2637999999998186,0.2805000000000035,0.29719999999996105,0.3155999999998613,0.33239999999990744,0.34889999999991517,0.36350000000000193,0.3823999999999046,0.39739999999990516,0.4138999999999129,0.4303999999999064,0.4485999999998569]",,0,0,0,0,1,,,,
,,,,,,,,,,,,,,,PAV-0015,2022-11-01_16h31.55.119,GoFitts,2022.1.4,Win32,59.99160118,,,,,"[-24.99999999999999,43.30127018922194]","[33.45653031794292,-37.1572412738697]",80,100,3,"[-13,-19,-28,-31,-38,-39,-39,-39,-38,-38,-37,-36,-35,-34,-34,-34,-34,-33,-31,-25,-20,-13,-7,-1,3]","[6,19,36,42,56,60,63,66,67,69,70,71,71,71,72,72,72,72,70,57,40,19,4,-9,-16]","[0,0,0,0,0,0,0,0,0,0,0,0,0,0,0,0,0,0,0,0,0,0,0,0,0]","[0,0,0,0,0,0,0,0,0,0,0,0,0,0,0,0,0,0,0,0,0,0,0,0,0]","[0,0,0,0,0,0,0,0,0,0,0,0,0,0,0,0,0,0,0,0,0,0,0,0,0]","[0.0003000000000383807,0.017499999999998295,0.03330000000003963,0.048499999999989996,0.06670000000018206,0.08149999999999125,0.09849999999998715,0.11649999999998784,0.1316000000000912,0.14830000000003452,0.16530000000004463,0.1832000000001841,0.20030000000004122,0.21680000000003474,0.2318000000000353,0.2496000000000862,0.26490000000013936,0.28170000000018547,0.29980000000004736,0.3152000000001749,0.3329999999999984,0.34880000000003974,0.36510000000008347,0.38310000000008415,0.3984999999999985]",,1,0,1,0,1,,,,
,,,,,,,,,,,,,,,PAV-0015,2022-11-01_16h31.55.119,GoFitts,2022.1.4,Win32,59.99160118,,,,,"[33.45653031794292,-37.1572412738697]","[-40.450849718747364,29.38926261462366]",80,100,3,"[3,6,9,11,15,19,20,22,25,26,26,26,26,26,26,23,11,-14,-37]","[-16,-21,-23,-25,-27,-31,-33,-36,-39,-40,-40,-40,-40,-40,-40,-37,-29,-15,-5]","[0,0,0,0,0,0,0,0,0,0,0,0,0,0,0,0,0,0,0]","[0,0,0,0,0,0,0,0,0,0,0,0,0,0,0,0,0,0,0]","[0,0,0,0,0,0,0,0,0,0,0,0,0,0,0,0,0,0,0]","[0.0001999999999497959,0.017499999999998295,0.03300000000000125,0.05069999999994934,0.06649999999999068,0.08439999999990278,0.09949999999999193,0.1181999999999448,0.13489999999990232,0.15180000000003702,0.16589999999989402,0.18289999999990414,0.19930000000003645,0.21609999999985519,0.23439999999989425,0.2494999999999976,0.26599999999999113,0.2845999999998554,0.29949999999999477]",,2,0,2,0,1,,,,
,,,,,,,,,,,,,,,PAV-0015,2022-11-01_16h31.55.119,GoFitts,2022.1.4,Win32,59.99160118,,,,,"[-40.450849718747364,29.38926261462366]","[45.67727288213005,-20.336832153790006]",80,100,3,"[-37,-56,-68,-72,-73,-75,-76,-76,-76,-76,-76,-74,-72,-64,-53,-34,-13,1,13]","[-5,6,13,17,21,25,28,29,29,29,29,29,29,29,27,17,6,-3,-11]","[0,0,0,0,0,0,0,0,0,0,0,0,0,0,0,0,0,0,0]","[0,0,0,0,0,0,0,0,0,0,0,0,0,0,0,0,0,0,0]","[0,0,0,0,0,0,0,0,0,0,0,0,0,0,0,0,0,0,0]","[0.0001999999999497959,0.01769999999994809,0.03459999999985541,0.04989999999989436,0.0660999999998495,0.083399999999898,0.10009999999985553,0.11649999999998784,0.13289999999990698,0.15129999999980726,0.16629999999980782,0.1842999999998085,0.19999999999998863,0.21659999999985757,0.23429999999980566,0.2498999999998972,0.26639999999990494,0.28319999999995105,0.3009999999999877]",,3,0,3,0,1,,,,
,,,,,,,,,,,,,,,PAV-0015,2022-11-01_16h31.55.119,GoFitts,2022.1.4,Win32,59.99160118,,,,,"[45.67727288213005,-20.336832153790006]","[-48.907380036690284,10.395584540887965]",80,100,3,"[13,21,24,26,26,27,27,27,27,27,27,27,27,24,11,-2,-13,-30]","[-11,-16,-19,-19,-19,-19,-19,-19,-19,-19,-19,-19,-19,-19,-17,-14,-9,0]","[0,0,0,0,0,0,0,0,0,0,0,0,0,0,0,0,0,0]","[0,0,0,0,0,0,0,0,0,0,0,0,0,0,0,0,0,0]","[0,0,0,0,0,0,0,0,0,0,0,0,0,0,0,0,0,0]","[0.0001999999999497959,0.016699999999957527,0.031999999999996476,0.048699999999954,0.06489999999990914,0.08180000000004384,0.09830000000005157,0.11499999999999488,0.1316999999999524,0.14819999999994593,0.1664999999999992,0.18169999999994957,0.19830000000004588,0.2150000000000034,0.23160000000008552,0.24819999999995446,0.26510000000008915,0.28319999999995105]",,4,0,4,0,1,,,,
,,,,,,,,,,,,,,,PAV-0015,2022-11-01_16h31.55.119,GoFitts,2022.1.4,Win32,59.99160118,,,,,"[-48.907380036690284,10.395584540887965]","[50,0]",80,100,3,"[-30,-42,-51,-57,-60,-61,-61,-61,-61,-62,-57,-48,-38,-29,-16,2,23]","[0,7,12,15,16,16,16,16,16,16,16,16,14,10,6,1,-4]","[0,0,0,0,0,0,0,0,0,0,0,0,0,0,0,0,0]","[0,0,0,0,0,0,0,0,0,0,0,0,0,0,0,0,0]","[0,0,0,0,0,0,0,0,0,0,0,0,0,0,0,0,0]","[0.00030000000005259153,0.01650000000000773,0.031600000000096884,0.05000000000001137,0.0652000000001891,0.08190000000014663,0.09830000000005157,0.1150000000000091,0.1316000000000912,0.14830000000004873,0.1661000000000996,0.18160000000010257,0.19960000000010325,0.215100000000092,0.23160000000009973,0.249700000000189,0.26500000000000057]",,5,0,5,0,1,,,,
,,,,,,,,,,,,,,,PAV-0015,2022-11-01_16h31.55.119,GoFitts,2022.1.4,Win32,59.99160118,,,,,"[50,0]","[-48.907380036690284,-10.395584540887953]",80,100,3,"[23,39,46,49,50,50,50,50,49,44,40,34,28,19,3,-16]","[-4,-6,-8,-9,-9,-9,-9,-9,-9,-9,-9,-9,-9,-9,-10,-11]","[0,0,0,0,0,0,0,0,0,0,0,0,0,0,0,0]","[0,0,0,0,0,0,0,0,0,0,0,0,0,0,0,0]","[0,0,0,0,0,0,0,0,0,0,0,0,0,0,0,0]","[0.0004000000001411763,0.017800000000050886,0.03300000000000125,0.04949999999999477,0.06749999999999545,0.08260000000009882,0.09920000000019513,0.11599999999999966,0.13299999999999557,0.15090000000013504,0.16790000000014516,0.18280000000004293,0.2011000000000962,0.21620000000018536,0.23420000000018604,0.249700000000189]",,6,0,6,0,1,,,,
,,,,,,,,,,,,,,,PAV-0015,2022-11-01_16h31.55.119,GoFitts,2022.1.4,Win32,59.99160118,,,,,"[-48.907380036690284,-10.395584540887953]","[45.67727288213004,20.336832153790006]",80,100,3,"[-16,-43,-52,-54,-57,-58,-59,-59,-61,-62,-63,-63,-63,-59,-44,-35,1,34]","[-11,-12,-12,-12,-12,-12,-12,-12,-12,-12,-12,-12,-12,-12,-8,-5,7,18]","[0,0,0,0,0,0,0,0,0,0,0,0,0,0,0,0,0,0]","[0,0,0,0,0,0,0,0,0,0,0,0,0,0,0,0,0,0]","[0,0,0,0,0,0,0,0,0,0,0,0,0,0,0,0,0,0]","[0.00030000000005259153,0.019700000000185014,0.03450000000000841,0.049600000000097566,0.06770000000018683,0.08260000000009882,0.09960000000009472,0.11740000000014561,0.1351000000000937,0.14980000000004168,0.16760000000009256,0.18250000000000455,0.19940000000013924,0.21600000000000819,0.23440000000013583,0.2494999999999976,0.2683000000000533,0.2848000000000468]",,7,0,7,0,1,,,,
,,,,,,,,,,,,,,,PAV-0015,2022-11-01_16h31.55.119,GoFitts,2022.1.4,Win32,59.99160118,,,,,"[45.67727288213004,20.336832153790006]","[-40.45084971874737,-29.38926261462365]",80,100,3,"[34,70,103,129,141,141,141,141,140,138,135,127,108,67,43,21,4,-5,-10,-12,-13]","[18,29,39,47,52,52,52,53,53,53,53,51,46,35,27,20,13,9,5,2,-1]","[0,0,0,0,0,0,0,0,0,0,0,0,0,0,0,0,0,0,0,0,0]","[0,0,0,0,0,0,0,0,0,0,0,0,0,0,0,0,0,0,0,0,0]","[0,0,0,0,0,0,0,0,0,0,0,0,0,0,0,0,0,0,0,0,0]","[0.0003000000000383807,0.016399999999904935,0.0309999999999917,0.04800000000000182,0.0658000000000385,0.08099999999998886,0.09760000000008517,0.11469999999994229,0.13089999999989743,0.14799999999999613,0.16569999999994423,0.18149999999999977,0.1976999999999549,0.21450000000000102,0.23110000000008313,0.24799999999999045,0.26599999999999113,0.2811999999999557,0.2980000000000018,0.3146000000000839,0.33099999999998886]",,8,0,8,0,1,,,,
,,,,,,,,,,,,,,,PAV-0015,2022-11-01_16h31.55.119,GoFitts,2022.1.4,Win32,59.99160118,,,,,"[-40.45084971874737,-29.38926261462365]","[33.456530317942914,37.157241273869715]",80,100,3,"[-13,-14,-16,-20,-26,-31,-36,-40,-44,-44,-44,-44,-44,-41,-30,-3,19]","[-1,-3,-7,-11,-18,-23,-28,-33,-36,-36,-36,-36,-35,-27,-16,6,21]","[0,0,0,0,0,0,0,0,0,0,0,0,0,0,0,0,0]","[0,0,0,0,0,0,0,0,0,0,0,0,0,0,0,0,0]","[0,0,0,0,0,0,0,0,0,0,0,0,0,0,0,0,0]","[0.0001999999999497959,0.01769999999994809,0.03309999999986246,0.04969999999995878,0.06809999999985905,0.08339999999991221,0.09959999999986735,0.11639999999991346,0.13309999999985678,0.1493000000000535,0.16609999999985803,0.18280000000004293,0.19980000000005305,0.21769999999995093,0.2331999999999539,0.25159999999985416,0.2683999999999145]",,9,0,9,0,1,,,,
,,,,,,,,,,,,,,,PAV-0015,2022-11-01_16h31.55.119,GoFitts,2022.1.4,Win32,59.99160118,,,,,"[33.456530317942914,37.157241273869715]","[-25.00000000000002,-43.301270189221924]",80,100,3,"[19,40,58,72,79,80,80,80,80,80,79,76,71,61,47,31,13,1,-9]","[21,37,49,59,65,67,68,68,68,68,68,63,56,44,30,14,0,-12,-20]","[0,0,0,0,0,0,0,0,0,0,0,0,0,0,0,0,0,0,0]","[0,0,0,0,0,0,0,0,0,0,0,0,0,0,0,0,0,0,0]","[0,0,0,0,0,0,0,0,0,0,0,0,0,0,0,0,0,0,0]","[0.00020000000017716957,0.016600000000096315,0.03270000000017603,0.04800000000000182,0.06470000000018672,0.08320000000018979,0.09780000000004918,0.11610000000008824,0.13100000000000023,0.14770000000018513,0.16449999999998965,0.18240000000014334,0.1976000000000937,0.21450000000000102,0.2326000000000903,0.2496000000000862,0.2643000000000484,0.28300000000000125,0.2981000000000904]",,10,0,10,0,1,,,,
,,,,,,,,,,,,,,,PAV-0015,2022-11-01_16h31.55.119,GoFitts,2022.1.4,Win32,59.99160118,,,,,"[-25.00000000000002,-43.301270189221924]","[15.450849718747373,47.552825814757675]",80,100,3,"[-9,-13,-14,-14,-14,-14,-14,-14,-15,-15,-15,-16,-16,-17,-17,-17,-17,-16,-15,-11]","[-20,-26,-29,-30,-30,-30,-30,-30,-30,-30,-30,-29,-27,-25,-22,-14,-11,0,4,20]","[0,0,0,0,0,0,0,0,0,0,0,0,0,0,0,0,0,0,0,0]","[0,0,0,0,0,0,0,0,0,0,0,0,0,0,0,0,0,0,0,0]","[0,0,0,0,0,0,0,0,0,0,0,0,0,0,0,0,0,0,0,0]","[0.00019999999996400675,0.017799999999823513,0.03529999999982181,0.04979999999981999,0.0661999999999523,0.08299999999999841,0.09969999999995593,0.11639999999991346,0.13319999999995957,0.14929999999981192,0.16629999999982203,0.1843999999999113,0.19989999999991426,0.21789999999991494,0.2331999999999539,0.2512999999998158,0.26639999999990494,0.28429999999981703,0.2996999999999588,0.31779999999982067]",,11,0,11,0,1,,,,
,,,,,,,,,,,,,,,PAV-0015,2022-11-01_16h31.55.119,GoFitts,2022.1.4,Win32,59.99160118,,,,,"[15.450849718747373,47.552825814757675]","[-5.226423163382711,-49.72609476841367]",80,100,3,"[-11,-7,-2,2,6,7,7,7,7,7,7,7,7,7,7,7,7,7,6,-1,-5,-11,-22]","[20,34,45,55,62,64,64,64,64,64,64,64,64,64,64,64,64,64,64,52,31,2,-28]","[0,0,0,0,0,0,0,0,0,0,0,0,0,0,0,0,0,0,0,0,0,0,0]","[0,0,0,0,0,0,0,0,0,0,0,0,0,0,0,0,0,0,0,0,0,0,0]","[0,0,0,0,0,0,0,0,0,0,0,0,0,0,0,0,0,0,0,0,0,0,0]","[0.0004000000001411763,0.016699999999957527,0.033100000000104046,0.04990000000015016,0.06650000000000489,0.08130000000005566,0.09799999999999898,0.11640000000014084,0.13150000000000261,0.14790000000014913,0.16469999999995366,0.18110000000010018,0.1980000000000075,0.21619999999995798,0.23130000000004713,0.24800000000000466,0.26630000000005793,0.28330000000005384,0.2985000000000042,0.31519999999996173,0.33200000000000784,0.348199999999963,0.3651999999999589]",,12,0,12,0,1,,,,
,,,,,,,,,,,,,,,PAV-0015,2022-11-01_16h31.55.119,GoFitts,2022.1.4,Win32,59.99160118,,,,,"[-5.226423163382711,-49.72609476841367]","[-5.226423163382667,49.72609476841367]",80,100,3,"[-22,-35,-39,-39,-39,-39,-39,-38,-37,-36,-34,-32,-28,-27,-26,-24,-23]","[-28,-58,-66,-68,-68,-68,-66,-60,-51,-41,-26,-20,-8,-2,4,11,17]","[0,0,0,0,0,0,0,0,0,0,0,0,0,0,0,0,0]","[0,0,0,0,0,0,0,0,0,0,0,0,0,0,0,0,0]","[0,0,0,0,0,0,0,0,0,0,0,0,0,0,0,0,0]","[0.00020000000017716957,0.017100000000084492,0.03230000000004907,0.04949999999999477,0.06749999999999545,0.08420000000018035,0.09900000000000375,0.11610000000008824,0.13270000000018456,0.14920000000017808,0.16750000000000398,0.18240000000014334,0.20049999999999102,0.21590000000013276,0.2326000000000903,0.24899999999999523,0.26599999999999113]",,13,0,13,0,1,,,,
,,,,,,,,,,,,,,,PAV-0015,2022-11-01_16h31.55.119,GoFitts,2022.1.4,Win32,59.99160118,,,,,"[-5.226423163382667,49.72609476841367]","[15.450849718747362,-47.55282581475768]",80,100,3,"[-23,-21,-20,-19,-18,-18,-18,-18,-18,-18,-18,-18,-18,-18,-16,-10,-7]","[17,23,29,35,37,39,40,40,40,40,40,40,39,34,20,2,-19]","[0,0,0,0,0,0,0,0,0,0,0,0,0,0,0,0,0]","[0,0,0,0,0,0,0,0,0,0,0,0,0,0,0,0,0]","[0,0,0,0,0,0,0,0,0,0,0,0,0,0,0,0,0]","[0.0003999999998995918,0.01760000000008688,0.03260000000008745,0.04919999999994218,0.06769999999994525,0.0826000000000846,0.1004999999999967,0.11589999999989686,0.13249999999999318,0.1490000000000009,0.16569999999994423,0.18219999999995196,0.19939999999989766,0.21719999999994855,0.2324999999999875,0.2494999999999976,0.26599999999999113]",,14,0,14,0,1,,,,
,,,,,,,,,,,,,,,PAV-0015,2022-11-01_16h31.55.119,GoFitts,2022.1.4,Win32,59.99160118,,,,,,,,,3,,,,,,,,,,,,,3,0,0,1
,,,,,,,,,,,,,,,PAV-0015,2022-11-01_16h31.55.119,GoFitts,2022.1.4,Win32,59.99160118,,,return,0.9608,"[-13,2]","[-174.99999999999991,303.10889132455355]",20,700,4,"[-13,-13,-13,-13,-13,-13,-13,-13,-13,-13,-13,-13,-13,-13,-13,-13,-13,-13,-13,-12,-4,3,6,5,-4,-15,-30,-48,-70,-89,-113,-129,-142,-151,-159,-166,-172,-177,-181,-188,-190,-192,-192,-191,-191,-191,-191,-191,-191,-191,-191,-191,-189,-182,-167]","[2,2,2,2,2,2,2,2,2,2,2,2,2,2,2,2,2,2,2,9,32,54,77,96,111,123,133,145,158,168,183,192,198,202,208,214,220,227,235,258,271,293,323,335,338,338,338,338,338,338,338,338,336,324,306]","[0,0,0,0,0,0,0,0,0,0,0,0,0,0,0,0,0,0,0,0,0,0,0,0,0,0,0,0,0,0,0,0,0,0,0,0,0,0,0,0,0,0,0,0,0,0,0,0,0,0,0,0,0,0,0]","[0,0,0,0,0,0,0,0,0,0,0,0,0,0,0,0,0,0,0,0,0,0,0,0,0,0,0,0,0,0,0,0,0,0,0,0,0,0,0,0,0,0,0,0,0,0,0,0,0,0,0,0,0,0,0]","[0,0,0,0,0,0,0,0,0,0,0,0,0,0,0,0,0,0,0,0,0,0,0,0,0,0,0,0,0,0,0,0,0,0,0,0,0,0,0,0,0,0,0,0,0,0,0,0,0,0,0,0,0,0,0]","[0.0005999999998493877,0.019199999999941042,0.034899999999893794,0.04980000000003315,0.06639999999990209,0.08309999999985962,0.09989999999990573,0.11639999999989925,0.13289999999989277,0.1498999999999029,0.1664999999999992,0.18299999999999272,0.19989999999990005,0.21649999999999636,0.2328999999999013,0.250899999999902,0.2664999999999935,0.2834999999999894,0.30119999999995173,0.31680000000004327,0.33469999999994116,0.35149999999998727,0.36669999999995184,0.38349999999999795,0.3998999999999029,0.416699999999949,0.4333999999999065,0.4503000000000412,0.4679999999999893,0.4833999999999037,0.5001999999999498,0.5178999999998979,0.5333999999999008,0.5498999999998944,0.5665999999998519,0.5833000000000368,0.5998000000000445,0.6168000000000404,0.6348999999999023,0.6514999999999986,0.666699999999949,0.6833000000000453,0.6996999999999503,0.7168000000000347,0.7334999999999923,0.7513000000000432,0.7683000000000391,0.783199999999951,0.8011999999999517,0.8163999999999021,0.8333000000000368,0.8499999999999943,0.8668999999999016,0.883499999999998,0.8999999999999915]",,0,0,0,0,1,,,,
,,,,,,,,,,,,,,,PAV-0015,2022-11-01_16h31.55.119,GoFitts,2022.1.4,Win32,59.99160118,,,,,"[-174.99999999999991,303.10889132455355]","[234.19571222560046,-260.1006889170879]",20,700,4,"[-167,-162,-160,-160,-160,-160,-160,-160,-160,-160,-160,-160,-160,-160,-160,-160,-160,-160,-154,-133,-105,-71,-4,47,105,158,196,220,235,243,246,248,249,250,250,250,250,250,249,246,243,241,240,239,239,239,239,239,239,239,237]","[306,299,297,296,296,296,296,296,296,296,296,296,296,296,296,296,296,296,288,253,203,135,8,-96,-187,-254,-289,-306,-314,-316,-316,-316,-316,-316,-314,-310,-307,-298,-292,-284,-279,-275,-272,-271,-271,-271,-271,-271,-271,-271,-269]","[0,0,0,0,0,0,0,0,0,0,0,0,0,0,0,0,0,0,0,0,0,0,0,0,0,0,0,0,0,0,0,0,0,0,0,0,0,0,0,0,0,0,0,0,0,0,0,0,0,0,0]","[0,0,0,0,0,0,0,0,0,0,0,0,0,0,0,0,0,0,0,0,0,0,0,0,0,0,0,0,0,0,0,0,0,0,0,0,0,0,0,0,0,0,0,0,0,0,0,0,0,0,0]","[0,0,0,0,0,0,0,0,0,0,0,0,0,0,0,0,0,0,0,0,0,0,0,0,0,0,0,0,0,0,0,0,0,0,0,0,0,0,0,0,0,0,0,0,0,0,0,0,0,0,0]","[0.0003999999998995918,0.018099999999861893,0.03499999999999659,0.05189999999990391,0.06629999999981351,0.08469999999995537,0.10150000000000148,0.11609999999986087,0.13289999999990698,0.15099999999999625,0.1663999999998964,0.18309999999985394,0.20079999999981624,0.21629999999980498,0.23299999999998988,0.24959999999985882,0.26619999999995514,0.2825999999998601,0.299599999999856,0.3162999999998135,0.3342999999998142,0.34979999999980294,0.3678999999999064,0.3851999999999549,0.40119999999994604,0.4163999999998964,0.4342999999998085,0.44979999999981146,0.46679999999980737,0.48429999999980566,0.5015999999998542,0.5180000000000007,0.5345999999998554,0.549599999999856,0.5664999999999907,0.5832999999998094,0.5999999999999943,0.616799999999813,0.6342999999998113,0.6513999999998958,0.6661999999999466,0.6833999999999065,0.6999999999999886,0.7181999999999533,0.7345999999998583,0.7492999999998062,0.7678999999998979,0.7827999999998099,0.8011999999999517,0.8160999999998495,0.8332999999998094]",,1,0,1,0,1,,,,
,,,,,,,,,,,,,,,PAV-0015,2022-11-01_16h31.55.119,GoFitts,2022.1.4,Win32,59.99160118,,,,,"[234.19571222560046,-260.1006889170879]","[-283.15594803123156,205.72483830236564]",20,700,4,"[237,234,233,233,233,232,230,221,210,204,178,148,105,56,7,-27,-57,-70,-79,-85,-92,-94,-105,-113,-128,-145,-161,-178,-197,-206,-219,-244,-251,-255,-261,-264,-266,-268,-271,-272,-273,-275,-276,-278,-279,-281,-281,-282,-282,-283,-283,-284,-285,-286,-286,-286,-286,-286,-286,-286]","[-269,-266,-264,-264,-264,-264,-263,-256,-246,-239,-209,-170,-119,-65,-17,19,42,54,60,61,62,62,64,67,72,79,86,94,103,110,119,129,134,138,144,147,150,153,156,158,162,164,168,173,173,176,176,177,178,178,180,182,184,185,186,187,188,192,195,197]","[0,0,0,0,0,0,0,0,0,0,0,0,0,0,0,0,0,0,0,0,0,0,0,0,0,0,0,0,0,0,0,0,0,0,0,0,0,0,0,0,0,0,0,0,0,0,0,0,0,0,0,0,0,0,0,0,0,0,0,0]","[0,0,0,0,0,0,0,0,0,0,0,0,0,0,0,0,0,0,0,0,0,0,0,0,0,0,0,0,0,0,0,0,0,0,0,0,0,0,0,0,0,0,0,0,0,0,0,0,0,0,0,0,0,0,0,0,0,0,0,0]","[0,0,0,0,0,0,0,0,0,0,0,0,0,0,0,0,0,0,0,0,0,0,0,0,0,0,0,0,0,0,0,0,0,0,0,0,0,0,0,0,0,0,0,0,0,0,0,0,0,0,0,0,0,0,0,0,0,0,0,0]","[0.00019999999996400675,0.0176999999999623,0.0350000000000108,0.051300000000054524,0.0658000000000527,0.08299999999999841,0.10110000000010189,0.1178000000000452,0.13430000000005293,0.1496999999999531,0.1661000000000996,0.1846999999999639,0.19939999999991187,0.21769999999995093,0.23310000000009268,0.2498000000000502,0.2678999999999121,0.2848000000000468,0.29960000000009757,0.3161000000000911,0.33460000000009416,0.34969999999995593,0.3678000000000452,0.38310000000009836,0.3996000000000919,0.4163999999999106,0.4333000000000453,0.4508999999999048,0.46610000000009677,0.4826000000001045,0.4996999999999616,0.5176999999999623,0.5345000000000084,0.5498000000000474,0.5676000000000982,0.5831999999999624,0.6008999999999105,0.616500000000002,0.6331999999999596,0.6510000000000105,0.666600000000102,0.6831999999999567,0.7010000000000076,0.7180000000000035,0.7331000000000927,0.7510000000000048,0.7660000000000053,0.7846999999999582,0.8015000000000043,0.8183000000000504,0.8345000000000056,0.8496999999999559,0.8678000000000452,0.8831000000000984,0.9001000000000943,0.9164999999999992,0.9335000000000093,0.9510000000000076,0.9665000000000106,0.9831000000000927]",,2,0,2,0,1,,,,
