key_resp.keys,key_resp.rt,key_resp_3.keys,key_resp_3.rt,from,to,w,a,sequence_loop.thisN,mouse.x,mouse.y,mouse.leftButton,mouse.midButton,mouse.rightButton,mouse.time,key_resp_2.keys,trial_loop.thisRepN,trial_loop.thisTrialN,trial_loop.thisN,trial_loop.thisIndex,trial_loop.ran,participant,session,date,expName,psychopyVersion,OS,frameRate,sequence_loop.thisRepN,sequence_loop.thisTrialN,sequence_loop.thisIndex,sequence_loop.ran
return,13.4121,return,1.2858,"[-24,-212]","[85,0]",77.8,170,0,"[-24,-24,-23,-22,-22,-22,-22,-22,-22,-21,-19,-18,-18,-18,-17,-15,-11,-3,8,16,20,20,20,20,21,22,25,28,36,40,45,58,71]","[-212,-210,-209,-208,-208,-208,-208,-208,-208,-206,-205,-203,-203,-203,-203,-201,-199,-195,-189,-185,-178,-177,-175,-169,-156,-140,-125,-108,-87,-79,-69,-50,-31]","[0,0,0,0,0,0,0,0,0,0,0,0,0,0,0,0,0,0,0,0,0,0,0,0,0,0,0,0,0,0,0,0,0]","[0,0,0,0,0,0,0,0,0,0,0,0,0,0,0,0,0,0,0,0,0,0,0,0,0,0,0,0,0,0,0,0,0]","[0,0,0,0,0,0,0,0,0,0,0,0,0,0,0,0,0,0,0,0,0,0,0,0,0,0,0,0,0,0,0,0,0]","[0.002599999904632,0.01909999990463973,0.03519999980926514,0.05200000000000671,0.06869999980926877,0.08239999985694624,0.10379999995231515,0.11869999980926593,0.13349999999999795,0.14979999995232163,0.16899999999999693,0.18500000000000227,0.20199999999999818,0.21579999995232413,0.23329999995232242,0.2521999998092639,0.26589999985695556,0.28509999990463086,0.30009999990463143,0.3186999998092688,0.33509999990464223,0.3522999999523222,0.3665999999046363,0.3860000000000099,0.39919999980926946,0.4187999999523129,0.4350000000000023,0.45050000000000523,0.4685000000000059,0.485199999809268,0.5018999998569456,0.5186999998092716,0.5346999998092627]",,0,0,0,0,1,PAV-0007,001,2022-09-22_17h43.18.899,GoFitts,2022.1.4,Win32,59.47778505,,,,
,,,,"[85,0]","[-83.14254606237348,-17.67249371950952]",77.8,170,0,"[71,85,101,113,127,137,142,143,143,143,143,143,143,142,142,142,142,141,139,135,125,119,115,111,107,104,93,91,82,73,54,26,5,-23,-41,-60]","[-31,-13,1,7,13,17,20,20,20,20,20,20,21,21,21,21,21,21,20,16,5,0,-4,-7,-9,-10,-11,-11,-11,-11,-11,-11,-13,-15,-16,-19]","[0,0,0,0,0,0,0,0,0,0,0,0,0,0,0,0,0,0,0,0,0,0,0,0,0,0,0,0,0,0,0,0,0,0,0,0]","[0,0,0,0,0,0,0,0,0,0,0,0,0,0,0,0,0,0,0,0,0,0,0,0,0,0,0,0,0,0,0,0,0,0,0,0]","[0,0,0,0,0,0,0,0,0,0,0,0,0,0,0,0,0,0,0,0,0,0,0,0,0,0,0,0,0,0,0,0,0,0,0,0]","[0.0003000001907338401,0.01680000019074157,0.033100000143051034,0.05030000019074521,0.06670000004768895,0.08390000009536891,0.10099999999999909,0.11700000000000443,0.13110000014305,0.15000000000000568,0.16470000004768792,0.18130000019073123,0.20050000000000523,0.21740000009536686,0.2312000000476928,0.2501000001430498,0.26470000004768224,0.2816000001430581,0.3003000001907452,0.31660000014305467,0.3335000000000008,0.34980000019074,0.36690000009537016,0.3821000001430548,0.4000000000000057,0.41760000014305376,0.43380000019074316,0.450600000143055,0.46710000014304853,0.4809000000953745,0.5007000000476864,0.517400000095364,0.5335000000000036,0.5476000001430492,0.5670000000000073,0.5835000000000008]",,1,0,1,0,1,PAV-0007,001,2022-09-22_17h43.18.899,GoFitts,2022.1.4,Win32,59.47778505,,,,
,,,,"[-83.14254606237348,-17.67249371950952]","[77.65136389962107,34.57261466144301]",77.8,170,0,"[-60,-76,-86,-94,-96,-96,-96,-97,-98,-98,-98,-98,-98,-98,-98,-98,-98,-98,-98,-98,-92,-82,-69,-56,-36,-21,-11,2,6,10,12,17,19,20,23,25,26,27,28,32,41,51]","[-19,-20,-20,-20,-20,-20,-20,-20,-20,-21,-21,-21,-21,-21,-21,-21,-21,-21,-21,-21,-20,-15,-9,-3,3,6,8,11,12,12,12,14,14,14,15,15,16,16,16,16,17,19]","[0,0,0,0,0,0,0,0,0,0,0,0,0,0,0,0,0,0,0,0,0,0,0,0,0,0,0,0,0,0,0,0,0,0,0,0,0,0,0,0,0,0]","[0,0,0,0,0,0,0,0,0,0,0,0,0,0,0,0,0,0,0,0,0,0,0,0,0,0,0,0,0,0,0,0,0,0,0,0,0,0,0,0,0,0]","[0,0,0,0,0,0,0,0,0,0,0,0,0,0,0,0,0,0,0,0,0,0,0,0,0,0,0,0,0,0,0,0,0,0,0,0,0,0,0,0,0,0]","[0.00029999995231833054,0.0162000000476894,0.032799999952317194,0.04949999999999477,0.06670000004768895,0.08340000009536652,0.09709999990462848,0.11470000004769076,0.13349999999999795,0.15029999995232401,0.16409999990463575,0.18370000004767917,0.19750000000000512,0.2159000000953739,0.23129999995231287,0.2479000000953704,0.2644000000953639,0.28159999990462836,0.2977000000476835,0.3152000000476818,0.3305000000000007,0.3497000000476902,0.36650000000000205,0.3834000000953637,0.397700000047692,0.4165999999046335,0.43120000004768144,0.4497999999523188,0.4667000000476804,0.4832999999523224,0.5005999999046367,0.51720000004768,0.5335000000000036,0.5482999999523201,0.5670999999046273,0.5829999999999984,0.5977999999523149,0.6164000000953678,0.633499999999998,0.6504000000953738,0.6645000000000039,0.683299999952311]",,2,0,2,0,1,PAV-0007,001,2022-09-22_17h43.18.899,GoFitts,2022.1.4,Win32,59.47778505,,,,
,,,,"[77.65136389962107,34.57261466144301]","[-68.76644452187054,-49.96174644486021]",77.8,170,0,"[51,69,80,85,87,87,87,87,87,87,87,87,87,87,87,87,87,86,80,76,54,39,23,14,3,-3,-5,-10,-18,-22,-26,-30]","[19,23,25,25,26,26,26,26,26,26,26,26,26,26,26,26,26,26,24,22,7,-3,-14,-20,-26,-30,-33,-36,-41,-44,-46,-47]","[0,0,0,0,0,0,0,0,0,0,0,0,0,0,0,0,0,0,0,0,0,0,0,0,0,0,0,0,0,0,0,0]","[0,0,0,0,0,0,0,0,0,0,0,0,0,0,0,0,0,0,0,0,0,0,0,0,0,0,0,0,0,0,0,0]","[0,0,0,0,0,0,0,0,0,0,0,0,0,0,0,0,0,0,0,0,0,0,0,0,0,0,0,0,0,0,0,0]","[0.0006000001430521706,0.017200000047694175,0.03330000019073509,0.049600000143058764,0.06640000009537061,0.08290000009537835,0.09670000004769008,0.1141000001430541,0.13310000014305956,0.14970000004768735,0.16370000004768315,0.18040000009537493,0.1997000000476845,0.21399999999999864,0.23290000009536982,0.24720000004768394,0.2641000001430598,0.2832000000476853,0.299500000000009,0.3147000000476936,0.3304000000953664,0.34980000019074,0.3667000000476861,0.3829000000953755,0.39710000014305535,0.4164999999999992,0.4333000001907408,0.4494000000953662,0.4669000000953787,0.48100000000000875,0.5001000001430498,0.5168000001907416]",,3,0,3,0,1,PAV-0007,001,2022-09-22_17h43.18.899,GoFitts,2022.1.4,Win32,59.47778505,,,,
,,,,"[-68.76644452187054,-49.96174644486021]","[56.87610154050295,63.16731016557851]",77.8,170,0,"[-30,-34,-39,-43,-49,-51,-52,-52,-52,-52,-52,-52,-52,-52,-52,-52,-52,-52,-52,-52,-48,-36,-23,-7,4,20,31,37,40]","[-47,-48,-49,-50,-52,-52,-52,-52,-52,-52,-52,-52,-52,-52,-52,-52,-52,-52,-52,-51,-47,-33,-20,-9,0,12,22,27,31]","[0,0,0,0,0,0,0,0,0,0,0,0,0,0,0,0,0,0,0,0,0,0,0,0,0,0,0,0,0]","[0,0,0,0,0,0,0,0,0,0,0,0,0,0,0,0,0,0,0,0,0,0,0,0,0,0,0,0,0]","[0,0,0,0,0,0,0,0,0,0,0,0,0,0,0,0,0,0,0,0,0,0,0,0,0,0,0,0,0]","[0.00039999985693839335,0.016299999952309463,0.0335999999046237,0.04920000004767644,0.06399999999999295,0.08249999999999602,0.09929999995230787,0.11379999995230605,0.12999999999999545,0.1493999998569393,0.16359999990463336,0.1799999999999926,0.2000999999046229,0.21620000004767803,0.23039999985694237,0.2469999999999999,0.2662000000476752,0.2805999999046236,0.2970999999046313,0.31359999990462484,0.3330999999046327,0.3470999999046285,0.366299999952318,0.38309999990462984,0.39970000004767314,0.4164999999999992,0.4329999999999927,0.4497999999523188,0.46389999985694885]",,4,0,4,0,1,PAV-0007,001,2022-09-22_17h43.18.899,GoFitts,2022.1.4,Win32,59.47778505,,,,
,,,,"[56.87610154050295,63.16731016557851]","[-42.500000000000036,-73.61215932167727]",77.8,170,0,"[40,43,45,47,50,51,52,53,54,55,56,56,56,56,56,56,55,55,46,38,29,21,11,4,-1,-6,-9]","[31,35,38,41,44,46,46,47,49,50,50,50,50,50,50,50,49,48,30,15,-4,-17,-34,-44,-53,-60,-66]","[0,0,0,0,0,0,0,0,0,0,0,0,0,0,0,0,0,0,0,0,0,0,0,0,0,0,0]","[0,0,0,0,0,0,0,0,0,0,0,0,0,0,0,0,0,0,0,0,0,0,0,0,0,0,0]","[0,0,0,0,0,0,0,0,0,0,0,0,0,0,0,0,0,0,0,0,0,0,0,0,0,0,0]","[0.00029999995231833054,0.018399999856939075,0.03529999995231492,0.050200000047681215,0.06699999999999307,0.08509999990462802,0.10159999990462154,0.11549999999999727,0.1349999999999909,0.14979999995230742,0.16809999990462643,0.1825999999046246,0.2018999998569484,0.21789999985693953,0.23229999995231765,0.24899999999999523,0.26849999999998886,0.2832000000476853,0.30209999990462677,0.3185999999046345,0.33279999995231435,0.35189999985693987,0.367999999999995,0.3848999998569411,0.4022000000476851,0.41849999999999454,0.4355999999046247]",,5,0,5,0,1,PAV-0007,001,2022-09-22_17h43.18.899,GoFitts,2022.1.4,Win32,59.47778505,,,,
,,,,"[-42.500000000000036,-73.61215932167727]","[26.266444521870532,80.83980388508805]",77.8,170,0,"[-9,-13,-15,-17,-18,-19,-20,-22,-23,-23,-23,-23,-23,-23,-23,-23,-23,-20,-11,8,15]","[-66,-73,-76,-79,-81,-81,-84,-85,-87,-87,-87,-87,-87,-87,-87,-87,-78,-53,-18,39,56]","[0,0,0,0,0,0,0,0,0,0,0,0,0,0,0,0,0,0,0,0,0]","[0,0,0,0,0,0,0,0,0,0,0,0,0,0,0,0,0,0,0,0,0]","[0,0,0,0,0,0,0,0,0,0,0,0,0,0,0,0,0,0,0,0,0]","[0.000799999952320718,0.016299999952323674,0.035399999856949194,0.04909999990464087,0.06609999990463677,0.08239999985694624,0.09939999985695636,0.11629999995231799,0.13259999990464166,0.14670000004768724,0.16309999990463098,0.17979999995232276,0.19659999990463461,0.2137000000476803,0.23329999995232242,0.2468999998569501,0.2639999999999958,0.2827999999523172,0.29959999990462904,0.3163999998569551,0.3328999998569486]",,6,0,6,0,1,PAV-0007,001,2022-09-22_17h43.18.899,GoFitts,2022.1.4,Win32,59.47778505,,,,
,,,,"[26.266444521870532,80.83980388508805]","[-8.88491937775061,-84.53436110630322]",77.8,170,0,"[15,21,24,25,26,26,27,28,28,28,28,28,28,28,28,28,28,26,25,20,16,11,9]","[56,69,74,79,81,85,86,88,88,88,88,88,88,88,88,88,86,73,58,30,3,-37,-57]","[0,0,0,0,0,0,0,0,0,0,0,0,0,0,0,0,0,0,0,0,0,0,0]","[0,0,0,0,0,0,0,0,0,0,0,0,0,0,0,0,0,0,0,0,0,0,0]","[0,0,0,0,0,0,0,0,0,0,0,0,0,0,0,0,0,0,0,0,0,0,0]","[0.00040000009536811376,0.01559999990463723,0.03240000009536459,0.04679999995231299,0.06570000004768417,0.08299999999999841,0.09950000000000614,0.1157999999523156,0.1329000000953755,0.14720000004768963,0.16320000004768076,0.18020000004769088,0.19690000009536845,0.21390000009536436,0.2304000000953721,0.2469999999999999,0.26390000009537573,0.2830999999046355,0.3002999999523155,0.3160999999046368,0.3314000000953712,0.3495999999046404,0.3664000000953678]",,7,0,7,0,1,PAV-0007,001,2022-09-22_17h43.18.899,GoFitts,2022.1.4,Win32,59.47778505,,,,
,,,,"[-8.88491937775061,-84.53436110630322]","[-8.884919377750533,84.53436110630324]",77.8,170,0,"[9,6,5,4,3,3,3,3,3,3,3,3,3,3,3,3,2,0,-5,-10,-10,-12,-12]","[-57,-72,-83,-89,-91,-93,-94,-94,-94,-94,-95,-95,-95,-95,-95,-95,-87,-70,-47,-14,-6,29,48]","[0,0,0,0,0,0,0,0,0,0,0,0,0,0,0,0,0,0,0,0,0,0,0]","[0,0,0,0,0,0,0,0,0,0,0,0,0,0,0,0,0,0,0,0,0,0,0]","[0,0,0,0,0,0,0,0,0,0,0,0,0,0,0,0,0,0,0,0,0,0,0]","[0.00040000009536811376,0.016099999904625406,0.032299999952314806,0.04679999995231299,0.06559999990463439,0.08379999995231913,0.09979999995231026,0.1157999999523156,0.13009999990462973,0.14709999990462563,0.16370000004768315,0.18299999999999272,0.2002000000476869,0.21349999999999625,0.23020000004768804,0.24709999990463416,0.2630999999046253,0.28300000000000125,0.296799999952313,0.3155000000000001,0.33059999990463496,0.34940000009537187,0.366299999952318]",,8,0,8,0,1,PAV-0007,001,2022-09-22_17h43.18.899,GoFitts,2022.1.4,Win32,59.47778505,,,,
,,,,"[-8.884919377750533,84.53436110630324]","[26.266444521870515,-80.83980388508806]",77.8,170,0,"[-12,-12,-12,-12,-12,-12,-12,-12,-12,-12,-12,-12,-12,-12,-12,-12,-12,-11,-7,-3,0,4,6]","[48,69,77,84,89,90,90,90,90,90,90,90,90,87,70,63,44,16,-4,-23,-35,-47,-55]","[0,0,0,0,0,0,0,0,0,0,0,0,0,0,0,0,0,0,0,0,0,0,0]","[0,0,0,0,0,0,0,0,0,0,0,0,0,0,0,0,0,0,0,0,0,0,0]","[0,0,0,0,0,0,0,0,0,0,0,0,0,0,0,0,0,0,0,0,0,0,0]","[0.00010000014304978322,0.015800000190722585,0.032300000190730316,0.04930000019072622,0.06599999999998829,0.08360000014305058,0.0966000001430416,0.11349999999998772,0.13040000009536357,0.1468000001907228,0.1634999999999991,0.1831000001430425,0.1971000001430383,0.21440000009536675,0.23270000004767155,0.24810000014304023,0.2662000000476752,0.28310000014305103,0.29960000014304455,0.31349999999999056,0.33330000019073225,0.3496000001430417,0.36710000014304]",,9,0,9,0,1,PAV-0007,001,2022-09-22_17h43.18.899,GoFitts,2022.1.4,Win32,59.47778505,,,,
,,,,"[26.266444521870515,-80.83980388508806]","[-42.49999999999998,73.6121593216773]",77.8,170,0,"[6,9,11,12,15,16,16,17,17,17,17,17,17,17,17,17,15,10,0,-10,-19,-30,-33]","[-55,-63,-67,-71,-79,-84,-86,-88,-89,-89,-89,-89,-89,-89,-89,-85,-73,-58,-35,-13,4,29,36]","[0,0,0,0,0,0,0,0,0,0,0,0,0,0,0,0,0,0,0,0,0,0,0]","[0,0,0,0,0,0,0,0,0,0,0,0,0,0,0,0,0,0,0,0,0,0,0]","[0,0,0,0,0,0,0,0,0,0,0,0,0,0,0,0,0,0,0,0,0,0,0]","[0.00040000009536811376,0.015500000000002956,0.029400000095364476,0.046700000047678714,0.06499999999999773,0.08230000019074168,0.09640000009537175,0.11570000004768133,0.13280000019074123,0.1491000001430507,0.16320000004768076,0.17940000009537016,0.1967000000476844,0.21620000004767803,0.22980000019073543,0.24660000014304728,0.2653000001907344,0.28220000004768053,0.29690000009536277,0.3159000000953682,0.332499999999996,0.3488000001907352,0.36610000014304944]",,10,0,10,0,1,PAV-0007,001,2022-09-22_17h43.18.899,GoFitts,2022.1.4,Win32,59.47778505,,,,
,,,,"[-42.49999999999998,73.6121593216773]","[56.87610154050297,-63.16731016557849]",77.8,170,0,"[-33,-36,-38,-40,-41,-41,-41,-41,-41,-41,-41,-41,-41,-41,-41,-38,-29,-15,-1,12,27]","[36,47,54,62,66,68,68,68,69,70,71,71,71,71,69,63,43,13,-16,-40,-65]","[0,0,0,0,0,0,0,0,0,0,0,0,0,0,0,0,0,0,0,0,0]","[0,0,0,0,0,0,0,0,0,0,0,0,0,0,0,0,0,0,0,0,0]","[0,0,0,0,0,0,0,0,0,0,0,0,0,0,0,0,0,0,0,0,0]","[0.00029999995231833054,0.016000000000005343,0.030500000000003524,0.04909999990462666,0.06570000004768417,0.08290000009536413,0.09940000009537187,0.11329999995231788,0.13040000009536357,0.14979999995232163,0.16409999990463575,0.183200000047691,0.19899999999999807,0.21340000009536197,0.23270000004768576,0.2464999999999975,0.26640000009537346,0.2805999999046378,0.29949999999999477,0.31449999999999534,0.33290000009536413]",,11,0,11,0,1,PAV-0007,001,2022-09-22_17h43.18.899,GoFitts,2022.1.4,Win32,59.47778505,,,,
,,,,"[56.87610154050297,-63.16731016557849]","[-68.76644452187053,49.961746444860225]",77.8,170,0,"[27,33,36,38,39,39,39,39,39,39,39,39,39,39,39,38,29,18,6,-11,-29,-42,-47]","[-65,-74,-80,-83,-84,-84,-84,-84,-84,-84,-84,-84,-84,-84,-83,-75,-58,-42,-28,-10,9,21,28]","[0,0,0,0,0,0,0,0,0,0,0,0,0,0,0,0,0,0,0,0,0,0,0]","[0,0,0,0,0,0,0,0,0,0,0,0,0,0,0,0,0,0,0,0,0,0,0]","[0,0,0,0,0,0,0,0,0,0,0,0,0,0,0,0,0,0,0,0,0,0,0]","[0.00020000004768405688,0.015700000047687013,0.03220000004768053,0.04679999995231299,0.06660000014305467,0.08279999995231435,0.09679999995231015,0.11340000009536766,0.12990000009536118,0.14710000014305535,0.16460000014305365,0.18020000004769088,0.19690000009536845,0.21379999995231458,0.23050000000000637,0.24940000009536334,0.2639999999999958,0.28249999999999886,0.29879999995232254,0.31579999995231844,0.33320000004768247,0.3492000000476878,0.3659000000953654]",,12,0,12,0,1,PAV-0007,001,2022-09-22_17h43.18.899,GoFitts,2022.1.4,Win32,59.47778505,,,,
,,,,"[-68.76644452187053,49.961746444860225]","[77.65136389962109,-34.57261466144301]",77.8,170,0,"[-47,-53,-60,-62,-62,-63,-63,-65,-67,-71,-71,-71,-71,-71,-71,-71,-62,-30,-3,23,44,60]","[28,36,44,47,48,48,48,49,50,50,50,50,50,50,50,50,47,32,22,10,1,-8]","[0,0,0,0,0,0,0,0,0,0,0,0,0,0,0,0,0,0,0,0,0,0]","[0,0,0,0,0,0,0,0,0,0,0,0,0,0,0,0,0,0,0,0,0,0]","[0,0,0,0,0,0,0,0,0,0,0,0,0,0,0,0,0,0,0,0,0,0]","[0.00020000004768405688,0.016000000000005343,0.030200000047685194,0.050200000047681215,0.06479999995231367,0.08109999990463734,0.09740000009536232,0.11490000009537482,0.13170000004768667,0.1499000000953714,0.1642999999523198,0.1809000000953631,0.19750000000000512,0.2142000000476827,0.23109999990462882,0.24820000004768872,0.26500000000000057,0.2832000000476853,0.3002000000476812,0.3170000000000073,0.3330999999046327,0.3499999999999943]",,13,0,13,0,1,PAV-0007,001,2022-09-22_17h43.18.899,GoFitts,2022.1.4,Win32,59.47778505,,,,
,,,,"[77.65136389962109,-34.57261466144301]","[-83.14254606237348,17.672493719509543]",77.8,170,0,"[60,68,75,79,82,85,87,87,87,87,87,87,87,87,87,87,83,73,58,37,22,-1,-17,-40,-52]","[-8,-14,-19,-23,-26,-30,-32,-32,-32,-32,-32,-32,-32,-32,-32,-32,-31,-26,-20,-12,-8,-3,1,6,10]","[0,0,0,0,0,0,0,0,0,0,0,0,0,0,0,0,0,0,0,0,0,0,0,0,0]","[0,0,0,0,0,0,0,0,0,0,0,0,0,0,0,0,0,0,0,0,0,0,0,0,0]","[0,0,0,0,0,0,0,0,0,0,0,0,0,0,0,0,0,0,0,0,0,0,0,0,0]","[0.0003000001907338401,0.01650000000000773,0.03380000019073748,0.05000000000001137,0.06640000009537061,0.08340000009536652,0.09700000000000841,0.11590000009536539,0.13040000009537778,0.14700000000000557,0.16380000019073293,0.18300000000000693,0.19700000000000273,0.2138000001907443,0.2325000000000017,0.24990000009536573,0.26650000000000773,0.2836000001430534,0.29740000009536516,0.3170000000000073,0.3334000000953665,0.3501000001430583,0.36430000019073816,0.3842000000476844,0.39980000019073714]",,14,0,14,0,1,PAV-0007,001,2022-09-22_17h43.18.899,GoFitts,2022.1.4,Win32,59.47778505,,,,
,,,,,,,,0,,,,,,,,,,,,,PAV-0007,001,2022-09-22_17h43.18.899,GoFitts,2022.1.4,Win32,59.47778505,0,0,0,1
,,return,3.9357,"[151,-67]","[-192.14153616405,139.5989974194624]",40.5,475,1,"[151,151,151,152,156,158,164,165,168,168,168,168,168,168,168,168,168,168,168,169,169,170,170,165,156,146,128,102,80,59,43,24,7,-10,-37,-45,-62,-67,-76,-88,-103,-119,-133,-147,-160,-170,-178]","[-67,-67,-67,-67,-64,-63,-60,-58,-56,-56,-56,-56,-56,-56,-56,-56,-56,-56,-56,-56,-56,-56,-57,-58,-50,-33,-3,35,62,84,99,112,121,127,136,138,140,140,140,141,141,141,141,141,141,141,141]","[0,0,0,0,0,0,0,0,0,0,0,0,0,0,0,0,0,0,0,0,0,0,0,0,0,0,0,0,0,0,0,0,0,0,0,0,0,0,0,0,0,0,0,0,0,0,0]","[0,0,0,0,0,0,0,0,0,0,0,0,0,0,0,0,0,0,0,0,0,0,0,0,0,0,0,0,0,0,0,0,0,0,0,0,0,0,0,0,0,0,0,0,0,0,0]","[0,0,0,0,0,0,0,0,0,0,0,0,0,0,0,0,0,0,0,0,0,0,0,0,0,0,0,0,0,0,0,0,0,0,0,0,0,0,0,0,0,0,0,0,0,0,0]","[0.0007000000476864443,0.011399999856948284,0.02579999995231219,0.04309999990464064,0.06199999999999761,0.07659999990463007,0.09489999985694908,0.11220000004767883,0.12859999990463677,0.14529999995231435,0.1590999999046403,0.17600000000000193,0.19289999985694806,0.20909999990463746,0.22609999990463336,0.24270000004769088,0.259599999904637,0.27639999985694885,0.2928999998569566,0.3119999999999976,0.32550000000000523,0.34509999990463314,0.3597000000476811,0.3780999999046344,0.39479999995231196,0.41189999985695636,0.4260999999046362,0.4452999999523115,0.4592999999523215,0.4785999999046311,0.49539999985694294,0.5117000000476821,0.5265999999046329,0.5453999998569543,0.5622999999523159,0.5768999998569484,0.5948999998569491,0.611899999856945,0.6283999998569527,0.6428999998569509,0.6623999998569445,0.6784999999999997,0.6950000000000074,0.7092999999523215,0.7287999999523151,0.7425999999046269,0.7618999998569507]",,0,0,0,0,1,PAV-0007,001,2022-09-22_17h43.18.899,GoFitts,2022.1.4,Win32,59.47778505,,,,
,,,,"[-192.14153616405,139.5989974194624]","[216.96704619011774,-96.59995273050254]",40.5,475,1,"[-178,-189,-194,-199,-202,-205,-206,-206,-206,-206,-206,-206,-206,-206,-206,-206,-205,-193,-173,-153,-114,-59,-5,51,101,127,149,166,180,193,195,197,198,200,202]","[141,141,141,141,141,141,141,141,141,141,141,141,141,141,141,141,141,134,121,107,78,39,3,-29,-58,-71,-83,-92,-100,-107,-109,-109,-110,-110,-110]","[0,0,0,0,0,0,0,0,0,0,0,0,0,0,0,0,0,0,0,0,0,0,0,0,0,0,0,0,0,0,0,0,0,0,0]","[0,0,0,0,0,0,0,0,0,0,0,0,0,0,0,0,0,0,0,0,0,0,0,0,0,0,0,0,0,0,0,0,0,0,0]","[0,0,0,0,0,0,0,0,0,0,0,0,0,0,0,0,0,0,0,0,0,0,0,0,0,0,0,0,0,0,0,0,0,0,0]","[0.00019999980926854732,0.016599999904627794,0.03089999985695613,0.05039999985694976,0.06629999995232083,0.08289999985694863,0.10009999990462859,0.11479999995231083,0.13049999999999784,0.1472999999523097,0.1642999999523198,0.18079999995231333,0.19769999980925945,0.21419999980926718,0.23139999985694715,0.24759999990463655,0.26459999990463245,0.2831999998092698,0.3001999998092657,0.31629999995232083,0.33329999995231674,0.3496999998092605,0.3640000000000043,0.3837999999523163,0.39969999980927184,0.41709999990463587,0.43369999980926366,0.4478999998569435,0.4666999998092649,0.4828999998569543,0.49850000000000705,0.5173999998569485,0.531099999904626,0.5504999999999995,0.565099999904632]",,1,0,1,0,1,PAV-0007,001,2022-09-22_17h43.18.899,GoFitts,2022.1.4,Win32,59.47778505,,,,
,,,,"[216.96704619011774,-96.59995273050254]","[-232.31005517427886,49.379026569217835]",40.5,475,1,"[202,212,218,221,222,223,223,223,223,223,223,223,223,223,223,223,223,223,223,223,222,206,181,133,80,22,-38,-65,-97,-111,-123,-132,-139,-146,-156,-159,-168,-174,-182,-192,-201,-205,-206,-207,-208,-210,-213]","[-110,-110,-110,-110,-110,-110,-110,-110,-110,-110,-110,-110,-110,-110,-110,-110,-110,-110,-110,-110,-110,-104,-93,-73,-54,-34,-15,-10,-2,2,7,12,15,18,23,26,30,31,35,38,40,42,42,42,43,43,44]","[0,0,0,0,0,0,0,0,0,0,0,0,0,0,0,0,0,0,0,0,0,0,0,0,0,0,0,0,0,0,0,0,0,0,0,0,0,0,0,0,0,0,0,0,0,0,0]","[0,0,0,0,0,0,0,0,0,0,0,0,0,0,0,0,0,0,0,0,0,0,0,0,0,0,0,0,0,0,0,0,0,0,0,0,0,0,0,0,0,0,0,0,0,0,0]","[0,0,0,0,0,0,0,0,0,0,0,0,0,0,0,0,0,0,0,0,0,0,0,0,0,0,0,0,0,0,0,0,0,0,0,0,0,0,0,0,0,0,0,0,0,0,0]","[0.00020000004768405688,0.01770000004768235,0.03479999995231253,0.05040000009536527,0.06870000004768428,0.08329999995231674,0.10179999995231981,0.11549999999999727,0.13260000014304296,0.1495000000000033,0.16549999999999443,0.18210000014305194,0.19870000004767974,0.21560000014305558,0.2326000001430515,0.25190000009536107,0.265700000047687,0.2822999999523148,0.2991000001430564,0.31540000009536584,0.3329999999999984,0.3509999999999991,0.36549999999999727,0.38450000000000273,0.40110000014304603,0.41579999995231276,0.4347999999523182,0.44910000014304785,0.4655000000000058,0.48490000009536516,0.5019999999999953,0.5186000001430529,0.5347999999523125,0.5489000000953723,0.5685000000000002,0.5834000000953665,0.6012000000476831,0.6177999999523109,0.6351000001430549,0.6516000001430484,0.6652000000476761,0.6856000001430544,0.7002999999523212,0.7181000001430533,0.7349000000953652,0.7509000000953705,0.7677000000476824]",,2,0,2,0,1,PAV-0007,001,2022-09-22_17h43.18.899,GoFitts,2022.1.4,Win32,59.47778505,,,,
,,,,"[-232.31005517427886,49.379026569217835]","[237.5,0]",40.5,475,1,"[-213,-215,-216,-218,-219,-223,-228,-229,-229,-229,-229,-229,-229,-229,-229,-229,-228,-213,-201,-166,-101,-15,47,129,177,206,230]","[44,45,45,45,45,46,47,47,47,47,47,47,47,47,47,47,47,47,45,44,40,35,27,14,2,-5,-11]","[0,0,0,0,0,0,0,0,0,0,0,0,0,0,0,0,0,0,0,0,0,0,0,0,0,0,0]","[0,0,0,0,0,0,0,0,0,0,0,0,0,0,0,0,0,0,0,0,0,0,0,0,0,0,0]","[0,0,0,0,0,0,0,0,0,0,0,0,0,0,0,0,0,0,0,0,0,0,0,0,0,0,0]","[0.00020000004768405688,0.01679999995231185,0.03359999990463791,0.05039999985694976,0.06429999995231128,0.08289999985694863,0.10009999990462859,0.11720000004768849,0.1342000000476844,0.14779999995231208,0.16509999990462632,0.18120000004768144,0.1983999998569459,0.21489999985695363,0.23099999999999454,0.24820000004768872,0.26589999985695556,0.2843999998569444,0.29909999990462666,0.3158999998569527,0.33359999990463507,0.3477999999523149,0.36650000000000205,0.38079999995231617,0.4007000000476779,0.41670000004768326,0.4338999998569477]",,3,0,3,0,1,PAV-0007,001,2022-09-22_17h43.18.899,GoFitts,2022.1.4,Win32,59.47778505,,,,
,,,,"[237.5,0]","[-232.31005517427886,-49.37902656921778]",40.5,475,1,"[230,243,250,257,259,263,264,270,271,275,276,277,277,277,277,277,277,275,267,255,234,199,164,140,59,6,-25,-67,-94,-126,-147,-163,-180,-191,-197,-203,-211,-217]","[-11,-14,-14,-14,-14,-14,-13,-12,-12,-10,-9,-9,-9,-9,-9,-9,-9,-8,-8,-8,-8,-11,-14,-17,-25,-34,-39,-44,-48,-53,-56,-58,-59,-59,-59,-59,-59,-59]","[0,0,0,0,0,0,0,0,0,0,0,0,0,0,0,0,0,0,0,0,0,0,0,0,0,0,0,0,0,0,0,0,0,0,0,0,0,0]","[0,0,0,0,0,0,0,0,0,0,0,0,0,0,0,0,0,0,0,0,0,0,0,0,0,0,0,0,0,0,0,0,0,0,0,0,0,0]","[0,0,0,0,0,0,0,0,0,0,0,0,0,0,0,0,0,0,0,0,0,0,0,0,0,0,0,0,0,0,0,0,0,0,0,0,0,0]","[0.00020000004768405688,0.016600000143057514,0.030600000143053308,0.049900000095362884,0.06670000004768895,0.08299999999999841,0.09720000004767826,0.11660000014305183,0.13090000009536595,0.14979999995232163,0.16690000009536732,0.18170000004768383,0.20040000009537096,0.21399999999999864,0.2312000000476786,0.24760000014305206,0.26420000004767985,0.28090000009537164,0.29999999999999716,0.3164000000953706,0.3337999999523191,0.34940000009537187,0.3667000000476861,0.38170000004768667,0.3974000000953737,0.41640000009536493,0.4324000000953703,0.450600000143055,0.46440000009536675,0.4834000000953722,0.4972999999523182,0.5167000000476776,0.5327999999523172,0.5499000000953629,0.5662999999523208,0.5832999999523167,0.5997999999523103,0.6167000000476861]",,4,0,4,0,1,PAV-0007,001,2022-09-22_17h43.18.899,GoFitts,2022.1.4,Win32,59.47778505,,,,
,,,,"[-232.31005517427886,-49.37902656921778]","[216.9670461901177,96.59995273050254]",40.5,475,1,"[-217,-217,-217,-217,-218,-219,-221,-222,-222,-222,-223,-223,-225,-226,-226,-226,-224,-217,-190,-146,-82,-18,49,119,155,188,207,218,221,223,224,225,226,227,228,228,229,229,230,230,230,230,230,229]","[-59,-59,-59,-59,-59,-59,-59,-59,-59,-59,-59,-59,-59,-59,-59,-59,-57,-54,-45,-31,-15,-2,13,31,41,52,57,61,63,64,66,66,68,68,69,69,70,71,73,76,78,78,79,82]","[0,0,0,0,0,0,0,0,0,0,0,0,0,0,0,0,0,0,0,0,0,0,0,0,0,0,0,0,0,0,0,0,0,0,0,0,0,0,0,0,0,0,0,0]","[0,0,0,0,0,0,0,0,0,0,0,0,0,0,0,0,0,0,0,0,0,0,0,0,0,0,0,0,0,0,0,0,0,0,0,0,0,0,0,0,0,0,0,0]","[0,0,0,0,0,0,0,0,0,0,0,0,0,0,0,0,0,0,0,0,0,0,0,0,0,0,0,0,0,0,0,0,0,0,0,0,0,0,0,0,0,0,0,0]","[0.00020000004768405688,0.01679999995231185,0.030200000047685194,0.047299999952315375,0.06399999999999295,0.08370000004768485,0.09799999999999898,0.11679999995232038,0.1305999999046321,0.1472999999523097,0.16450000000000387,0.18059999990462927,0.19870000004767974,0.21489999985695363,0.2332999999523082,0.2473999998569525,0.26420000004767985,0.2813999998569443,0.29920000004767644,0.3160000000000025,0.3328999998569486,0.35029999995231265,0.36339999985695215,0.3832999999523139,0.3972999999523097,0.41709999990463587,0.43170000004768383,0.44989999985695306,0.46399999999999864,0.4830000000000041,0.49720000004768394,0.5167000000476776,0.5307999999523076,0.5500999999046314,0.5644999999999953,0.5840000000000032,0.597999999999999,0.6172000000476885,0.6332999999523139,0.6477999999523121,0.6664999999999992,0.6832000000476768,0.6988999998569483,0.7147999999523194]",,5,0,5,0,1,PAV-0007,001,2022-09-22_17h43.18.899,GoFitts,2022.1.4,Win32,59.47778505,,,,
,,,,"[216.9670461901177,96.59995273050254]","[-192.14153616405002,-139.59899741946234]",40.5,475,1,"[229,225,224,224,224,224,224,224,224,224,224,224,224,224,224,224,224,224,223,215,194,147,96,61,27,1,-38,-55,-62,-79,-97,-123,-138,-152,-163,-178]","[82,87,88,88,88,88,88,88,88,88,88,88,88,88,88,88,88,88,88,85,75,47,18,-5,-24,-39,-60,-72,-75,-85,-93,-106,-112,-118,-121,-126]","[0,0,0,0,0,0,0,0,0,0,0,0,0,0,0,0,0,0,0,0,0,0,0,0,0,0,0,0,0,0,0,0,0,0,0,0]","[0,0,0,0,0,0,0,0,0,0,0,0,0,0,0,0,0,0,0,0,0,0,0,0,0,0,0,0,0,0,0,0,0,0,0,0]","[0,0,0,0,0,0,0,0,0,0,0,0,0,0,0,0,0,0,0,0,0,0,0,0,0,0,0,0,0,0,0,0,0,0,0,0]","[0.0002999999523041197,0.01820000004768474,0.035200000047680646,0.04970000004767883,0.06550000000000011,0.0825999999046303,0.09939999985694215,0.11570000004768133,0.13229999995230912,0.14929999995230503,0.16589999985694703,0.1827000000476744,0.19920000004768212,0.2188999998569443,0.23279999995230582,0.2490999999046295,0.26589999985694135,0.28289999985693726,0.29959999990462904,0.31609999990462256,0.33370000004768485,0.3490999999046238,0.36889999985695,0.3854999999999933,0.3999999999999915,0.4185999999046288,0.43549999999999045,0.45159999990463007,0.4672000000476828,0.4838999998569449,0.5002999999523041,0.5182000000476847,0.5347999999523125,0.5522000000476766,0.5682999999523162,0.5828999998569486]",,6,0,6,0,1,PAV-0007,001,2022-09-22_17h43.18.899,GoFitts,2022.1.4,Win32,59.47778505,,,,
,,,,"[-192.14153616405002,-139.59899741946234]","[158.91851901022883,176.49689605088113]",40.5,475,1,"[-178,-188,-198,-204,-205,-206,-209,-211,-215,-220,-221,-221,-221,-221,-221,-221,-221,-213,-192,-153,-78,-26,16,46,63,72,77,80,81,83,84,86,88,94,98,102,107,117,121,127,132,136,139,141]","[-126,-130,-134,-136,-137,-138,-140,-142,-147,-150,-150,-150,-150,-150,-150,-150,-150,-141,-117,-72,-2,36,62,81,94,102,106,109,111,113,116,119,123,130,134,137,141,150,155,160,163,166,168,170]","[0,0,0,0,0,0,0,0,0,0,0,0,0,0,0,0,0,0,0,0,0,0,0,0,0,0,0,0,0,0,0,0,0,0,0,0,0,0,0,0,0,0,0,0]","[0,0,0,0,0,0,0,0,0,0,0,0,0,0,0,0,0,0,0,0,0,0,0,0,0,0,0,0,0,0,0,0,0,0,0,0,0,0,0,0,0,0,0,0]","[0,0,0,0,0,0,0,0,0,0,0,0,0,0,0,0,0,0,0,0,0,0,0,0,0,0,0,0,0,0,0,0,0,0,0,0,0,0,0,0,0,0,0,0]","[0.00010000014306399407,0.018000000000000682,0.03510000014306058,0.05000000000001137,0.06940000009537073,0.0831000001430624,0.10180000019073532,0.11690000009537016,0.13480000019073657,0.15190000009538096,0.16900000000001114,0.18250000000000455,0.19910000014306206,0.21870000004768997,0.23320000004768815,0.24940000009537755,0.26600000000000534,0.28310000014305103,0.3020000000000067,0.31630000019073634,0.3353000001907418,0.3493000001907376,0.36820000004769327,0.38350000000001216,0.4017000000476969,0.41900000000001114,0.43260000014305433,0.45220000004769645,0.46840000009537164,0.4851000001430634,0.4992000000476935,0.5189000000953712,0.5353000001907446,0.5522000000476908,0.5683000001907459,0.5834000000953807,0.6003000001907424,0.6159000000953796,0.6352000000476892,0.652000000000001,0.6686000001430585,0.6825000000000045,0.7018000001907438,0.71870000004769]",,7,0,7,0,1,PAV-0007,001,2022-09-22_17h43.18.899,GoFitts,2022.1.4,Win32,59.47778505,,,,
,,,,"[158.91851901022883,176.49689605088113]","[-118.7500000000001,-205.68103339880415]",40.5,475,1,"[141,141,143,143,143,144,144,144,144,144,145,147,150,153,155,155,155,155,154,144,128,113,83,60,39,23,12,1,-3,-13,-20,-28,-34,-41,-50,-59,-67,-71,-78,-82,-86,-93,-99]","[170,170,171,171,171,172,173,173,173,173,174,176,179,182,184,184,184,184,179,161,129,98,45,8,-27,-54,-74,-91,-97,-111,-120,-130,-137,-144,-154,-165,-174,-179,-185,-189,-194,-200,-208]","[0,0,0,0,0,0,0,0,0,0,0,0,0,0,0,0,0,0,0,0,0,0,0,0,0,0,0,0,0,0,0,0,0,0,0,0,0,0,0,0,0,0,0]","[0,0,0,0,0,0,0,0,0,0,0,0,0,0,0,0,0,0,0,0,0,0,0,0,0,0,0,0,0,0,0,0,0,0,0,0,0,0,0,0,0,0,0]","[0,0,0,0,0,0,0,0,0,0,0,0,0,0,0,0,0,0,0,0,0,0,0,0,0,0,0,0,0,0,0,0,0,0,0,0,0,0,0,0,0,0,0]","[0.00020000004768405688,0.01649999999999352,0.03070000004768758,0.04660000014304444,0.06330000019073623,0.08030000019073213,0.10020000004767837,0.1163000001907335,0.13080000019073168,0.14720000004767542,0.16360000014304887,0.18250000000000455,0.19960000014305024,0.21599999999999397,0.23320000004768815,0.25030000019073384,0.26380000019072725,0.2811000001430557,0.2976000001430492,0.3161000001430523,0.33030000019073213,0.3492000000476878,0.36599999999999966,0.38440000009536845,0.3977000000476778,0.41680000019073304,0.43070000004767905,0.44960000014305024,0.4650000000000034,0.48360000014305626,0.4994999999999976,0.5166000001430433,0.5330000000000013,0.5496000001430446,0.5638000001907386,0.5834000000953665,0.5996000001430559,0.6162000000476837,0.6307000000476819,0.6502000000476755,0.664900000095372,0.6831000001430425,0.7002000000476869]",,8,0,8,0,1,PAV-0007,001,2022-09-22_17h43.18.899,GoFitts,2022.1.4,Win32,59.47778505,,,,
,,,,"[-118.7500000000001,-205.68103339880415]","[73.39153616405002,225.87592262009898]",40.5,475,1,"[-99,-105,-106,-108,-109,-110,-112,-112,-112,-112,-112,-112,-112,-112,-108,-103,-67,-35,-6,33,57,71,81,84,85,86,86,86,86,86,86,86,86,85,84]","[-208,-214,-215,-217,-218,-219,-221,-222,-222,-222,-222,-222,-222,-217,-194,-177,-65,-2,42,94,124,144,159,164,167,171,174,178,183,187,192,196,198,206,209]","[0,0,0,0,0,0,0,0,0,0,0,0,0,0,0,0,0,0,0,0,0,0,0,0,0,0,0,0,0,0,0,0,0,0,0]","[0,0,0,0,0,0,0,0,0,0,0,0,0,0,0,0,0,0,0,0,0,0,0,0,0,0,0,0,0,0,0,0,0,0,0]","[0,0,0,0,0,0,0,0,0,0,0,0,0,0,0,0,0,0,0,0,0,0,0,0,0,0,0,0,0,0,0,0,0,0,0]","[0.00020000004766984603,0.015999999999991132,0.03130000019072554,0.0494000000953605,0.06370000004767462,0.08340000009536652,0.0992000000476736,0.11640000009535356,0.1307000000476819,0.14699999999999136,0.16340000009536482,0.18070000004767905,0.19680000019073418,0.2138000001907301,0.23280000019072133,0.2469000000953656,0.266300000190725,0.2798000001907326,0.29910000014304217,0.31660000014304046,0.3327000000476801,0.3474999999999966,0.36640000009535356,0.383700000047682,0.39660000014303876,0.41670000004768326,0.43030000019072645,0.4494000000953662,0.4637000000476803,0.48310000014303967,0.49970000004768167,0.5164000000953592,0.5313000001907255,0.5497000000476788,0.5636000001430403]",,9,0,9,0,1,PAV-0007,001,2022-09-22_17h43.18.899,GoFitts,2022.1.4,Win32,59.47778505,,,,
,,,,"[73.39153616405002,225.87592262009898]","[-24.82551002606788,-236.1989501499649]",40.5,475,1,"[84,82,81,80,79,78,78,78,78,78,78,78,78,78,78,78,78,79,79,79,79,78,77,73,67,62,56,51,45,40,37,30,28,24,22,18,16,13,11,9,7,3,0,-1,-4,-6,-8,-8,-8,-8,-8,-8,-8,-8,-9,-10]","[209,212,215,218,222,224,226,227,229,233,234,234,234,234,234,230,191,154,97,37,4,-16,-31,-54,-76,-93,-110,-119,-134,-148,-156,-172,-179,-186,-192,-199,-205,-209,-214,-219,-223,-229,-234,-238,-242,-245,-249,-249,-249,-249,-249,-249,-249,-249,-249,-249]","[0,0,0,0,0,0,0,0,0,0,0,0,0,0,0,0,0,0,0,0,0,0,0,0,0,0,0,0,0,0,0,0,0,0,0,0,0,0,0,0,0,0,0,0,0,0,0,0,0,0,0,0,0,0,0,0]","[0,0,0,0,0,0,0,0,0,0,0,0,0,0,0,0,0,0,0,0,0,0,0,0,0,0,0,0,0,0,0,0,0,0,0,0,0,0,0,0,0,0,0,0,0,0,0,0,0,0,0,0,0,0,0,0]","[0,0,0,0,0,0,0,0,0,0,0,0,0,0,0,0,0,0,0,0,0,0,0,0,0,0,0,0,0,0,0,0,0,0,0,0,0,0,0,0,0,0,0,0,0,0,0,0,0,0,0,0,0,0,0,0]","[0.0003000001907338401,0.019200000047689514,0.033100000143051034,0.053100000143047055,0.06620000004768656,0.08640000009536664,0.10070000004768076,0.11920000004768383,0.13310000014304535,0.1526000001430532,0.16980000019073316,0.18330000019074077,0.19990000009536857,0.21670000004768042,0.23380000019074032,0.2514000000953729,0.27040000009536413,0.2864000000953695,0.302900000095363,0.3190000000000026,0.3334000000953665,0.3523000001907377,0.3676000001430566,0.3834000000953637,0.4026000001430532,0.41640000009536493,0.43600000000000705,0.45000000000000284,0.4694000000953622,0.4831000001430539,0.5027000000476818,0.5196000001430576,0.5339000000953718,0.5508000001907334,0.5677000000476795,0.5862000000476826,0.6003000001907282,0.6189999999999998,0.6331000001430453,0.6532000000476899,0.6669000000953673,0.6857000000476887,0.7002000000476869,0.720400000095367,0.736100000143054,0.7528000001907316,0.7694999999999936,0.7859000000953671,0.8004000000953653,0.8166000001430547,0.8332000000476825,0.8503000001907282,0.8669000000953702,0.8843000001907342,0.9001000001430555,0.9201000001430515]",,10,0,10,0,1,PAV-0007,001,2022-09-22_17h43.18.899,GoFitts,2022.1.4,Win32,59.47778505,,,,
,,,,"[-24.82551002606788,-236.1989501499649]","[-24.825510026067665,236.19895014996493]",40.5,475,1,"[-10,-11,-12,-14,-17,-17,-17,-17,-17,-17,-17,-17,-17,-18,-18,-18,-19,-24,-30,-38,-46,-49,-49,-49,-48,-48,-48,-48,-48,-48,-48,-47,-47,-45,-45,-44,-43,-42,-40,-37,-34,-32,-29]","[-249,-249,-246,-240,-234,-233,-233,-233,-233,-233,-233,-233,-233,-233,-233,-232,-228,-205,-149,-78,7,130,174,202,218,229,236,243,248,255,257,261,263,268,269,270,270,270,270,268,264,258,253]","[0,0,0,0,0,0,0,0,0,0,0,0,0,0,0,0,0,0,0,0,0,0,0,0,0,0,0,0,0,0,0,0,0,0,0,0,0,0,0,0,0,0,0]","[0,0,0,0,0,0,0,0,0,0,0,0,0,0,0,0,0,0,0,0,0,0,0,0,0,0,0,0,0,0,0,0,0,0,0,0,0,0,0,0,0,0,0]","[0,0,0,0,0,0,0,0,0,0,0,0,0,0,0,0,0,0,0,0,0,0,0,0,0,0,0,0,0,0,0,0,0,0,0,0,0,0,0,0,0,0,0]","[0.00029999995231833054,0.01590000009535686,0.03270000004768292,0.046200000047676326,0.06520000004768178,0.08029999995231663,0.09899999999998954,0.11299999999999955,0.129299999952309,0.14629999995230492,0.1631000001430465,0.17949999999999022,0.19629999995231628,0.21320000004767792,0.22960000014305137,0.2469000000953656,0.26290000009535675,0.28210000014304626,0.2989000000953581,0.3125,0.33290000009536413,0.3484000000953671,0.3649999999999949,0.3819999999999908,0.3986000001430483,0.4152999999523104,0.4319000000953679,0.44610000014304774,0.46529999995230753,0.48190000009536504,0.4987000000476769,0.5159999999999911,0.5296000001430485,0.5489000000953581,0.5654000000953658,0.5797999999523142,0.5989999999999895,0.6142000000476742,0.6322999999523091,0.6484999999999985,0.6626000001430441,0.6824000000953561,0.6964000000953661]",,11,0,11,0,1,PAV-0007,001,2022-09-22_17h43.18.899,GoFitts,2022.1.4,Win32,59.47778505,,,,
,,,,"[-24.825510026067665,236.19895014996493]","[73.39153616404997,-225.875922620099]",40.5,475,1,"[-29,-29,-27,-27,-27,-27,-27,-27,-27,-27,-27,-27,-27,-27,-27,-27,-26,-24,-19,-12,0,7,12,17,20,23,24,25,26,27,29,30,33,35,39,44,46,46,46,46,46,46,47,48,50,54]","[253,250,248,247,247,247,247,247,247,247,247,247,247,244,242,238,231,218,175,121,4,-64,-108,-141,-164,-176,-181,-183,-186,-189,-193,-196,-199,-205,-212,-222,-224,-224,-224,-224,-224,-225,-226,-227,-228,-230]","[0,0,0,0,0,0,0,0,0,0,0,0,0,0,0,0,0,0,0,0,0,0,0,0,0,0,0,0,0,0,0,0,0,0,0,0,0,0,0,0,0,0,0,0,0,0]","[0,0,0,0,0,0,0,0,0,0,0,0,0,0,0,0,0,0,0,0,0,0,0,0,0,0,0,0,0,0,0,0,0,0,0,0,0,0,0,0,0,0,0,0,0,0]","[0,0,0,0,0,0,0,0,0,0,0,0,0,0,0,0,0,0,0,0,0,0,0,0,0,0,0,0,0,0,0,0,0,0,0,0,0,0,0,0,0,0,0,0,0,0]","[0.0002999999523041197,0.01939999985694385,0.03559999990463325,0.056599999904634046,0.06879999995230435,0.08320000004768247,0.0995999999046262,0.11629999995230378,0.13339999985694817,0.1517000000476827,0.1660999999046311,0.1827000000476744,0.20070000004767508,0.2184999999999917,0.2350999999046337,0.2527000000476818,0.2660999999046254,0.2852999999523149,0.3023999998569451,0.3155999999046202,0.3347000000476754,0.3513999998569375,0.36809999990462927,0.38520000004767496,0.3993999998569393,0.41849999999999454,0.4348999998569383,0.4517999999523141,0.46879999995231003,0.48570000004767167,0.5022000000476794,0.5163999998569437,0.535499999999999,0.549599999904629,0.5689999999999884,0.5857999999523145,0.6018999998569399,0.6195999999046222,0.6329999999999956,0.6494999999999891,0.6665999999046335,0.6844999999999999,0.7000999999046229,0.7189999999999941,0.7357000000476717,0.7524999999999977]",,12,0,12,0,1,PAV-0007,001,2022-09-22_17h43.18.899,GoFitts,2022.1.4,Win32,59.47778505,,,,
,,,,"[73.39153616404997,-225.875922620099]","[-118.74999999999994,205.6810333988042]",40.5,475,1,"[54,58,61,65,68,68,68,68,68,68,68,68,68,68,68,68,68,68,62,43,26,10,-10,-28,-39,-46,-52,-55,-59,-63,-69,-73,-77,-81,-86,-87,-90,-96,-102]","[-230,-232,-234,-235,-236,-236,-236,-236,-236,-236,-236,-236,-236,-236,-236,-236,-233,-220,-173,-73,2,52,98,130,148,158,166,172,178,184,191,196,199,202,205,205,207,208,209]","[0,0,0,0,0,0,0,0,0,0,0,0,0,0,0,0,0,0,0,0,0,0,0,0,0,0,0,0,0,0,0,0,0,0,0,0,0,0,0]","[0,0,0,0,0,0,0,0,0,0,0,0,0,0,0,0,0,0,0,0,0,0,0,0,0,0,0,0,0,0,0,0,0,0,0,0,0,0,0]","[0,0,0,0,0,0,0,0,0,0,0,0,0,0,0,0,0,0,0,0,0,0,0,0,0,0,0,0,0,0,0,0,0,0,0,0,0,0,0]","[0.0007999999523065071,0.015999999999991132,0.029899999856937143,0.04899999999999238,0.065099999904632,0.08159999990462552,0.09850000000000136,0.11339999985693794,0.13049999999999784,0.14689999985694158,0.16379999995231742,0.18059999990462927,0.19720000004767257,0.21379999995231458,0.23049999999999216,0.2495999999046319,0.26409999990463007,0.2797999999523171,0.2977000000476835,0.3155999999046202,0.3330999999046327,0.3490999999046238,0.36570000004768133,0.37999999999999545,0.3997999999523074,0.41589999985694703,0.4298999998569428,0.4492999999523164,0.46620000004767803,0.47970000004767144,0.49979999995231594,0.5137000000476775,0.5327000000476829,0.5470999999046313,0.5662000000476723,0.5832000000476825,0.5978999998569492,0.6155999999046315,0.6324999999999932]",,13,0,13,0,1,PAV-0007,001,2022-09-22_17h43.18.899,GoFitts,2022.1.4,Win32,59.47778505,,,,
,,,,"[-118.74999999999994,205.6810333988042]","[158.9185190102289,-176.49689605088108]",40.5,475,1,"[-102,-108,-112,-114,-115,-116,-117,-117,-118,-119,-119,-119,-120,-120,-120,-120,-116,-104,-84,-59,-36,-16,10,34,48,56,64,74,83,92,97,102,105,109,113,118,122,126,130,135,140,143]","[209,210,211,212,212,212,212,212,212,212,212,212,212,212,212,212,200,176,134,89,52,26,-4,-27,-37,-44,-49,-57,-65,-73,-78,-85,-90,-99,-106,-116,-128,-138,-148,-158,-169,-174]","[0,0,0,0,0,0,0,0,0,0,0,0,0,0,0,0,0,0,0,0,0,0,0,0,0,0,0,0,0,0,0,0,0,0,0,0,0,0,0,0,0,0]","[0,0,0,0,0,0,0,0,0,0,0,0,0,0,0,0,0,0,0,0,0,0,0,0,0,0,0,0,0,0,0,0,0,0,0,0,0,0,0,0,0,0]","[0,0,0,0,0,0,0,0,0,0,0,0,0,0,0,0,0,0,0,0,0,0,0,0,0,0,0,0,0,0,0,0,0,0,0,0,0,0,0,0,0,0]","[0.00029999995231833054,0.016599999904627794,0.033099999904635524,0.04690000009536277,0.06799999999999784,0.08420000004768724,0.10059999990463098,0.11440000009537243,0.13150000000000261,0.14840000009536425,0.16720000004768565,0.18120000004768144,0.1979999999999933,0.21709999990463302,0.23109999990462882,0.24840000009537277,0.26720000004767996,0.2805000000000035,0.2997999999523131,0.314200000047677,0.33359999990463507,0.3499999999999943,0.3644999999999925,0.38400000000000034,0.4004000000953596,0.41640000009536493,0.4324000000953703,0.44959999990463473,0.46649999999999636,0.48309999990463837,0.49720000004768394,0.5165999999046278,0.5337000000476877,0.5474999999999994,0.566900000095373,0.5840000000000032,0.5974000000953623,0.6165999999046363,0.631799999952321,0.6484000000953642,0.6672000000476856,0.6827999999523087]",,14,0,14,0,1,PAV-0007,001,2022-09-22_17h43.18.899,GoFitts,2022.1.4,Win32,59.47778505,,,,
,,,,,,,,1,,,,,,,,,,,,,PAV-0007,001,2022-09-22_17h43.18.899,GoFitts,2022.1.4,Win32,59.47778505,1,0,0,1
,,return,0.9539,"[95,-95]","[84.97967345311055,261.5405419811672]",32.3,550,2,"[95,95,95,95,95,95,95,95,95,95,95,95,95,95,95,95,95,95,95,95,95,95,95,95,94,81,59,39,24,18,15,15,15,18,21,24,32,37,44,51,55,57,58,59,59,60,60,61,61,61,62,62,63,65,67,68,70]","[-95,-95,-95,-95,-95,-95,-95,-95,-95,-95,-95,-95,-95,-95,-95,-95,-95,-95,-95,-95,-95,-95,-95,-95,-92,-67,-15,40,90,122,139,154,169,180,188,194,204,213,223,235,241,245,247,248,249,251,253,254,254,254,254,254,255,255,256,256,256]","[0,0,0,0,0,0,0,0,0,0,0,0,0,0,0,0,0,0,0,0,0,0,0,0,0,0,0,0,0,0,0,0,0,0,0,0,0,0,0,0,0,0,0,0,0,0,0,0,0,0,0,0,0,0,0,0,0]","[0,0,0,0,0,0,0,0,0,0,0,0,0,0,0,0,0,0,0,0,0,0,0,0,0,0,0,0,0,0,0,0,0,0,0,0,0,0,0,0,0,0,0,0,0,0,0,0,0,0,0,0,0,0,0,0,0]","[0,0,0,0,0,0,0,0,0,0,0,0,0,0,0,0,0,0,0,0,0,0,0,0,0,0,0,0,0,0,0,0,0,0,0,0,0,0,0,0,0,0,0,0,0,0,0,0,0,0,0,0,0,0,0,0,0]","[0.000799999952320718,0.018700000047687126,0.03270000004768292,0.049600000143058764,0.06620000004768656,0.08250000000001023,0.1022999999523222,0.11620000004768372,0.1329000000953755,0.14940000009536902,0.1666000001430632,0.18300000000000693,0.20000000000000284,0.21629999995232652,0.23320000004768815,0.24950000000001182,0.26640000009537346,0.2827999999523172,0.2999000000953771,0.31629999995232083,0.33290000009537835,0.3496000001430559,0.36650000000000205,0.38320000004769383,0.3996000001430531,0.4162000000476951,0.4350000000000023,0.45150000000001,0.4685000000000059,0.48529999995231776,0.4996000001430616,0.5184000000953688,0.5349000000953765,0.5517000000476884,0.5694000000953707,0.5831000001430624,0.602600000143056,0.6189000000953655,0.6352999999523234,0.6492999999523192,0.6686000001430585,0.6852000000476863,0.7029000000953687,0.7190000000000083,0.7362999999523225,0.7506000001430522,0.7697999999523262,0.7832999999523196,0.8009000000953677,0.8192000000476867,0.8335000000000008,0.8500000000000085,0.8672000000476885,0.8832999999523281,0.9029000000953715,0.9177999999523223,0.9341000001430615]",,0,0,0,0,1,PAV-0007,001,2022-09-22_17h43.18.899,GoFitts,2022.1.4,Win32,59.47778505,,,,
,,,,"[84.97967345311055,261.5405419811672]","[-28.745327398604914,-273.49352122627516]",32.3,550,2,"[70,73,75,78,81,83,87,89,91,92,93,93,93,93,93,93,93,93,87,73,61,53,48,45,39,34,31,28,25,23,22,20,18,17,15,12,11,10,9,9,7,6,3,-2,-7,-8,-13]","[256,258,258,259,260,260,262,262,263,264,264,264,264,264,264,264,264,262,241,190,124,56,-13,-69,-118,-156,-178,-196,-214,-226,-229,-238,-242,-247,-251,-254,-257,-258,-259,-259,-260,-261,-263,-265,-268,-268,-270]","[0,0,0,0,0,0,0,0,0,0,0,0,0,0,0,0,0,0,0,0,0,0,0,0,0,0,0,0,0,0,0,0,0,0,0,0,0,0,0,0,0,0,0,0,0,0,0]","[0,0,0,0,0,0,0,0,0,0,0,0,0,0,0,0,0,0,0,0,0,0,0,0,0,0,0,0,0,0,0,0,0,0,0,0,0,0,0,0,0,0,0,0,0,0,0]","[0,0,0,0,0,0,0,0,0,0,0,0,0,0,0,0,0,0,0,0,0,0,0,0,0,0,0,0,0,0,0,0,0,0,0,0,0,0,0,0,0,0,0,0,0,0,0]","[0.00009999990463427366,0.017799999952316625,0.03179999995232663,0.05170000004768838,0.06509999990464621,0.0847999999523239,0.09829999995231731,0.11809999990464348,0.13439999985695295,0.14850000000001273,0.16900000000001114,0.18259999990463882,0.20170000004769406,0.2158999998569584,0.23229999995231765,0.24900000000000944,0.26550000000000296,0.28300000000000125,0.2983999998569544,0.3182000000476961,0.3322999999523262,0.35170000004768553,0.3683999998569618,0.38259999990464166,0.4017000000476969,0.4152999999523246,0.4357000000476887,0.4487999999523282,0.46789999985695374,0.4852000000476977,0.5002999999523183,0.518099999904635,0.5347000000476925,0.5505999999046338,0.5685000000000002,0.585000000000008,0.5987999999523197,0.6180000000000092,0.6353999998569577,0.6495000000000033,0.6657000000476927,0.685799999952323,0.6988999998569625,0.7180999999046378,0.7350999999046337,0.7497999999523302,0.7680000000000007]",,1,0,1,0,1,PAV-0007,001,2022-09-22_17h43.18.899,GoFitts,2022.1.4,Win32,59.47778505,,,,
,,,,"[-28.745327398604914,-273.49352122627516]","[-28.745327398604665,273.49352122627516]",32.3,550,2,"[-13,-16,-18,-19,-20,-20,-20,-21,-21,-21,-21,-21,-21,-22,-22,-26,-29,-34,-39,-47,-53,-58,-62,-64,-64,-64,-63,-61,-58,-54,-51,-45,-42,-40,-38,-33,-31,-30,-28,-28,-28,-28,-28,-28,-28,-28,-28,-27]","[-270,-272,-273,-274,-274,-274,-275,-275,-275,-275,-275,-275,-275,-275,-275,-265,-252,-222,-171,-119,-67,-36,-6,30,50,79,98,109,126,145,156,173,180,186,194,206,214,221,229,234,236,239,241,242,244,247,252,259]","[0,0,0,0,0,0,0,0,0,0,0,0,0,0,0,0,0,0,0,0,0,0,0,0,0,0,0,0,0,0,0,0,0,0,0,0,0,0,0,0,0,0,0,0,0,0,0,0]","[0,0,0,0,0,0,0,0,0,0,0,0,0,0,0,0,0,0,0,0,0,0,0,0,0,0,0,0,0,0,0,0,0,0,0,0,0,0,0,0,0,0,0,0,0,0,0,0]","[0,0,0,0,0,0,0,0,0,0,0,0,0,0,0,0,0,0,0,0,0,0,0,0,0,0,0,0,0,0,0,0,0,0,0,0,0,0,0,0,0,0,0,0,0,0,0,0]","[0.00019999980926854732,0.017500000000012506,0.032799999952317194,0.05039999985694976,0.06419999980927571,0.08100000000000307,0.0987999999523197,0.11689999985695465,0.13100000000000023,0.14750000000000796,0.16419999980927003,0.1808999998569618,0.19779999995232345,0.2155000000000058,0.23139999985696136,0.24809999990463893,0.26650000000000773,0.28379999995232197,0.2971999998092656,0.31659999990463916,0.3308999998569533,0.35039999985696113,0.3640999999046386,0.38350000000001216,0.4000000000000057,0.4168999998569518,0.43329999995232527,0.4497999999523188,0.4663999998569608,0.4832999999523224,0.4995999999046319,0.5173999998569485,0.5330999999046355,0.5506999998092681,0.5665999999046392,0.5840999999046375,0.5981999998092675,0.6170999999046387,0.6333999998569482,0.6501999998092742,0.6650999999046405,0.6832999999523253,0.6998999998569531,0.7172999999523171,0.7306999998092749,0.750899999856955,0.7641999998092643,0.7833999998569539]",,2,0,2,0,1,PAV-0007,001,2022-09-22_17h43.18.899,GoFitts,2022.1.4,Win32,59.47778505,,,,
,,,,"[-28.745327398604665,273.49352122627516]","[84.9796734531105,-261.5405419811673]",32.3,550,2,"[-27,-27,-27,-27,-27,-26,-26,-26,-26,-26,-26,-26,-26,-26,-26,-25,-23,-16,-13,-4,5,11,19,26,30,32,34,35,38,39,40,43,43,44,46,47,48,50,51,53,55,58,65,70]","[259,265,267,268,268,268,269,270,271,271,271,271,271,271,270,257,245,189,164,81,16,-41,-98,-147,-170,-191,-202,-211,-224,-227,-232,-240,-244,-247,-253,-255,-258,-260,-262,-263,-263,-263,-264,-265]","[0,0,0,0,0,0,0,0,0,0,0,0,0,0,0,0,0,0,0,0,0,0,0,0,0,0,0,0,0,0,0,0,0,0,0,0,0,0,0,0,0,0,0,0]","[0,0,0,0,0,0,0,0,0,0,0,0,0,0,0,0,0,0,0,0,0,0,0,0,0,0,0,0,0,0,0,0,0,0,0,0,0,0,0,0,0,0,0,0]","[0,0,0,0,0,0,0,0,0,0,0,0,0,0,0,0,0,0,0,0,0,0,0,0,0,0,0,0,0,0,0,0,0,0,0,0,0,0,0,0,0,0,0,0]","[0.0003000001907338401,0.016300000190739183,0.03320000004768531,0.05010000014304694,0.06680000019073873,0.08080000019073452,0.09740000009536232,0.11780000019074066,0.13100000000000023,0.15010000014305547,0.16410000014305126,0.18080000019072884,0.19770000004768917,0.2142000000476827,0.23140000009536266,0.24940000009536334,0.2649000000953663,0.28300000000000125,0.2976000001430492,0.31670000004768895,0.33320000004768247,0.34720000004767826,0.3679000000953607,0.38090000009536595,0.3996000001430531,0.41640000009536493,0.4336000001430449,0.44820000004767735,0.4669000000953645,0.4839000000953604,0.49770000004768633,0.51720000004768,0.5317000000476781,0.5497000000476788,0.5664000000953706,0.5807000000476847,0.6001000001430441,0.6141000001430541,0.6332000000476796,0.6503000001907395,0.6642000000476855,0.6836000001430449,0.6999000000953686,0.7168000001907302]",,3,0,3,0,1,PAV-0007,001,2022-09-22_17h43.18.899,GoFitts,2022.1.4,Win32,59.47778505,,,,
,,,,"[84.9796734531105,-261.5405419811673]","[-137.49999999999994,238.15698604072065]",32.3,550,2,"[70,77,78,79,79,79,79,79,79,79,79,79,79,79,79,79,79,78,63,41,7,-27,-65,-90,-115,-134,-143,-153,-168,-177,-185,-187,-189,-190,-192,-192,-192,-192,-190,-184,-177,-169,-159,-158,-150]","[-265,-266,-267,-267,-267,-267,-267,-267,-267,-267,-267,-267,-267,-267,-267,-267,-265,-246,-155,-79,7,66,114,138,160,175,183,191,205,214,221,224,227,230,234,236,238,239,240,240,241,241,241,241,239]","[0,0,0,0,0,0,0,0,0,0,0,0,0,0,0,0,0,0,0,0,0,0,0,0,0,0,0,0,0,0,0,0,0,0,0,0,0,0,0,0,0,0,0,0,0]","[0,0,0,0,0,0,0,0,0,0,0,0,0,0,0,0,0,0,0,0,0,0,0,0,0,0,0,0,0,0,0,0,0,0,0,0,0,0,0,0,0,0,0,0,0]","[0,0,0,0,0,0,0,0,0,0,0,0,0,0,0,0,0,0,0,0,0,0,0,0,0,0,0,0,0,0,0,0,0,0,0,0,0,0,0,0,0,0,0,0,0]","[0.00020000004768405688,0.016000000000005343,0.0328000001907327,0.05060000014304933,0.066900000095373,0.08070000004768474,0.09760000014304637,0.11440000009537243,0.13090000009536595,0.1477000000476778,0.16430000019073532,0.1801000001430566,0.1971000001430525,0.21399999999999864,0.2304000000953721,0.24710000014304967,0.2652000000476846,0.28120000004768997,0.3002000000476812,0.3160000000000025,0.33100000000000307,0.3497000000476902,0.3636000001430517,0.3824000000953731,0.39930000019073475,0.41670000004768326,0.43300000000000693,0.4471000001430525,0.466300000190742,0.48280000019073555,0.49980000019073145,0.5166000001430575,0.5330000000000013,0.5496000001430446,0.5666000001430547,0.5809000000953688,0.6003000001907282,0.6175000000000068,0.6334000000953637,0.6499000000953714,0.6669000000953673,0.6806000001430448,0.7003000001907367,0.7139999999999986,0.7330000000000041]",,4,0,4,0,1,PAV-0007,001,2022-09-22_17h43.18.899,GoFitts,2022.1.4,Win32,59.47778505,,,,
,,,,"[-137.49999999999994,238.15698604072065]","[184.01091674868607,-204.36482700628335]",32.3,550,2,"[-150,-147,-144,-143,-142,-141,-140,-140,-140,-140,-140,-140,-140,-140,-140,-140,-135,-130,-89,-38,3,54,106,142,167,179,188]","[239,238,238,238,238,238,238,238,238,238,238,238,238,238,238,238,233,226,173,99,37,-34,-103,-143,-169,-182,-190]","[0,0,0,0,0,0,0,0,0,0,0,0,0,0,0,0,0,0,0,0,0,0,0,0,0,0,0]","[0,0,0,0,0,0,0,0,0,0,0,0,0,0,0,0,0,0,0,0,0,0,0,0,0,0,0]","[0,0,0,0,0,0,0,0,0,0,0,0,0,0,0,0,0,0,0,0,0,0,0,0,0,0,0]","[0.00020000004768405688,0.017600000143048078,0.03360000014305342,0.047900000095367545,0.06779999995231378,0.08070000004768474,0.1004999999999967,0.11429999995230844,0.13100000000000023,0.14829999995231447,0.16479999995230799,0.18110000014304717,0.1979999999999933,0.2149999999999892,0.2307999999523105,0.2477999999523064,0.2664999999999935,0.2822999999523148,0.29999999999999716,0.314200000047677,0.33410000014305297,0.35029999995231265,0.3674999999999926,0.38110000014305,0.4004000000953596,0.4152999999523104,0.43340000009536084]",,5,0,5,0,1,PAV-0007,001,2022-09-22_17h43.18.899,GoFitts,2022.1.4,Win32,59.47778505,,,,
,,,,"[184.01091674868607,-204.36482700628335]","[-222.4796734531105,161.64094438043014]",32.3,550,2,"[188,196,199,202,205,206,211,218,223,228,232,234,234,234,234,234,234,229,224,215,209,202,196,188,182,173,149,110,55,3,-56,-97,-137,-174,-194,-205,-206,-206,-207]","[-190,-199,-200,-205,-207,-209,-215,-223,-230,-239,-243,-244,-244,-244,-244,-244,-243,-237,-230,-220,-214,-208,-203,-198,-193,-185,-160,-114,-54,-4,46,77,107,135,151,159,160,161,161]","[0,0,0,0,0,0,0,0,0,0,0,0,0,0,0,0,0,0,0,0,0,0,0,0,0,0,0,0,0,0,0,0,0,0,0,0,0,0,0]","[0,0,0,0,0,0,0,0,0,0,0,0,0,0,0,0,0,0,0,0,0,0,0,0,0,0,0,0,0,0,0,0,0,0,0,0,0,0,0]","[0,0,0,0,0,0,0,0,0,0,0,0,0,0,0,0,0,0,0,0,0,0,0,0,0,0,0,0,0,0,0,0,0,0,0,0,0,0,0]","[0.00009999990463427366,0.016299999952323674,0.031699999809262636,0.049899999856947375,0.0663999998569551,0.08159999990463973,0.10000000000000853,0.1166999998092706,0.1305999999046321,0.1498999998569559,0.1670000000000016,0.1843999998569501,0.19789999985695772,0.2140999999046329,0.23059999990464064,0.24750000000000227,0.2643999998569484,0.28350000000000364,0.3001999998092657,0.31409999990464144,0.3325999999046303,0.34979999995232447,0.36419999980927287,0.3835999999046322,0.4000000000000057,0.4168999998569518,0.43329999995232527,0.45000000000000284,0.46699999999999875,0.4811999998092631,0.5,0.5168999998569461,0.5307999999523219,0.5500999999046314,0.5671999998092616,0.5835999999046351,0.6004999999999967,0.614699999809261,0.6311999998092688]",,6,0,6,0,1,PAV-0007,001,2022-09-22_17h43.18.899,GoFitts,2022.1.4,Win32,59.47778505,,,,
,,,,"[-222.4796734531105,161.64094438043014]","[251.22500085171527,-111.85257684584504]",32.3,550,2,"[-207,-209,-211,-216,-219,-223,-224,-227,-228,-228,-228,-228,-228,-228,-228,-228,-228,-228,-228,-225,-209,-183,-147,-73,-23,29,77,105,126,136,146,152,157,160,165,172,184,186,195,200,204,209,214,218,223,226,227,228,232,234,237,239]","[161,162,163,164,165,165,167,168,169,169,169,169,169,169,169,169,169,169,169,164,149,129,108,77,60,45,33,26,21,17,13,11,8,6,2,-3,-15,-17,-26,-33,-39,-48,-58,-68,-77,-82,-84,-87,-91,-95,-102,-107]","[0,0,0,0,0,0,0,0,0,0,0,0,0,0,0,0,0,0,0,0,0,0,0,0,0,0,0,0,0,0,0,0,0,0,0,0,0,0,0,0,0,0,0,0,0,0,0,0,0,0,0,0]","[0,0,0,0,0,0,0,0,0,0,0,0,0,0,0,0,0,0,0,0,0,0,0,0,0,0,0,0,0,0,0,0,0,0,0,0,0,0,0,0,0,0,0,0,0,0,0,0,0,0,0,0]","[0,0,0,0,0,0,0,0,0,0,0,0,0,0,0,0,0,0,0,0,0,0,0,0,0,0,0,0,0,0,0,0,0,0,0,0,0,0,0,0,0,0,0,0,0,0,0,0,0,0,0,0]","[0.00020000004768405688,0.01909999990462552,0.03440000009535993,0.05179999995230844,0.06890000009536834,0.08509999990462802,0.10190000009536959,0.11899999999999977,0.13390000009536607,0.1520999999046353,0.16670000004768326,0.18320000004767678,0.20000000000000284,0.21699999999999875,0.2330000000000041,0.24979999995231594,0.2665999999046278,0.2830999999046355,0.2997999999523131,0.3175999999046297,0.33320000004768247,0.352400000095372,0.36729999995230855,0.386299999952314,0.4017000000476827,0.4187000000476786,0.4352999999523206,0.4522999999523165,0.4662999999523123,0.4855999999046361,0.502599999904632,0.5162000000476752,0.5352000000476806,0.5519999999999925,0.5662999999523208,0.5854000000953619,0.6029000000953602,0.6195000000000022,0.6357000000476773,0.6522000000476851,0.6689000000953627,0.6839000000953632,0.7024000000953663,0.716200000047678,0.7355999999046361,0.7499000000953657,0.7694000000953594,0.7837000000476877,0.8022999999523108,0.8169000000953588,0.8340000000000032,0.8527000000476761]",,7,0,7,0,1,PAV-0007,001,2022-09-22_17h43.18.899,GoFitts,2022.1.4,Win32,59.47778505,,,,
,,,,"[251.22500085171527,-111.85257684584504]","[-268.9905902017966,57.17571497488381]",32.3,550,2,"[239,243,243,243,243,243,243,243,243,243,243,243,243,243,243,243,243,239,204,158,91,36,-26,-71,-137,-174,-203,-236,-248,-259,-266,-272,-275,-283,-290,-292,-293,-295,-296,-296,-296,-296,-296,-295,-291,-287,-285,-281]","[-107,-111,-111,-111,-111,-111,-111,-111,-111,-111,-111,-111,-111,-111,-111,-111,-111,-111,-102,-89,-75,-66,-58,-50,-37,-30,-23,-13,-9,-4,1,4,6,11,15,17,18,20,21,22,23,28,36,42,46,47,47,48]","[0,0,0,0,0,0,0,0,0,0,0,0,0,0,0,0,0,0,0,0,0,0,0,0,0,0,0,0,0,0,0,0,0,0,0,0,0,0,0,0,0,0,0,0,0,0,0,0]","[0,0,0,0,0,0,0,0,0,0,0,0,0,0,0,0,0,0,0,0,0,0,0,0,0,0,0,0,0,0,0,0,0,0,0,0,0,0,0,0,0,0,0,0,0,0,0,0]","[0,0,0,0,0,0,0,0,0,0,0,0,0,0,0,0,0,0,0,0,0,0,0,0,0,0,0,0,0,0,0,0,0,0,0,0,0,0,0,0,0,0,0,0,0,0,0,0]","[0.0005000000000023874,0.016099999904639617,0.03320000004768531,0.04650000000000887,0.0634000000953705,0.08050000000000068,0.09700000000000841,0.11379999995232026,0.1307000000476819,0.14700000000000557,0.16359999990463336,0.1805000000000092,0.19779999995232345,0.21379999995231458,0.23059999990464064,0.24709999990463416,0.26409999990463007,0.2810000000000059,0.2992999999523249,0.31579999995231844,0.3302999999523166,0.349099999904638,0.36609999990463393,0.3807000000476819,0.39970000004768735,0.4165999999046335,0.4302000000476909,0.44909999990463234,0.4660000000000082,0.48229999995231765,0.49940000009537755,0.5160000000000053,0.5312999999523242,0.5480999999046361,0.5657999999523184,0.5829000000953641,0.6002000000476926,0.6157999999523156,0.6327999999523257,0.6504000000953738,0.6667000000476833,0.6800999999046411,0.6997999999523188,0.7167000000476804,0.7310999999046288,0.7494999999999976,0.7667999999523261,0.7805999999046378]",,8,0,8,0,1,PAV-0007,001,2022-09-22_17h43.18.899,GoFitts,2022.1.4,Win32,59.47778505,,,,
,,,,"[-268.9905902017966,57.17571497488381]","[275,0]",32.3,550,2,"[-281,-280,-280,-279,-279,-277,-276,-274,-273,-272,-272,-272,-272,-272,-272,-272,-272,-272,-272,-270,-250,-209,-165,-107,-56,8,37,61,81,92,108,118,126,134,139,151,153,158,161,165,173,177,184,194,206,222,232,246,258,263]","[48,48,48,48,48,48,48,49,50,50,50,50,50,50,50,50,50,50,50,50,50,48,47,43,40,36,35,35,35,35,35,35,34,34,34,34,34,34,34,34,33,32,29,23,17,11,7,2,-1,-2]","[0,0,0,0,0,0,0,0,0,0,0,0,0,0,0,0,0,0,0,0,0,0,0,0,0,0,0,0,0,0,0,0,0,0,0,0,0,0,0,0,0,0,0,0,0,0,0,0,0,0]","[0,0,0,0,0,0,0,0,0,0,0,0,0,0,0,0,0,0,0,0,0,0,0,0,0,0,0,0,0,0,0,0,0,0,0,0,0,0,0,0,0,0,0,0,0,0,0,0,0,0]","[0,0,0,0,0,0,0,0,0,0,0,0,0,0,0,0,0,0,0,0,0,0,0,0,0,0,0,0,0,0,0,0,0,0,0,0,0,0,0,0,0,0,0,0,0,0,0,0,0,0]","[0.00020000004768405688,0.01820000004768474,0.033099999904635524,0.051700000047674166,0.06809999990463211,0.08270000004768008,0.10179999995231981,0.11659999990463632,0.13570000004767735,0.14940000009536902,0.1682000000476762,0.18520000004768633,0.20000000000000284,0.21609999990462825,0.23270000004768576,0.24940000009536334,0.2662000000476752,0.2832000000476853,0.2997999999523131,0.31699999999999307,0.33359999990463507,0.35290000009536016,0.36820000004767905,0.385400000095359,0.40229999995231935,0.4187999999523129,0.4360999999046271,0.4519000000953639,0.46920000004767815,0.4850999999046337,0.5024999999999977,0.5185000000000031,0.5349999999999966,0.552900000095363,0.5662000000476866,0.5854999999999961,0.599700000047676,0.6189999999999998,0.6335999999046322,0.6525000000000034,0.6689000000953627,0.6850000000000023,0.7015999999046301,0.7187000000476758,0.7357999999523201,0.7497999999523159,0.7689999999999912,0.785499999999999,0.8017000000476742,0.8169000000953588]",,9,0,9,0,1,PAV-0007,001,2022-09-22_17h43.18.899,GoFitts,2022.1.4,Win32,59.47778505,,,,
,,,,"[275,0]","[-268.9905902017966,-57.175714974883746]",32.3,550,2,"[263,265,266,267,267,267,267,267,267,267,267,267,267,267,267,267,267,252,225,182,124,47,-30,-83,-125,-155,-179,-191,-205,-210,-215,-223,-235,-245,-255,-264,-269,-272,-273,-274,-275,-277,-278,-280,-281,-281,-281]","[-2,-2,-2,-2,-2,-2,-2,-2,-2,-2,-2,-2,-2,-2,-2,-2,-3,-8,-13,-22,-33,-48,-62,-75,-83,-88,-90,-91,-92,-92,-92,-92,-91,-89,-88,-88,-88,-88,-87,-87,-86,-82,-78,-74,-69,-68,-66]","[0,0,0,0,0,0,0,0,0,0,0,0,0,0,0,0,0,0,0,0,0,0,0,0,0,0,0,0,0,0,0,0,0,0,0,0,0,0,0,0,0,0,0,0,0,0,0]","[0,0,0,0,0,0,0,0,0,0,0,0,0,0,0,0,0,0,0,0,0,0,0,0,0,0,0,0,0,0,0,0,0,0,0,0,0,0,0,0,0,0,0,0,0,0,0]","[0,0,0,0,0,0,0,0,0,0,0,0,0,0,0,0,0,0,0,0,0,0,0,0,0,0,0,0,0,0,0,0,0,0,0,0,0,0,0,0,0,0,0,0,0,0,0]","[0.00029999995231833054,0.01820000004768474,0.033400000095369364,0.05170000004768838,0.06660000014305467,0.08249999999999602,0.09929999995232208,0.11620000004768372,0.1329000000953755,0.1495000000000033,0.16640000009536493,0.18279999995232288,0.19940000009536618,0.2159000000953739,0.23279999995232004,0.24929999995231356,0.2662999999523237,0.2832000000476853,0.30179999995232265,0.31829999995231617,0.33200000000000784,0.35160000014305126,0.3689999999999998,0.38540000009537323,0.4017000000476827,0.4164999999999992,0.43550000000000466,0.4497999999523188,0.46829999995232185,0.48529999995231776,0.5021000001430593,0.5189000000953712,0.5327000000476829,0.5517999999523227,0.5687999999523186,0.5851000001430577,0.5997000000476902,0.6187999999523157,0.6357000000476916,0.650299999952324,0.6689999999999969,0.684900000095368,0.7019999999999982,0.7166000001430604,0.7356000001430516,0.7521000001430593,0.7687999999523214]",,10,0,10,0,1,PAV-0007,001,2022-09-22_17h43.18.899,GoFitts,2022.1.4,Win32,59.47778505,,,,
,,,,"[-268.9905902017966,-57.175714974883746]","[251.22500085171524,111.85257684584504]",32.3,550,2,"[-281,-281,-281,-281,-281,-281,-280,-278,-278,-278,-278,-278,-278,-278,-277,-270,-251,-218,-108,-17,54,135,163,187,205,214,219,226,232,242,252]","[-66,-66,-66,-66,-66,-65,-65,-64,-64,-64,-64,-64,-64,-64,-64,-61,-56,-45,-8,23,46,68,74,80,84,87,89,92,95,98,101]","[0,0,0,0,0,0,0,0,0,0,0,0,0,0,0,0,0,0,0,0,0,0,0,0,0,0,0,0,0,0,0]","[0,0,0,0,0,0,0,0,0,0,0,0,0,0,0,0,0,0,0,0,0,0,0,0,0,0,0,0,0,0,0]","[0,0,0,0,0,0,0,0,0,0,0,0,0,0,0,0,0,0,0,0,0,0,0,0,0,0,0,0,0,0,0]","[0.00020000004768405688,0.019499999999993634,0.03270000004768292,0.04710000014304683,0.06410000014304273,0.0809000000953688,0.09760000014304637,0.1167000000476861,0.13040000009536357,0.14710000014304114,0.1639000000953672,0.18060000014304478,0.19720000004768679,0.21390000009536436,0.2307999999523105,0.25029999995231833,0.2666000001430433,0.28170000004767815,0.29949999999999477,0.3139000000953587,0.3327000000476801,0.34679999995231015,0.3662000000476837,0.3832000000476796,0.39970000004768735,0.4140000000000015,0.4336000001430449,0.4494000000953662,0.4667999999523147,0.48349999999999227,0.5005000000000024]",,11,0,11,0,1,PAV-0007,001,2022-09-22_17h43.18.899,GoFitts,2022.1.4,Win32,59.47778505,,,,
,,,,"[251.22500085171524,111.85257684584504]","[-222.47967345311054,-161.64094438043008]",32.3,550,2,"[252,260,266,270,273,274,275,275,275,275,275,275,275,275,274,271,269,264,260,254,249,220,205,115,48,-1,-44,-92,-128,-160,-168,-172,-174,-175,-176,-178,-179,-181,-183,-191,-198,-205,-209]","[101,104,107,109,110,111,112,112,112,112,112,112,112,112,112,112,112,112,111,109,106,91,83,33,-7,-39,-67,-97,-116,-129,-132,-133,-134,-134,-134,-135,-135,-136,-138,-143,-148,-153,-155]","[0,0,0,0,0,0,0,0,0,0,0,0,0,0,0,0,0,0,0,0,0,0,0,0,0,0,0,0,0,0,0,0,0,0,0,0,0,0,0,0,0,0,0]","[0,0,0,0,0,0,0,0,0,0,0,0,0,0,0,0,0,0,0,0,0,0,0,0,0,0,0,0,0,0,0,0,0,0,0,0,0,0,0,0,0,0,0]","[0,0,0,0,0,0,0,0,0,0,0,0,0,0,0,0,0,0,0,0,0,0,0,0,0,0,0,0,0,0,0,0,0,0,0,0,0,0,0,0,0,0,0]","[0.0002999999523041197,0.015099999904620631,0.032299999952314806,0.04859999990462427,0.06529999995231606,0.08240000009536175,0.0979000000953647,0.11599999999999966,0.13029999995231378,0.14709999990462563,0.1637999999523032,0.18020000004767667,0.19690000009536845,0.2137000000476803,0.23049999999999216,0.24670000004768156,0.2665999999046278,0.28249999999999886,0.296799999952313,0.3159000000953682,0.32970000004767996,0.34899999999998954,0.3634999999999877,0.3824999999999932,0.39890000009536664,0.41590000009536254,0.4304000000953607,0.4475999999046252,0.4642000000476827,0.4824999999999875,0.49890000009536095,0.5162000000476752,0.5297000000476828,0.5505999999046196,0.563999999999993,0.5830999999046327,0.5980999999046333,0.6157000000476813,0.6305999999046321,0.6487000000476826,0.6659000000953625,0.6802999999523109,0.6997999999523046]",,12,0,12,0,1,PAV-0007,001,2022-09-22_17h43.18.899,GoFitts,2022.1.4,Win32,59.47778505,,,,
,,,,"[-222.47967345311054,-161.64094438043008]","[184.01091674868601,204.3648270062834]",32.3,550,2,"[-209,-210,-210,-210,-210,-211,-212,-213,-213,-213,-213,-213,-213,-213,-213,-213,-204,-168,-138,-79,-24,17,71,100,118,134,141,150,156,162,164,167,170,172,176,179,183,185]","[-155,-156,-156,-156,-156,-157,-158,-159,-159,-159,-159,-159,-159,-159,-159,-157,-145,-102,-69,-17,24,51,85,101,112,121,127,134,141,148,152,156,161,167,174,180,187,191]","[0,0,0,0,0,0,0,0,0,0,0,0,0,0,0,0,0,0,0,0,0,0,0,0,0,0,0,0,0,0,0,0,0,0,0,0,0,0]","[0,0,0,0,0,0,0,0,0,0,0,0,0,0,0,0,0,0,0,0,0,0,0,0,0,0,0,0,0,0,0,0,0,0,0,0,0,0]","[0,0,0,0,0,0,0,0,0,0,0,0,0,0,0,0,0,0,0,0,0,0,0,0,0,0,0,0,0,0,0,0,0,0,0,0,0,0]","[0.0003000001907338401,0.016000000000005343,0.03360000014305342,0.04690000009537698,0.06350000000000477,0.08070000004768474,0.09680000019073987,0.11690000009537016,0.1299000000953754,0.14700000000000557,0.16360000014304887,0.1805000000000092,0.19700000000000273,0.21390000009536436,0.23000000000000398,0.2469999999999999,0.26650000000000773,0.2823000001907445,0.2991000001430564,0.3133000001907362,0.33260000014306,0.3489000000953695,0.36530000019074294,0.3821000001430548,0.3986000001430483,0.4156000001430584,0.4322000000476862,0.4484000000953756,0.46570000004768985,0.48270000004768576,0.4992000000476935,0.5158000001907368,0.5323000001907445,0.548600000143054,0.5654000000953658,0.5821000001430576,0.5991000001430535,0.6159999999999997]",,13,0,13,0,1,PAV-0007,001,2022-09-22_17h43.18.899,GoFitts,2022.1.4,Win32,59.47778505,,,,
,,,,"[184.01091674868601,204.3648270062834]","[-137.5000000000001,-238.1569860407206]",32.3,550,2,"[185,186,187,187,187,188,188,189,189,190,190,190,190,190,190,190,190,190,190,189,184,172,149,121,66,21,-18,-51,-69,-87,-97,-106,-114,-116,-119,-120,-122,-124,-125,-126,-126,-126,-126,-126,-126,-126,-126,-126,-127,-128]","[191,195,197,198,199,199,201,202,204,206,206,206,206,206,206,206,206,206,206,204,195,175,140,97,17,-43,-98,-149,-174,-201,-216,-228,-240,-244,-248,-249,-253,-255,-257,-259,-259,-259,-259,-259,-259,-259,-259,-258,-254,-250]","[0,0,0,0,0,0,0,0,0,0,0,0,0,0,0,0,0,0,0,0,0,0,0,0,0,0,0,0,0,0,0,0,0,0,0,0,0,0,0,0,0,0,0,0,0,0,0,0,0,0]","[0,0,0,0,0,0,0,0,0,0,0,0,0,0,0,0,0,0,0,0,0,0,0,0,0,0,0,0,0,0,0,0,0,0,0,0,0,0,0,0,0,0,0,0,0,0,0,0,0,0]","[0,0,0,0,0,0,0,0,0,0,0,0,0,0,0,0,0,0,0,0,0,0,0,0,0,0,0,0,0,0,0,0,0,0,0,0,0,0,0,0,0,0,0,0,0,0,0,0,0,0]","[0.00019999980926854732,0.016000000000005343,0.033699999809272185,0.05069999980926809,0.0672999999523256,0.08139999985695567,0.1000999999046428,0.1140999999046386,0.13219999980927355,0.14929999995231924,0.16669999980926775,0.18069999980926355,0.1975999999046394,0.21429999995231697,0.23059999990464064,0.2473999998569525,0.26419999980926434,0.2815000000000083,0.2980000000000018,0.3172999999523256,0.33279999995231435,0.3475000000000108,0.3666999998092706,0.38139999985695283,0.39969999980927184,0.4165999999046335,0.43119999980926593,0.4500999999046371,0.4635999999046305,0.483699999809275,0.5007999999523207,0.516399999856958,0.5301999998092697,0.5503999998569498,0.5665999999046392,0.580599999904635,0.5995999999046404,0.616500000000002,0.6320999999046393,0.6500000000000057,0.6638999998569517,0.6805000000000092,0.6976999998092737,0.7140999999046329,0.7313999998569471,0.7483999998569573,0.7685999999046373,0.784000000000006,0.7982999999523201,0.8168999998569575]",,14,0,14,0,1,PAV-0007,001,2022-09-22_17h43.18.899,GoFitts,2022.1.4,Win32,59.47778505,,,,
,,,,,,,,2,,,,,,,,,,,,,PAV-0007,001,2022-09-22_17h43.18.899,GoFitts,2022.1.4,Win32,59.47778505,2,0,0,1
,,return,0.8549,"[-132,-234]","[108.1559480312316,332.8697807033037]",20,700,3,"[-132,-132,-132,-132,-132,-132,-132,-132,-132,-132,-132,-132,-132,-132,-132,-132,-132,-132,-132,-132,-132,-132,-132,-130,-124,-120,-85,-48,-11,14,41,53,67,76,84,88,89,91,93,93,94,94,95,95,95,95,94,94,94,94,94,94,96,96,97,99]","[-234,-234,-234,-234,-234,-234,-234,-234,-234,-234,-234,-234,-234,-234,-234,-234,-234,-234,-234,-234,-234,-234,-233,-217,-184,-160,-46,33,85,115,142,155,168,179,190,196,199,201,209,216,226,235,243,257,270,282,293,298,302,306,308,311,317,322,326,331]","[0,0,0,0,0,0,0,0,0,0,0,0,0,0,0,0,0,0,0,0,0,0,0,0,0,0,0,0,0,0,0,0,0,0,0,0,0,0,0,0,0,0,0,0,0,0,0,0,0,0,0,0,0,0,0,0]","[0,0,0,0,0,0,0,0,0,0,0,0,0,0,0,0,0,0,0,0,0,0,0,0,0,0,0,0,0,0,0,0,0,0,0,0,0,0,0,0,0,0,0,0,0,0,0,0,0,0,0,0,0,0,0,0]","[0,0,0,0,0,0,0,0,0,0,0,0,0,0,0,0,0,0,0,0,0,0,0,0,0,0,0,0,0,0,0,0,0,0,0,0,0,0,0,0,0,0,0,0,0,0,0,0,0,0,0,0,0,0,0,0]","[0.0005999999046224502,0.018599999904623132,0.03300000000000125,0.0497999999523131,0.0663999998569409,0.08239999985694624,0.10009999990462859,0.11920000004768383,0.1327999999523115,0.14970000004767314,0.16639999985694942,0.18339999985694533,0.19959999990463473,0.2162999999523123,0.2332999999523082,0.25,0.26639999985694374,0.2840999999046261,0.2998999998569474,0.3163999998569409,0.33320000004768247,0.34989999985694453,0.36679999995230617,0.3853999998569435,0.4024999999999892,0.41749999999998977,0.43589999985694305,0.4497999999523188,0.46829999995230764,0.4852000000476835,0.4992000000476793,0.5185999999046231,0.5353999998569492,0.5527000000476789,0.5662000000476723,0.5862000000476826,0.5998999998569445,0.6195999999046222,0.6352999999523092,0.652000000000001,0.6687000000476786,0.6854999999999905,0.7020999999046325,0.7187000000476758,0.7355000000000018,0.7495999999046319,0.7692999999523096,0.7832000000476853,0.8027000000476789,0.8162999999523066,0.8332999999523167,0.850599999904631,0.869099999904634,0.8857000000476773,0.9024999999999892,0.9159999999999968]",,0,0,0,0,1,PAV-0007,001,2022-09-22_17h43.18.899,GoFitts,2022.1.4,Win32,59.47778505,,,,
,,,,"[108.1559480312316,332.8697807033037]","[-36.58496214367898,-348.08266337889563]",20,700,3,"[99,99,100,100,100,100,102,102,103,104,104,104,104,104,104,104,104,100,92,80,58,37,13,-2,-17,-22,-25,-27,-29,-30,-30,-31,-32,-34,-36,-40]","[331,332,333,333,334,335,336,338,339,340,340,340,340,340,340,340,340,328,305,262,192,116,6,-79,-178,-212,-238,-267,-280,-289,-295,-305,-312,-322,-330,-346]","[0,0,0,0,0,0,0,0,0,0,0,0,0,0,0,0,0,0,0,0,0,0,0,0,0,0,0,0,0,0,0,0,0,0,0,0]","[0,0,0,0,0,0,0,0,0,0,0,0,0,0,0,0,0,0,0,0,0,0,0,0,0,0,0,0,0,0,0,0,0,0,0,0]","[0,0,0,0,0,0,0,0,0,0,0,0,0,0,0,0,0,0,0,0,0,0,0,0,0,0,0,0,0,0,0,0,0,0,0,0]","[0.0003999998569526042,0.020399999856948625,0.035699999809267524,0.052799999952313215,0.06739999985694567,0.08679999995231924,0.10069999980926525,0.1196999998092565,0.13389999985695056,0.15059999990462813,0.16949999999999932,0.1839999999999975,0.20089999985694362,0.21709999990463302,0.2337999999523106,0.2503999998569526,0.2668999998569461,0.2843999998569444,0.30349999999999966,0.3168999998569433,0.3372999999523216,0.3504999999999967,0.36909999990463405,0.38450000000000273,0.4029999999999916,0.4170000000000016,0.4334999999999951,0.45159999990463007,0.4692999999523124,0.4858999998569402,0.5026999998092663,0.519799999952312,0.5365999999046238,0.5506999998092681,0.5682999999523162,0.5870000000000033]",,1,0,1,0,1,PAV-0007,001,2022-09-22_17h43.18.899,GoFitts,2022.1.4,Win32,59.47778505,,,,
,,,,"[-36.58496214367898,-348.08266337889563]","[-36.584962143678666,348.0826633788957]",20,700,3,"[-40,-44,-45,-46,-48,-48,-48,-48,-48,-48,-48,-48,-48,-48,-48,-48,-48,-48,-48,-48,-48,-47,-45,-44,-44,-43,-43,-43,-43,-43,-43,-43,-43,-43,-43,-42,-40,-34,-26,-19,-17,-22,-34,-42,-45,-49,-51,-51,-52,-52,-52,-52,-52,-52,-52,-52,-52,-52,-51,-51,-50,-49,-49,-49,-49,-49,-49,-49,-49,-49,-49,-47,-43,-40,-39,-38,-38,-38,-38,-38,-38,-38]","[-346,-360,-370,-378,-384,-385,-387,-387,-387,-387,-387,-387,-387,-387,-387,-387,-387,-387,-386,-381,-371,-363,-358,-357,-354,-354,-354,-354,-354,-354,-354,-354,-354,-354,-353,-346,-309,-211,-72,70,202,336,402,431,438,452,457,461,464,465,465,465,465,465,465,464,456,431,393,386,377,376,376,376,376,376,376,376,376,376,376,375,373,369,367,366,365,364,363,361,358,357]","[0,0,0,0,0,0,0,0,0,0,0,0,0,0,0,0,0,0,0,0,0,0,0,0,0,0,0,0,0,0,0,0,0,0,0,0,0,0,0,0,0,0,0,0,0,0,0,0,0,0,0,0,0,0,0,0,0,0,0,0,0,0,0,0,0,0,0,0,0,0,0,0,0,0,0,0,0,0,0,0,0,0]","[0,0,0,0,0,0,0,0,0,0,0,0,0,0,0,0,0,0,0,0,0,0,0,0,0,0,0,0,0,0,0,0,0,0,0,0,0,0,0,0,0,0,0,0,0,0,0,0,0,0,0,0,0,0,0,0,0,0,0,0,0,0,0,0,0,0,0,0,0,0,0,0,0,0,0,0,0,0,0,0,0,0]","[0,0,0,0,0,0,0,0,0,0,0,0,0,0,0,0,0,0,0,0,0,0,0,0,0,0,0,0,0,0,0,0,0,0,0,0,0,0,0,0,0,0,0,0,0,0,0,0,0,0,0,0,0,0,0,0,0,0,0,0,0,0,0,0,0,0,0,0,0,0,0,0,0,0,0,0,0,0,0,0,0,0]","[0.00020000004768405688,0.01590000009537107,0.030200000047685194,0.049300000190740434,0.06350000000000477,0.08280000019074407,0.09790000009537891,0.11620000004768372,0.1299000000953754,0.1464000000953689,0.16370000004768315,0.18020000004769088,0.1971000001430525,0.21350000000001046,0.23020000004768804,0.24710000014306388,0.2637000000476917,0.280300000190735,0.29749999999999943,0.3165000000000049,0.33280000019074407,0.3489000000953695,0.36660000014305183,0.3807000000476961,0.397700000047692,0.4143000001907353,0.4328000001907384,0.44690000009536845,0.4633000001907419,0.48320000004768815,0.4969000000953798,0.5138000001907415,0.530300000190735,0.546900000095377,0.564300000190741,0.5810000000000031,0.5967000000476901,0.6133000001907476,0.6310000000000002,0.649400000095369,0.6636000001430631,0.6830000000000069,0.6999000000953686,0.7159000000953739,0.7305000000000064,0.7494000000953775,0.7643000001907438,0.7827000000476829,0.8001000001430612,0.8137000000476888,0.8301000001430623,0.8467000000476901,0.8638000001907358,0.8803000001907435,0.8972000000476896,0.9146000001430536,0.9303000001907407,0.9497000000476845,0.9662000000476922,0.9806000001430561,0.9993000001907433,1.0137000000476917,1.0334000000953694,1.0481000001430516,1.0638000001907386,1.081000000000003,1.0976000001430606,1.114100000143054,1.130500000000012,1.1474000000953737,1.1639000000953672,1.1814000000953797,1.1972000000476868,1.2168000001907444,1.233300000190738,1.2494000000953775,1.265900000095371,1.28120000004769,1.3007000000476836,1.3160000000000025,1.331000000000003,1.349600000143056]",,2,0,2,0,1,PAV-0007,001,2022-09-22_17h43.18.899,GoFitts,2022.1.4,Win32,59.47778505,,,,
,,,,"[-36.584962143678666,348.0826633788957]","[108.15594803123153,-332.8697807033038]",20,700,3,"[-38,-38,-38,-38,-38,-38,-38,-38,-38,-38,-38,-38,-38,-38,-38,-38,-38,-37,-26,-14,-4,5,15,24,33,38,40,45,47,49,52,54,59,62,66,67,69,71,73,75,77,80,82,83,83,87,89,93,94,95,96,96,97,97,97,97,97,97,97,97,98,99,99,101,101,102,102,102,103,105]","[357,357,357,357,357,357,357,357,357,357,357,357,357,357,357,357,357,352,310,252,176,100,35,-10,-58,-76,-87,-108,-115,-124,-133,-139,-149,-158,-164,-170,-175,-186,-196,-213,-224,-234,-244,-250,-257,-272,-278,-290,-298,-301,-305,-307,-308,-308,-308,-308,-308,-308,-309,-310,-312,-314,-316,-318,-320,-321,-322,-323,-324,-329]","[0,0,0,0,0,0,0,0,0,0,0,0,0,0,0,0,0,0,0,0,0,0,0,0,0,0,0,0,0,0,0,0,0,0,0,0,0,0,0,0,0,0,0,0,0,0,0,0,0,0,0,0,0,0,0,0,0,0,0,0,0,0,0,0,0,0,0,0,0,0]","[0,0,0,0,0,0,0,0,0,0,0,0,0,0,0,0,0,0,0,0,0,0,0,0,0,0,0,0,0,0,0,0,0,0,0,0,0,0,0,0,0,0,0,0,0,0,0,0,0,0,0,0,0,0,0,0,0,0,0,0,0,0,0,0,0,0,0,0,0,0]","[0,0,0,0,0,0,0,0,0,0,0,0,0,0,0,0,0,0,0,0,0,0,0,0,0,0,0,0,0,0,0,0,0,0,0,0,0,0,0,0,0,0,0,0,0,0,0,0,0,0,0,0,0,0,0,0,0,0,0,0,0,0,0,0,0,0,0,0,0,0]","[0.00020000004768405688,0.016900000095361634,0.030799999952321855,0.04749999999999943,0.06440000009536107,0.08100000000000307,0.09720000004767826,0.11440000009537243,0.1305999999046321,0.14749999999999375,0.16450000000000387,0.18079999995231333,0.20040000009537096,0.2142000000476827,0.2307999999523105,0.24770000004768633,0.2644000000953639,0.28079999995232185,0.2975999999046337,0.31620000004768656,0.3305000000000007,0.3492000000476878,0.36549999999999727,0.3832000000476796,0.40009999990462575,0.4162000000476809,0.43170000004768383,0.45050000000000523,0.4672000000476828,0.48320000004768815,0.49979999995231594,0.5164999999999935,0.5305000000000035,0.5502999999523155,0.5662999999523208,0.5834000000953665,0.5982999999523173,0.6167999999523204,0.6307000000476819,0.6500000000000057,0.6670000000000016,0.6814000000953655,0.6997999999523188,0.7172000000476828,0.7317999999523153,0.7499000000953657,0.7642000000476799,0.7832999999523196,0.7997999999523131,0.8142999999523113,0.8334000000953665,0.850599999904631,0.86390000009537,0.883499999999998,0.8977000000476778,0.9145000000000039,0.9312999999523157,0.9480999999046276,0.9650000000000034,0.9822999999523176,1.0007000000476864,1.0164999999999935,1.0332000000476853,1.0499999999999972,1.0675999999046297,1.0840000000000032,1.1017000000476855,1.1170999999046245,1.1314000000953683,1.1505999999046281]",,3,0,3,0,1,PAV-0007,001,2022-09-22_17h43.18.899,GoFitts,2022.1.4,Win32,59.47778505,,,,
,,,,"[108.15594803123153,-332.8697807033038]","[-174.99999999999991,303.10889132455355]",20,700,3,"[105,105,106,106,106,106,106,106,106,106,106,106,106,106,106,106,106,106,106,104,88,72,49,28,-2,-26,-55,-79,-98,-107,-111,-125,-134,-141,-147,-151,-156,-160,-163,-165,-166,-168,-168,-169,-170,-172,-173,-175]","[-329,-331,-332,-332,-332,-332,-332,-332,-332,-332,-332,-332,-332,-332,-332,-332,-332,-332,-328,-321,-264,-212,-144,-93,-25,24,72,106,130,142,148,167,179,187,195,200,208,214,222,228,231,236,240,249,267,281,287,295]","[0,0,0,0,0,0,0,0,0,0,0,0,0,0,0,0,0,0,0,0,0,0,0,0,0,0,0,0,0,0,0,0,0,0,0,0,0,0,0,0,0,0,0,0,0,0,0,0]","[0,0,0,0,0,0,0,0,0,0,0,0,0,0,0,0,0,0,0,0,0,0,0,0,0,0,0,0,0,0,0,0,0,0,0,0,0,0,0,0,0,0,0,0,0,0,0,0]","[0,0,0,0,0,0,0,0,0,0,0,0,0,0,0,0,0,0,0,0,0,0,0,0,0,0,0,0,0,0,0,0,0,0,0,0,0,0,0,0,0,0,0,0,0,0,0,0]","[0.00029999995231833054,0.01589999985695556,0.033099999904635524,0.04689999985694726,0.06370000004768883,0.0803999998569509,0.09709999990464269,0.1140999999046386,0.1305999999046321,0.1468999998569558,0.1638999998569517,0.18070000004769327,0.1992999999523164,0.21399999999999864,0.2302999999523223,0.24720000004768394,0.2638999998569602,0.28039999985695374,0.2983999998569544,0.31450000000000955,0.3302999999523166,0.34989999985695874,0.36339999985695215,0.38339999985694817,0.39700000000000557,0.4157000000476927,0.43209999990463643,0.4492999999523164,0.4663999998569466,0.48320000004768815,0.4973999998569525,0.5160000000000053,0.5323999998569491,0.5474999999999994,0.5660000000000025,0.5825999999046303,0.5967000000476901,0.6168999998569547,0.6332000000476938,0.6480000000000103,0.6662999999523151,0.6835999999046436,0.6973999998569553,0.7163999998569466,0.7328999998569543,0.7497000000476817,0.7642000000476941,0.7832000000476853]",,4,0,4,0,1,PAV-0007,001,2022-09-22_17h43.18.899,GoFitts,2022.1.4,Win32,59.47778505,,,,
,,,,"[-174.99999999999991,303.10889132455355]","[234.19571222560046,-260.1006889170879]",20,700,3,"[-175,-175,-175,-176,-176,-176,-176,-176,-176,-176,-176,-176,-176,-176,-176,-176,-176,-176,-176,-176,-176,-176,-174,-147,-110,-78,-36,-1,42,71,100,113,127,136,147,155,164,171,186,191,198,203,203,209,213,217,221,225,228,229,230,232]","[295,298,300,300,301,301,301,301,301,301,301,301,301,301,301,301,301,301,301,301,301,301,298,254,195,136,67,17,-38,-71,-101,-113,-126,-133,-143,-150,-157,-163,-178,-185,-194,-200,-202,-211,-219,-228,-236,-243,-247,-250,-251,-253]","[0,0,0,0,0,0,0,0,0,0,0,0,0,0,0,0,0,0,0,0,0,0,0,0,0,0,0,0,0,0,0,0,0,0,0,0,0,0,0,0,0,0,0,0,0,0,0,0,0,0,0,0]","[0,0,0,0,0,0,0,0,0,0,0,0,0,0,0,0,0,0,0,0,0,0,0,0,0,0,0,0,0,0,0,0,0,0,0,0,0,0,0,0,0,0,0,0,0,0,0,0,0,0,0,0]","[0,0,0,0,0,0,0,0,0,0,0,0,0,0,0,0,0,0,0,0,0,0,0,0,0,0,0,0,0,0,0,0,0,0,0,0,0,0,0,0,0,0,0,0,0,0,0,0,0,0,0,0]","[0,0.016599999904627794,0.030200000047685194,0.05009999990463143,0.06779999995231378,0.08339999985695101,0.0978999998569492,0.1132000000476836,0.13039999985694806,0.14739999985694396,0.16420000004768553,0.18099999999999739,0.19750000000000512,0.2140999999046329,0.23099999999999454,0.2473999998569525,0.2642999999523141,0.28089999985695613,0.30039999985694976,0.3142000000476912,0.3305000000000007,0.3473999998569468,0.36379999995232026,0.3828999998569458,0.39970000004768735,0.4162000000476809,0.43170000004768383,0.4475999999046394,0.4658999998569442,0.4828999998569543,0.49929999995231356,0.5158999998569556,0.5303999998569537,0.5494999999999948,0.5640000000000072,0.5842000000476872,0.5977000000476806,0.6168999998569547,0.6330999999046298,0.6503999998569441,0.6667000000476833,0.6807999999523133,0.7007000000476893,0.7137999999523146,0.7328999998569543,0.7489999999999952,0.7635999999046277,0.7835999999046379,0.797899999856952,0.8158999998569527,0.830599999904635,0.8502000000476784]",,5,0,5,0,1,PAV-0007,001,2022-09-22_17h43.18.899,GoFitts,2022.1.4,Win32,59.47778505,,,,
,,,,"[234.19571222560046,-260.1006889170879]","[-283.15594803123156,205.72483830236564]",20,700,3,"[232,235,236,236,236,236,236,236,236,236,236,236,236,236,236,236,236,236,236,233,207,160,100,44,-19,-76,-136,-199,-234,-260,-284,-296,-304,-310,-321,-330,-340,-343,-344,-344,-344,-344,-344,-344,-343,-339,-332,-325,-317,-311,-304,-300,-296,-294,-293,-292,-292,-292,-292,-292,-292,-292,-291,-290,-288]","[-253,-257,-258,-258,-258,-258,-258,-258,-258,-258,-258,-258,-258,-258,-258,-258,-258,-258,-258,-254,-223,-170,-113,-68,-23,17,59,106,135,157,179,190,198,203,213,221,230,231,232,232,232,232,232,232,232,232,233,233,232,229,226,225,223,222,221,221,221,221,221,221,221,221,220,217,214]","[0,0,0,0,0,0,0,0,0,0,0,0,0,0,0,0,0,0,0,0,0,0,0,0,0,0,0,0,0,0,0,0,0,0,0,0,0,0,0,0,0,0,0,0,0,0,0,0,0,0,0,0,0,0,0,0,0,0,0,0,0,0,0,0,0]","[0,0,0,0,0,0,0,0,0,0,0,0,0,0,0,0,0,0,0,0,0,0,0,0,0,0,0,0,0,0,0,0,0,0,0,0,0,0,0,0,0,0,0,0,0,0,0,0,0,0,0,0,0,0,0,0,0,0,0,0,0,0,0,0,0]","[0,0,0,0,0,0,0,0,0,0,0,0,0,0,0,0,0,0,0,0,0,0,0,0,0,0,0,0,0,0,0,0,0,0,0,0,0,0,0,0,0,0,0,0,0,0,0,0,0,0,0,0,0,0,0,0,0,0,0,0,0,0,0,0,0]","[0.00020000004768405688,0.016399999856957947,0.031399999856958516,0.04950000000000898,0.06389999985695738,0.08070000004768474,0.09709999990464269,0.1140999999046386,0.1310999999046345,0.14759999990464223,0.16379999995231742,0.18070000004769327,0.19739999985695533,0.21399999999999864,0.2315999999046312,0.2468999998569501,0.26470000004768224,0.2805999999046378,0.2977000000476835,0.3147000000476936,0.3328999998569486,0.3492000000476878,0.36650000000000205,0.3802000000476937,0.39929999995231924,0.41370000004768315,0.4322000000476862,0.44820000004769156,0.4663999998569466,0.48320000004768815,0.49720000004768394,0.516399999856958,0.5320999999046307,0.5477000000476835,0.5647999999523137,0.5812999999523214,0.5977000000476949,0.6168999998569547,0.6308999998569504,0.6498999998569559,0.6638999998569517,0.6805999999046435,0.6970000000000027,0.7139999999999986,0.7318999998569495,0.7497999999523159,0.7660000000000053,0.7805000000000035,0.8000000000000114,0.8160999999046368,0.8332999999523167,0.847999999999999,0.8658999998569499,0.8827999999523257,0.9000000000000057,0.9172000000476856,0.9339999999999975,0.9472999999523211,0.9642000000476827,0.9812000000476928,0.9975999999046365,1.0144999999999982,1.0308999998569561,1.0475999999046337,1.0640000000000072]",,6,0,6,0,1,PAV-0007,001,2022-09-22_17h43.18.899,GoFitts,2022.1.4,Win32,59.47778505,,,,
,,,,"[-283.15594803123156,205.72483830236564]","[319.74091017491037,-142.35782507653005]",20,700,3,"[-288,-287,-286,-286,-286,-286,-286,-286,-286,-286,-286,-286,-286,-286,-285,-276,-265,-241,-197,-176,-126,-31,39,110,172,229,263,300,323,335,342,344,344,344,344,344,344,344,344,344,344,344,342,340,338,335,333,330,329,328,327,327,327,327,327,327,327,327,327,327,327]","[214,213,213,213,213,213,213,213,213,213,213,213,213,213,211,205,197,182,155,144,117,70,37,5,-23,-48,-62,-79,-88,-91,-93,-93,-93,-93,-93,-93,-93,-93,-93,-94,-96,-99,-103,-106,-109,-113,-115,-120,-123,-127,-129,-131,-131,-131,-131,-131,-132,-133,-135,-135,-136]","[0,0,0,0,0,0,0,0,0,0,0,0,0,0,0,0,0,0,0,0,0,0,0,0,0,0,0,0,0,0,0,0,0,0,0,0,0,0,0,0,0,0,0,0,0,0,0,0,0,0,0,0,0,0,0,0,0,0,0,0,0]","[0,0,0,0,0,0,0,0,0,0,0,0,0,0,0,0,0,0,0,0,0,0,0,0,0,0,0,0,0,0,0,0,0,0,0,0,0,0,0,0,0,0,0,0,0,0,0,0,0,0,0,0,0,0,0,0,0,0,0,0,0]","[0,0,0,0,0,0,0,0,0,0,0,0,0,0,0,0,0,0,0,0,0,0,0,0,0,0,0,0,0,0,0,0,0,0,0,0,0,0,0,0,0,0,0,0,0,0,0,0,0,0,0,0,0,0,0,0,0,0,0,0,0]","[0.0002999999523041197,0.01879999995230719,0.036000000000001364,0.05259999990462916,0.0663999998569409,0.0825999999046303,0.09979999995231026,0.11629999995231799,0.13309999990462984,0.14999999999999147,0.16659999990463348,0.183099999904627,0.19959999990462052,0.21659999990463064,0.23399999999999466,0.25289999985695033,0.2687999999523072,0.2830999999046213,0.30220000004767655,0.3164999999999907,0.33359999990462086,0.35170000004768553,0.36889999985695,0.38479999995230685,0.399099999904621,0.4185999999046288,0.43549999999999045,0.45220000004768224,0.46870000004767576,0.48529999995231776,0.4990999999046295,0.5172999999523142,0.5357999999523173,0.5497000000476788,0.5662999999523066,0.5832999999523167,0.5997999999523103,0.616399999856938,0.6332000000476796,0.6502999999523098,0.6695999999046336,0.6853999998569407,0.6993999998569507,0.7194999999999965,0.7357000000476717,0.7524999999999977,0.7670999999046302,0.7852999999523149,0.7997000000476788,0.8188999998569386,0.8354999999999961,0.8492999999523079,0.868200000047679,0.8829999999999956,0.8997000000476731,0.9162000000476809,0.9327000000476744,0.951399999856946,0.9682000000476734,0.9828999998569401,0.9998999998569502]",,7,0,7,0,1,PAV-0007,001,2022-09-22_17h43.18.899,GoFitts,2022.1.4,Win32,59.47778505,,,,
,,,,"[319.74091017491037,-142.35782507653005]","[-342.351660256832,72.76909178621575]",20,700,3,"[327,327,327,327,327,327,326,326,326,326,326,325,324,322,318,315,307,287,264,224,202,98,8,-78,-135,-198,-229,-249,-264,-275,-279,-281,-282,-287,-291,-294,-296,-298,-300,-302,-306,-309,-313,-316,-319,-322,-325,-327,-327,-327,-328,-328,-328,-329,-329,-330,-331,-333]","[-136,-136,-136,-136,-136,-136,-136,-136,-136,-136,-136,-136,-136,-136,-136,-136,-136,-136,-131,-120,-114,-81,-52,-30,-15,-4,3,7,11,15,17,19,21,26,30,33,36,39,40,44,49,54,60,63,67,69,71,72,72,72,72,72,72,72,72,72,72,72]","[0,0,0,0,0,0,0,0,0,0,0,0,0,0,0,0,0,0,0,0,0,0,0,0,0,0,0,0,0,0,0,0,0,0,0,0,0,0,0,0,0,0,0,0,0,0,0,0,0,0,0,0,0,0,0,0,0,0]","[0,0,0,0,0,0,0,0,0,0,0,0,0,0,0,0,0,0,0,0,0,0,0,0,0,0,0,0,0,0,0,0,0,0,0,0,0,0,0,0,0,0,0,0,0,0,0,0,0,0,0,0,0,0,0,0,0,0]","[0,0,0,0,0,0,0,0,0,0,0,0,0,0,0,0,0,0,0,0,0,0,0,0,0,0,0,0,0,0,0,0,0,0,0,0,0,0,0,0,0,0,0,0,0,0,0,0,0,0,0,0,0,0,0,0,0,0]","[0.00020000004768405688,0.018700000047687126,0.033099999904635524,0.05229999995232504,0.06629999995232083,0.08290000009537835,0.10000000000000853,0.1192999999523181,0.1329000000953755,0.14979999995232163,0.16690000009538153,0.18329999995232527,0.19979999995231879,0.2169000000953787,0.23579999995232015,0.24990000009537994,0.26850000000000307,0.28529999995232913,0.29970000004769304,0.31940000009537073,0.3340000000000032,0.3519000000953696,0.36859999990464587,0.3850000000000051,0.3999000000953714,0.4192000000476952,0.43509999990463655,0.45220000004769645,0.46929999995232663,0.4852000000476977,0.5025999999046462,0.519900000095376,0.5342000000476901,0.5517000000476884,0.5690000000000026,0.5825000000000102,0.6017000000476855,0.6160999999046339,0.6347999999523211,0.651900000095381,0.6669000000953815,0.6859000000953728,0.6997999999523188,0.7162999999523265,0.7359000000953699,0.7505999999046367,0.7687000000476871,0.7854000000953789,0.8025000000000091,0.8170000000000073,0.8335000000000008,0.8529000000953744,0.8667000000476861,0.8840000000000003,0.9027999999523217,0.9180000000000064,0.9335999999046436,0.950400000095371]",,8,0,8,0,1,PAV-0007,001,2022-09-22_17h43.18.899,GoFitts,2022.1.4,Win32,59.47778505,,,,
,,,,"[-342.351660256832,72.76909178621575]","[350,0]",20,700,3,"[-333,-335,-337,-337,-337,-337,-337,-337,-337,-337,-337,-335,-331,-327,-320,-308,-275,-224,-118,-68,36,102,147,180,207,221,234,241,249,259,267,278,290,296,300,308,313,316,319,321,324,327,332,338,343]","[72,72,72,72,72,72,72,72,72,72,72,72,72,72,72,71,66,61,53,47,33,23,16,10,5,2,-2,-4,-5,-7,-8,-8,-8,-8,-8,-8,-8,-8,-8,-8,-8,-7,-6,-5,-5]","[0,0,0,0,0,0,0,0,0,0,0,0,0,0,0,0,0,0,0,0,0,0,0,0,0,0,0,0,0,0,0,0,0,0,0,0,0,0,0,0,0,0,0,0,0]","[0,0,0,0,0,0,0,0,0,0,0,0,0,0,0,0,0,0,0,0,0,0,0,0,0,0,0,0,0,0,0,0,0,0,0,0,0,0,0,0,0,0,0,0,0]","[0,0,0,0,0,0,0,0,0,0,0,0,0,0,0,0,0,0,0,0,0,0,0,0,0,0,0,0,0,0,0,0,0,0,0,0,0,0,0,0,0,0,0,0,0]","[0.00040000009536811376,0.019799999952311964,0.03470000004767826,0.05200000000000671,0.06579999995231844,0.08229999995231196,0.09920000004768781,0.11590000009536539,0.13220000004768906,0.1490000000000009,0.16599999999999682,0.1827000000476886,0.2014999999999958,0.21570000004768985,0.2321000001430491,0.24899999999999523,0.26850000000000307,0.28249999999999886,0.3015000000000043,0.31670000004768895,0.3344000000953713,0.35160000014305126,0.3657999999523156,0.38440000009536845,0.402000000000001,0.4162000000476809,0.4350000000000023,0.4497999999523188,0.4689999999999941,0.48370000004769054,0.5029000000953658,0.5162000000476894,0.5351000001430464,0.5522000000476766,0.5659000000953682,0.5851000001430577,0.6017999999523198,0.6181000001430448,0.6324000000953731,0.6522000000476851,0.6661000001430466,0.6850000000000023,0.6996000001430502,0.71870000004769,0.7351000001430492]",,9,0,9,0,1,PAV-0007,001,2022-09-22_17h43.18.899,GoFitts,2022.1.4,Win32,59.47778505,,,,
,,,,"[350,0]","[-342.351660256832,-72.76909178621567]",20,700,3,"[343,345,346,346,346,346,346,346,346,346,346,346,346,346,346,346,346,346,337,327,276,207,120,47,-54,-146,-209,-262,-287,-304,-313,-316,-316,-317,-317,-318,-320,-321,-323,-327,-332,-339,-342]","[-5,-4,-4,-4,-4,-4,-4,-4,-4,-4,-4,-4,-4,-4,-4,-4,-4,-4,-4,-5,-13,-25,-37,-44,-48,-50,-51,-52,-52,-52,-52,-52,-52,-52,-52,-52,-53,-53,-53,-55,-56,-60,-63]","[0,0,0,0,0,0,0,0,0,0,0,0,0,0,0,0,0,0,0,0,0,0,0,0,0,0,0,0,0,0,0,0,0,0,0,0,0,0,0,0,0,0,0]","[0,0,0,0,0,0,0,0,0,0,0,0,0,0,0,0,0,0,0,0,0,0,0,0,0,0,0,0,0,0,0,0,0,0,0,0,0,0,0,0,0,0,0]","[0,0,0,0,0,0,0,0,0,0,0,0,0,0,0,0,0,0,0,0,0,0,0,0,0,0,0,0,0,0,0,0,0,0,0,0,0,0,0,0,0,0,0]","[0.00020000004768405688,0.017799999952316625,0.031700000047678145,0.05009999990463143,0.06409999990462723,0.08059999990463496,0.09729999995231253,0.1140999999046386,0.1305999999046321,0.1472999999523097,0.16409999990463575,0.18099999999999739,0.197099999904637,0.2142000000476827,0.2312000000476786,0.24759999990463655,0.26420000004767985,0.2810000000000059,0.2997000000476788,0.31529999995231606,0.3325999999046303,0.3478999998569492,0.36639999985695226,0.3832000000476796,0.39749999999999375,0.4164999999999992,0.4303999998569452,0.4500999999046371,0.46399999999999864,0.4838999998569449,0.4987000000476769,0.5165999999046278,0.531099999904626,0.5503999998569498,0.563999999999993,0.5808999998569533,0.5973999998569468,0.6163999998569523,0.633700000047682,0.6472999999523097,0.6670000000000016,0.6805999999046293,0.6997000000476845]",,10,0,10,0,1,PAV-0007,001,2022-09-22_17h43.18.899,GoFitts,2022.1.4,Win32,59.47778505,,,,
,,,,"[-342.351660256832,-72.76909178621567]","[319.7409101749103,142.35782507653005]",20,700,3,"[-342,-344,-345,-346,-346,-346,-346,-347,-347,-347,-347,-347,-347,-347,-347,-347,-347,-347,-343,-312,-257,-189,-108,-11,55,134,195,224,246,261,270,276,282,286,289,291,292,293,296,301,308,312,316,318,319,320,321,321,322,322,322]","[-63,-64,-64,-65,-65,-66,-67,-67,-67,-67,-67,-67,-67,-67,-67,-67,-67,-67,-67,-57,-39,-16,6,27,39,54,64,69,76,81,85,87,89,91,92,93,94,95,96,101,108,115,121,123,125,126,127,129,131,132,133]","[0,0,0,0,0,0,0,0,0,0,0,0,0,0,0,0,0,0,0,0,0,0,0,0,0,0,0,0,0,0,0,0,0,0,0,0,0,0,0,0,0,0,0,0,0,0,0,0,0,0,0]","[0,0,0,0,0,0,0,0,0,0,0,0,0,0,0,0,0,0,0,0,0,0,0,0,0,0,0,0,0,0,0,0,0,0,0,0,0,0,0,0,0,0,0,0,0,0,0,0,0,0,0]","[0,0,0,0,0,0,0,0,0,0,0,0,0,0,0,0,0,0,0,0,0,0,0,0,0,0,0,0,0,0,0,0,0,0,0,0,0,0,0,0,0,0,0,0,0,0,0,0,0,0,0]","[0.00029999995231833054,0.016999999999995907,0.03320000004768531,0.04870000004767405,0.06420000004767701,0.08159999990462552,0.0978999998569492,0.1170999999046245,0.13100000000000023,0.14749999999999375,0.16459999990462393,0.18120000004768144,0.19779999995230924,0.21489999985693942,0.23129999995231287,0.2482000000476745,0.2643999998569484,0.28120000004767576,0.2977000000476835,0.316799999952309,0.3329999999999984,0.34979999995231026,0.3640999999046244,0.38429999995231867,0.3999999999999915,0.4138999998569517,0.4339999999999975,0.4475999999046252,0.46649999999999636,0.4838999998569449,0.4973999998569525,0.5177000000476824,0.5333999998569396,0.5500999999046314,0.5677000000476795,0.5829999999999984,0.5995999999046262,0.6162000000476837,0.6329999999999956,0.6498999998569417,0.6667000000476833,0.683299999952311,0.6989999999999981,0.7164999999999964,0.7337000000476763,0.7505999999046225,0.7668999998569461,0.7809999999999917,0.8002000000476812,0.816799999952309,0.8338999998569392]",,11,0,11,0,1,PAV-0007,001,2022-09-22_17h43.18.899,GoFitts,2022.1.4,Win32,59.47778505,,,,
,,,,"[319.7409101749103,142.35782507653005]","[-283.1559480312316,-205.72483830236555]",20,700,3,"[322,322,322,322,323,323,323,323,323,324,324,324,324,324,324,324,319,288,254,203,131,72,13,-24,-80,-91,-108,-125,-141,-156,-165,-181,-193,-206,-218,-228,-238,-241,-242,-243,-243,-246,-249,-252,-256,-261,-264,-269,-271,-274]","[133,135,136,138,138,138,138,139,140,142,144,144,144,144,144,144,140,121,97,62,19,-15,-52,-73,-108,-113,-123,-131,-141,-149,-155,-162,-167,-173,-179,-184,-190,-193,-194,-194,-195,-196,-198,-199,-201,-202,-203,-204,-204,-205]","[0,0,0,0,0,0,0,0,0,0,0,0,0,0,0,0,0,0,0,0,0,0,0,0,0,0,0,0,0,0,0,0,0,0,0,0,0,0,0,0,0,0,0,0,0,0,0,0,0,0]","[0,0,0,0,0,0,0,0,0,0,0,0,0,0,0,0,0,0,0,0,0,0,0,0,0,0,0,0,0,0,0,0,0,0,0,0,0,0,0,0,0,0,0,0,0,0,0,0,0,0]","[0,0,0,0,0,0,0,0,0,0,0,0,0,0,0,0,0,0,0,0,0,0,0,0,0,0,0,0,0,0,0,0,0,0,0,0,0,0,0,0,0,0,0,0,0,0,0,0,0,0]","[0.00020000004768405688,0.016100000143055127,0.03070000004768758,0.05010000014306115,0.06410000014305695,0.08329999995231674,0.09790000009537891,0.11429999995232265,0.13100000000000023,0.14760000014305774,0.16679999995231753,0.18310000014305672,0.19740000009537084,0.21390000009537857,0.23050000000000637,0.24810000014305444,0.2649000000953805,0.28090000009537164,0.299500000000009,0.31360000014305456,0.3339000000953689,0.3506000001430607,0.36650000000000205,0.38060000014306183,0.399400000095369,0.414900000095372,0.43340000009537505,0.44870000004769395,0.4672999999523171,0.4826000001430515,0.4991000001430592,0.5160000000000053,0.5302999999523195,0.5502000000476954,0.5670000000000073,0.5805000000000007,0.6002999999523269,0.6142999999523227,0.6306000001430618,0.6510000000000105,0.6642999999523198,0.6837000000476934,0.6992999999523164,0.7177999999523195,0.7329000000953698,0.7494000000953775,0.7662999999523237,0.7804000000953693,0.8009000000953677,0.8167999999523232]",,12,0,12,0,1,PAV-0007,001,2022-09-22_17h43.18.899,GoFitts,2022.1.4,Win32,59.47778505,,,,
,,,,"[-283.1559480312316,-205.72483830236555]","[234.19571222560037,260.100688917088]",20,700,3,"[-274,-277,-280,-283,-286,-286,-286,-286,-286,-286,-286,-286,-286,-286,-286,-286,-279,-263,-235,-157,-98,-72,-27,21,49,65,80,86,94,100,107,111,118,122,127,133,139,147,149,162,169,177,184,189,192,195,198,207,213,225,227,233,236,239,241]","[-205,-206,-207,-208,-209,-209,-209,-209,-209,-209,-209,-209,-209,-209,-209,-209,-202,-185,-154,-73,-17,7,43,80,99,109,120,125,133,139,146,150,156,161,168,174,179,187,189,203,209,219,224,227,229,231,232,237,241,245,246,248,250,251,253]","[0,0,0,0,0,0,0,0,0,0,0,0,0,0,0,0,0,0,0,0,0,0,0,0,0,0,0,0,0,0,0,0,0,0,0,0,0,0,0,0,0,0,0,0,0,0,0,0,0,0,0,0,0,0,0]","[0,0,0,0,0,0,0,0,0,0,0,0,0,0,0,0,0,0,0,0,0,0,0,0,0,0,0,0,0,0,0,0,0,0,0,0,0,0,0,0,0,0,0,0,0,0,0,0,0,0,0,0,0,0,0]","[0,0,0,0,0,0,0,0,0,0,0,0,0,0,0,0,0,0,0,0,0,0,0,0,0,0,0,0,0,0,0,0,0,0,0,0,0,0,0,0,0,0,0,0,0,0,0,0,0,0,0,0,0,0,0]","[0.00040000009536811376,0.016099999904625406,0.03300000000000125,0.049299999952310714,0.06440000009536107,0.0835000000000008,0.09690000009535993,0.11350000000000193,0.12999999999999545,0.14700000000000557,0.16370000004768315,0.180499999999995,0.19679999995231867,0.21340000009536197,0.23049999999999216,0.24720000004768394,0.26409999990463007,0.2824000000953646,0.2987999999523083,0.3160000000000025,0.332499999999996,0.3482999999523173,0.3640000000000043,0.3824999999999932,0.3990000000000009,0.41629999995231515,0.43290000009537266,0.44650000000000034,0.465999999999994,0.482599999904636,0.49970000004768167,0.5164000000953592,0.5327000000476829,0.549599999904629,0.5670999999046273,0.5815999999046255,0.5975999999046309,0.6160999999046339,0.6310000000000002,0.6490999999046352,0.6667000000476833,0.6810999999046317,0.7000000000000028,0.7167000000476804,0.7304999999999922,0.7505999999046367,0.7634000000953591,0.7835999999046379,0.7970999999046313,0.8159000000953682,0.8305000000000007,0.8502000000476784,0.8659999999999997,0.8827000000476772,0.8997000000476874]",,13,0,13,0,1,PAV-0007,001,2022-09-22_17h43.18.899,GoFitts,2022.1.4,Win32,59.47778505,,,,
,,,,"[234.19571222560037,260.100688917088]","[-175.00000000000014,-303.1088913245535]",20,700,3,"[241,241,241,241,242,242,243,243,243,243,243,243,243,243,243,240,231,210,186,148,114,67,30,1,-26,-52,-61,-65,-72,-76,-78,-79,-82,-86,-89,-94,-100,-110,-118,-125,-133,-145,-155,-162,-165,-167,-168,-168,-169,-169,-169,-169,-169,-169,-169,-169,-170,-170,-170,-170,-170,-170,-170,-170,-171,-172]","[253,253,253,254,254,255,256,257,258,258,258,258,258,258,258,253,243,218,189,139,92,19,-40,-90,-135,-182,-201,-207,-219,-225,-228,-230,-234,-239,-244,-251,-260,-271,-279,-285,-292,-300,-307,-312,-315,-317,-317,-317,-318,-318,-318,-318,-318,-318,-318,-318,-318,-318,-318,-318,-318,-318,-318,-316,-314,-312]","[0,0,0,0,0,0,0,0,0,0,0,0,0,0,0,0,0,0,0,0,0,0,0,0,0,0,0,0,0,0,0,0,0,0,0,0,0,0,0,0,0,0,0,0,0,0,0,0,0,0,0,0,0,0,0,0,0,0,0,0,0,0,0,0,0,0]","[0,0,0,0,0,0,0,0,0,0,0,0,0,0,0,0,0,0,0,0,0,0,0,0,0,0,0,0,0,0,0,0,0,0,0,0,0,0,0,0,0,0,0,0,0,0,0,0,0,0,0,0,0,0,0,0,0,0,0,0,0,0,0,0,0,0]","[0,0,0,0,0,0,0,0,0,0,0,0,0,0,0,0,0,0,0,0,0,0,0,0,0,0,0,0,0,0,0,0,0,0,0,0,0,0,0,0,0,0,0,0,0,0,0,0,0,0,0,0,0,0,0,0,0,0,0,0,0,0,0,0,0,0]","[0.00019999980925433647,0.01679999995231185,0.030499999999989313,0.047899999856937825,0.06709999990462734,0.08059999990462074,0.09819999980925331,0.11649999999998784,0.13389999985693635,0.14749999999999375,0.16389999985693748,0.1808999998569476,0.19759999990462518,0.21459999990462109,0.23099999999999454,0.248199999809259,0.26639999985694374,0.28069999980925786,0.2998999998569474,0.316799999952309,0.3335000000000008,0.34719999980926275,0.366199999809254,0.38079999995231617,0.3976999998092623,0.41619999980926536,0.4335999999046294,0.4482999999523116,0.4661999998092625,0.48059999990462643,0.49979999995231594,0.5147999999523165,0.5331999998092556,0.5478999998569378,0.5673999998569457,0.5813999998569415,0.6002999999523126,0.6145999999046268,0.6331999998092641,0.6499999999999915,0.6663999998569494,0.6833999998569453,0.7003999998569412,0.7140999999046329,0.7329999999999899,0.7477999999523064,0.7668999998569461,0.7805999999046236,0.7973999998569496,0.8160999999046226,0.8319999999999936,0.8504999999999967,0.8644999999999925,0.8825999999046275,0.8977999999523121,0.9142999999523056,0.931599999904634,0.9505999999046253,0.964199999809253,0.9808999998569448,0.9976999998092566,1.0143999998569484,1.0311999998092602,1.048299999952306,1.0668999998569433,1.083799999952305]",,14,0,14,0,1,PAV-0007,001,2022-09-22_17h43.18.899,GoFitts,2022.1.4,Win32,59.47778505,,,,
,,,,,,,,3,,,,,,,,,,,,,PAV-0007,001,2022-09-22_17h43.18.899,GoFitts,2022.1.4,Win32,59.47778505,3,0,0,1
,,return,0.6178,"[-75,-96]","[-195.62952014676114,-41.58233816355181]",48,400,4,"[-75,-75,-75,-75,-75,-75,-75,-75,-75,-75,-75,-75,-75,-75,-75,-75,-75,-75,-75,-75,-75,-75,-75,-75,-75,-75,-88,-100,-114,-128,-140,-150,-157,-160,-161,-163,-165,-168,-170,-172,-177]","[-96,-96,-96,-96,-96,-96,-96,-96,-96,-96,-96,-96,-96,-96,-96,-96,-96,-96,-96,-96,-96,-96,-96,-96,-96,-96,-92,-89,-88,-85,-81,-76,-73,-72,-72,-70,-68,-64,-61,-60,-52]","[0,0,0,0,0,0,0,0,0,0,0,0,0,0,0,0,0,0,0,0,0,0,0,0,0,0,0,0,0,0,0,0,0,0,0,0,0,0,0,0,0]","[0,0,0,0,0,0,0,0,0,0,0,0,0,0,0,0,0,0,0,0,0,0,0,0,0,0,0,0,0,0,0,0,0,0,0,0,0,0,0,0,0]","[0,0,0,0,0,0,0,0,0,0,0,0,0,0,0,0,0,0,0,0,0,0,0,0,0,0,0,0,0,0,0,0,0,0,0,0,0,0,0,0,0]","[0.00029999995231833054,0.019299999952309577,0.03549999999999898,0.04949999999999477,0.06620000004767235,0.08559999990463041,0.10009999990462859,0.11629999995231799,0.1353999998569435,0.14959999990462336,0.16670000004768326,0.18279999995230867,0.19989999985693885,0.21620000004767803,0.23279999995230582,0.2495999999046319,0.2664999999999935,0.2830999999046213,0.2998999998569474,0.3163999998569409,0.33579999995231447,0.34979999995231026,0.366299999952318,0.38299999999999557,0.39970000004767314,0.4168999998569376,0.4329999999999927,0.45220000004768224,0.4663999998569466,0.4853999998569378,0.5019999999999953,0.5188999998569415,0.5330999999046213,0.5519999999999925,0.5670999999046273,0.5853999998569464,0.600799999952315,0.6199999999999903,0.6355999999046276,0.6502999999523098,0.6685999999046288]",,0,0,0,0,1,PAV-0007,001,2022-09-22_17h43.18.899,GoFitts,2022.1.4,Win32,59.47778505,,,,
