key_resp_4.keys,key_resp_4.rt,mouse_2.x,mouse_2.y,mouse_2.leftButton,mouse_2.midButton,mouse_2.rightButton,mouse_2.time,cont.keys,cont.rt,retry_testing.thisRepN,retry_testing.thisTrialN,retry_testing.thisN,retry_testing.thisIndex,retry_testing.ran,受試者編號,date,expName,psychopyVersion,OS,frameRate,key_resp.keys,key_resp.rt,key_resp_3.keys,key_resp_3.rt,from,to,w,a,sequence_loop.thisN,mouse.x,mouse.y,mouse.leftButton,mouse.midButton,mouse.rightButton,mouse.time,key_resp_2.keys,trial_loop.thisRepN,trial_loop.thisTrialN,trial_loop.thisN,trial_loop.thisIndex,trial_loop.ran,sequence_loop.thisRepN,sequence_loop.thisTrialN,sequence_loop.thisIndex,sequence_loop.ran
return,10.9499,"[115,115,115,115,115,115,115,115,115,115,115,115,115,115,115,115,115,115,115,115,115,115,115,115,115,115,115,115,115,115,115,115,115,115,115,115,115,115,115,115,115,115,115,115,115,115,115,115,122,127,139,165,189,211,233,262,295,326,349,361,365,366,366,366,366,366,367,368,368,368,368,366,363,362,361,361,361,361,361,361,360,360,360,360,360,359,359,359,353,334,302,251,198,147,107,65,39,12,-11,-47,-50,-52,-52,-52,-52,-52,-52,-47,-38,-25,-22,-15,-13,-11,-11,-11,-13,-15,-16,-18,-18,-18,-18,-18,-18,-18,-16,-14,-11,-6,-3,0,1,1,1,1,1,1,1,1,1,1,1,1,1,1,1,1,1,-62,-97,-228,-317,-391,-442,-469,-475,-475,-473,-473,-473,-473,-471,-463,-454,-445,-428,-409,-390,-375,-367,-364,-361,-360,-359,-358,-358,-358,-358,-358,-358,-358,-358,-358,-358,-358,-358,-358,-355,-354,-352,-352,-352,-352,-352,-352,-352,-352,-352,-351,-337,-304,-261,-205,-130,-48,68,112,126,127,127,124,121,115,104,86,62,40,23,14,13,13,23,28,32,34,35,35,35,35,33,24,15]","[-41,-41,-41,-41,-41,-41,-41,-41,-41,-41,-41,-41,-41,-41,-41,-41,-41,-41,-41,-41,-41,-41,-41,-41,-41,-41,-41,-41,-41,-41,-41,-41,-41,-41,-41,-41,-41,-41,-41,-41,-41,-41,-41,-41,-41,-41,-41,-41,-41,-41,-37,-31,-24,-20,-19,-19,-19,-19,-19,-19,-19,-19,-19,-19,-19,-19,-18,-16,-15,-13,-11,-9,-6,-5,-5,-4,-4,-4,-4,-4,-4,-3,-3,-2,-2,-2,-2,-1,3,15,41,85,140,201,256,326,371,426,459,500,505,508,508,508,508,508,508,499,487,471,466,455,450,443,425,410,396,386,378,373,372,371,371,371,371,371,371,371,368,366,363,360,358,357,356,356,356,356,356,356,356,356,356,356,356,356,356,356,356,309,285,187,108,39,-16,-54,-73,-81,-84,-84,-84,-84,-84,-81,-77,-73,-68,-61,-51,-41,-35,-31,-27,-24,-21,-21,-19,-19,-18,-17,-17,-16,-16,-16,-16,-16,-16,-15,-12,-9,-7,-6,-5,-4,-4,-4,-4,-4,-4,-4,-12,-35,-63,-91,-122,-150,-192,-217,-227,-232,-235,-237,-238,-240,-245,-252,-261,-272,-283,-290,-297,-302,-311,-315,-319,-322,-325,-327,-329,-330,-332,-335,-338]","[0,0,0,0,0,0,0,0,0,0,0,0,0,0,0,0,0,0,0,0,0,0,0,0,0,0,0,0,0,0,0,0,0,0,0,0,0,0,0,0,0,0,0,0,0,0,0,0,0,0,0,0,0,0,0,0,0,0,0,0,0,0,0,0,0,0,0,0,0,0,0,0,0,0,0,0,0,0,0,0,0,0,0,0,0,0,0,0,0,0,0,0,0,0,0,0,0,0,0,0,0,0,0,0,0,0,0,0,0,0,0,0,0,0,0,0,0,0,0,0,0,0,0,0,0,0,0,0,0,0,0,0,0,0,0,0,0,0,0,0,0,0,0,0,0,0,0,0,0,0,0,0,0,0,0,0,0,0,0,0,0,0,0,0,0,0,0,0,0,0,0,0,0,0,0,0,0,0,0,0,0,0,0,0,0,0,0,0,0,0,0,0,0,0,0,0,0,0,0,0,0,0,0,0,0,0,0,0,0,0,0,0,0,0,0,0,0,0,0,0,0,0,0,0,0,0,0,0,0,0,0,0,0]","[0,0,0,0,0,0,0,0,0,0,0,0,0,0,0,0,0,0,0,0,0,0,0,0,0,0,0,0,0,0,0,0,0,0,0,0,0,0,0,0,0,0,0,0,0,0,0,0,0,0,0,0,0,0,0,0,0,0,0,0,0,0,0,0,0,0,0,0,0,0,0,0,0,0,0,0,0,0,0,0,0,0,0,0,0,0,0,0,0,0,0,0,0,0,0,0,0,0,0,0,0,0,0,0,0,0,0,0,0,0,0,0,0,0,0,0,0,0,0,0,0,0,0,0,0,0,0,0,0,0,0,0,0,0,0,0,0,0,0,0,0,0,0,0,0,0,0,0,0,0,0,0,0,0,0,0,0,0,0,0,0,0,0,0,0,0,0,0,0,0,0,0,0,0,0,0,0,0,0,0,0,0,0,0,0,0,0,0,0,0,0,0,0,0,0,0,0,0,0,0,0,0,0,0,0,0,0,0,0,0,0,0,0,0,0,0,0,0,0,0,0,0,0,0,0,0,0,0,0,0,0,0,0]","[0,0,0,0,0,0,0,0,0,0,0,0,0,0,0,0,0,0,0,0,0,0,0,0,0,0,0,0,0,0,0,0,0,0,0,0,0,0,0,0,0,0,0,0,0,0,0,0,0,0,0,0,0,0,0,0,0,0,0,0,0,0,0,0,0,0,0,0,0,0,0,0,0,0,0,0,0,0,0,0,0,0,0,0,0,0,0,0,0,0,0,0,0,0,0,0,0,0,0,0,0,0,0,0,0,0,0,0,0,0,0,0,0,0,0,0,0,0,0,0,0,0,0,0,0,0,0,0,0,0,0,0,0,0,0,0,0,0,0,0,0,0,0,0,0,0,0,0,0,0,0,0,0,0,0,0,0,0,0,0,0,0,0,0,0,0,0,0,0,0,0,0,0,0,0,0,0,0,0,0,0,0,0,0,0,0,0,0,0,0,0,0,0,0,0,0,0,0,0,0,0,0,0,0,0,0,0,0,0,0,0,0,0,0,0,0,0,0,0,0,0,0,0,0,0,0,0,0,0,0,0,0,0]","[0.0015000000000000568,0.01140000000002317,0.023200000000066723,0.03820000000006729,0.05630000000004287,0.07390000000002317,0.0904000000000238,0.10540000000002436,0.12180000000004298,0.14000000000000057,0.15480000000004424,0.17170000000006524,0.18949999999999534,0.20690000000001874,0.2220000000000013,0.23860000000009052,0.2568000000000481,0.2737000000000691,0.2886000000000948,0.30630000000004287,0.3233000000000459,0.33830000000004645,0.35580000000004475,0.37349999999999994,0.3886000000000891,0.4054999999999964,0.4236000000000928,0.43880000000004316,0.4553000000000438,0.47330000000004446,0.4888000000000474,0.5054000000000229,0.5219999999999985,0.5387000000000697,0.5566000000000884,0.5722000000000662,0.5898000000000465,0.6052000000000675,0.621900000000025,0.6384000000000185,0.6552000000000646,0.6719000000000221,0.6884999999999977,0.7049000000000234,0.7229000000000241,0.7402000000000655,0.7551000000000911,0.7732000000000667,0.7884000000000242,0.8064000000000249,0.8219999999999956,0.8396000000000896,0.8568000000000424,0.873300000000043,0.8885000000000005,0.9065000000000012,0.9234999999999971,0.9403000000000432,0.9553000000000438,0.9739000000000217,0.9904000000000224,1.0051000000000911,1.0231000000000918,1.0383000000000422,1.0549000000000248,1.0730000000000004,1.0889000000000237,1.1066000000000926,1.123400000000018,1.140400000000021,1.1567000000000647,1.1717000000000652,1.1899999999999977,1.2071000000000893,1.2220000000000013,1.2394999999999996,1.256900000000023,1.2734999999999985,1.2903000000000446,1.3048000000000428,1.3236000000000914,1.338600000000092,1.3566000000000926,1.3723000000000454,1.3901000000000892,1.405900000000024,1.4232000000000653,1.439,1.4563000000000415,1.47210000000009,1.4901000000000906,1.506700000000066,1.522300000000044,1.5401000000000948,1.5557000000000656,1.572499999999998,1.590200000000067,1.6056000000000878,1.6223000000000454,1.6400000000000006,1.6550000000000011,1.671999999999997,1.6899000000000228,1.705100000000094,1.7231000000000947,1.73840000000002,1.7563000000000457,1.7721000000000942,1.7899999999999991,1.8067000000000704,1.8218000000000458,1.8397000000000645,1.8553000000000424,1.8723000000000454,1.8899000000000186,1.9069999999999965,1.9234000000000222,1.938900000000018,1.956700000000069,1.97360000000009,1.98840000000002,2.0071000000000936,2.0234999999999985,2.039999999999999,2.054800000000043,2.071700000000071,2.0904999999999987,2.1069000000000244,2.123400000000018,2.1385000000000005,2.1553000000000466,2.1732000000000653,2.188900000000018,2.2056000000000893,2.2234000000000194,2.2388000000000474,2.2556000000000935,2.2734000000000236,2.2899000000000242,2.30690000000002,2.323400000000021,2.338600000000092,2.3553000000000424,2.371900000000025,2.388800000000046,2.4054999999999964,2.4222000000000676,2.4387000000000683,2.4554000000000187,2.4734000000000194,2.4889000000000223,2.5064000000000206,2.522200000000069,2.5403000000000446,2.5559000000000225,2.5726000000000937,2.5897000000000645,2.605600000000088,2.6229000000000227,2.6385000000000005,2.6551000000000897,2.6716000000000903,2.689800000000048,2.706700000000069,2.7219000000000193,2.73820000000007,2.7556000000000935,2.7732000000000667,2.788600000000095,2.80690000000002,2.823300000000046,2.8384999999999962,2.8553000000000424,2.872,2.889600000000094,2.9051000000000897,2.921900000000022,2.939700000000066,2.956700000000069,2.972900000000024,2.9901000000000906,3.006999999999998,3.0218000000000416,3.0382000000000673,3.0549999999999997,3.071700000000071,3.0883000000000465,3.106499999999997,3.121600000000093,3.138800000000046,3.1554000000000215,3.1724000000000245,3.188900000000018,3.206600000000094,3.22210000000009,3.23840000000002,3.255499999999998,3.2719000000000236,3.289999999999999,3.3056000000000907,3.321600000000089,3.340100000000092,3.3568000000000424,3.373400000000018,3.3899000000000186,3.4054999999999964,3.423499999999997,3.4406000000000887,3.456600000000094,3.4720000000000013,3.4902000000000655,3.505499999999998,3.522999999999996,3.53910000000009,3.556300000000043,3.573300000000046,3.590400000000024,3.6051000000000926,3.6229999999999976,3.638900000000021,3.6551000000000897,3.671900000000022,3.689700000000066,3.7057000000000713,3.72210000000009,3.739800000000045,3.7557000000000684,3.773100000000092,3.7887000000000697,3.8052000000000703,3.8221000000000913,3.840100000000092,3.85720000000007]",return,9.3574,0,0,0,0,1,PAV-9988,2022-11-01_16h07.14.844,GoFitts,2022.1.4,Win32,60.24822268,,,,,,,,,,,,,,,,,,,,,,,,,
,,,,,,,,,,,,,,,PAV-9988,2022-11-01_16h07.14.844,GoFitts,2022.1.4,Win32,60.24822268,return,2.0383,return,1.868,"[105,299]","[96.56781074217108,297.2051613422355]",25.5,625,0,"[105,105,105,105,105,105,105,105,105,105,105,105,105,105,105,105,105,105,105,105,105,104]","[299,299,299,299,299,299,299,299,299,299,299,299,299,299,299,299,299,299,299,299,299,299]","[0,0,0,0,0,0,0,0,0,0,0,0,0,0,0,0,0,0,0,0,0,0]","[0,0,0,0,0,0,0,0,0,0,0,0,0,0,0,0,0,0,0,0,0,0]","[0,0,0,0,0,0,0,0,0,0,0,0,0,0,0,0,0,0,0,0,0,0]","[0.0013000000000431555,0.017000000000003013,0.031999999999996476,0.04880000000004969,0.0659000000000205,0.08440000000002357,0.09949999999999903,0.11730000000004992,0.13400000000000034,0.1491000000000895,0.16550000000000153,0.1839000000000226,0.19910000000009376,0.21699999999999875,0.2324000000000197,0.24910000000009092,0.26599999999999824,0.28230000000004907,0.2992000000000701,0.3159000000000205,0.3327000000000666,0.3507000000000673]",,0,0,0,0,1,,,,
,,,,,,,,,,,,,,,PAV-9988,2022-11-01_16h07.14.844,GoFitts,2022.1.4,Win32,60.24822268,,,,,"[96.56781074217108,297.2051613422355]","[-32.66514477114195,-310.7880923025854]",25.5,625,0,"[104,102,100,93,89,88,88,88,88,88,88,88,88,88,88,88,89,89,90,92,95,96,97,98,98,99,100,100,100,100,100,100,99,87,74,66,56,48,43,38,34,22,15,2,-4,-6,-8,-8,-8,-8,-13,-25]","[299,299,299,299,299,299,299,299,299,299,299,299,299,299,299,299,299,299,299,299,299,299,299,299,299,299,299,299,299,299,299,299,299,283,247,205,144,82,10,-92,-126,-212,-232,-269,-282,-288,-291,-292,-292,-292,-297,-303]","[0,0,0,0,0,0,0,0,0,0,0,0,0,0,0,0,0,0,0,0,0,0,0,0,0,0,0,0,0,0,0,0,0,0,0,0,0,0,0,0,0,0,0,0,0,0,0,0,0,0,0,0]","[0,0,0,0,0,0,0,0,0,0,0,0,0,0,0,0,0,0,0,0,0,0,0,0,0,0,0,0,0,0,0,0,0,0,0,0,0,0,0,0,0,0,0,0,0,0,0,0,0,0,0,0]","[0,0,0,0,0,0,0,0,0,0,0,0,0,0,0,0,0,0,0,0,0,0,0,0,0,0,0,0,0,0,0,0,0,0,0,0,0,0,0,0,0,0,0,0,0,0,0,0,0,0,0,0]","[0.00019999999995690132,0.015800000000048442,0.032699999999955764,0.04790000000002692,0.06450000000000244,0.08299999999999841,0.09759999999997859,0.11419999999995412,0.13069999999995474,0.14759999999997575,0.16550000000000153,0.18269999999995434,0.19909999999998007,0.21580000000005128,0.23069999999995616,0.24900000000000233,0.26609999999998024,0.2809999999999988,0.2988000000000497,0.31440000000002755,0.33219999999995764,0.3475000000000037,0.3655999999999793,0.3825999999999752,0.3993000000000464,0.41450000000000387,0.43200000000000216,0.4473000000000482,0.46419999999995554,0.48080000000005185,0.49759999999997717,0.5155999999999779,0.5310999999999808,0.5476999999999563,0.5640999999999821,0.5809000000000282,0.5993000000000492,0.615000000000002,0.6325000000000003,0.6496999999999531,0.6660000000000039,0.6826999999999543,0.6976999999999549,0.7160000000000011,0.7311999999999585,0.7490000000000023,0.7663000000000508,0.7814000000000263,0.7990999999999815,0.8145999999999773,0.832599999999978,0.8490999999999786]",,1,0,1,0,1,,,,
,,,,,,,,,,,,,,,PAV-9988,2022-11-01_16h07.14.844,GoFitts,2022.1.4,Win32,60.24822268,,,,,"[-32.66514477114195,-310.7880923025854]","[-32.66514477114167,310.7880923025854]",25.5,625,0,"[-25,-27,-28,-28,-28,-28,-28,-28,-28,-28,-28,-28,-28,-28,-28,-28,-28,-28,-28,-28,-28,-28,-28,-28,-31,-32,-40,-49,-62,-83,-106,-119,-128,-131,-133,-133,-133,-133,-133,-133,-133,-133,-132,-126,-121,-115,-104,-85,-56,-47,-31,-18,-8,-5,-5,-5,-5,-5,-5,-5,-5,-5,-5,-6,-6,-7,-7,-7,-8,-9,-11,-14,-21,-27]","[-303,-303,-303,-303,-303,-303,-303,-303,-303,-303,-303,-303,-303,-303,-303,-303,-303,-303,-303,-303,-303,-303,-303,-294,-269,-233,-146,-75,14,113,212,297,362,395,412,416,417,417,417,417,417,417,417,417,417,417,408,392,369,362,349,337,331,328,328,327,327,326,326,326,325,325,325,325,325,325,325,324,323,322,320,318,316,315]","[0,0,0,0,0,0,0,0,0,0,0,0,0,0,0,0,0,0,0,0,0,0,0,0,0,0,0,0,0,0,0,0,0,0,0,0,0,0,0,0,0,0,0,0,0,0,0,0,0,0,0,0,0,0,0,0,0,0,0,0,0,0,0,0,0,0,0,0,0,0,0,0,0,0]","[0,0,0,0,0,0,0,0,0,0,0,0,0,0,0,0,0,0,0,0,0,0,0,0,0,0,0,0,0,0,0,0,0,0,0,0,0,0,0,0,0,0,0,0,0,0,0,0,0,0,0,0,0,0,0,0,0,0,0,0,0,0,0,0,0,0,0,0,0,0,0,0,0,0]","[0,0,0,0,0,0,0,0,0,0,0,0,0,0,0,0,0,0,0,0,0,0,0,0,0,0,0,0,0,0,0,0,0,0,0,0,0,0,0,0,0,0,0,0,0,0,0,0,0,0,0,0,0,0,0,0,0,0,0,0,0,0,0,0,0,0,0,0,0,0,0,0,0,0]","[0.0003999999999066972,0.016500000000000625,0.03169999999995099,0.049399999999906186,0.06529999999992953,0.08219999999995053,0.09959999999997393,0.11519999999995179,0.1317999999999273,0.14859999999997342,0.16539999999990584,0.18179999999993157,0.1982999999999322,0.2149999999999963,0.2332999999999288,0.24819999999995446,0.26500000000000057,0.28269999999995576,0.2982999999999265,0.31469999999995224,0.3333999999999051,0.34969999999995593,0.3648999999999063,0.3817999999999273,0.3993999999999076,0.41509999999997405,0.4330999999999747,0.44979999999993225,0.4646999999999508,0.48149999999999693,0.49849999999999994,0.5165000000000006,0.5317999999999259,0.5485999999999791,0.5663999999999092,0.581899999999905,0.5985999999999763,0.6147999999999314,0.6330999999999776,0.6498999999999029,0.6660999999999788,0.6814999999999998,0.6984999999999957,0.7152999999999281,0.7333999999999037,0.75,0.7654999999999959,0.7838999999999032,0.7999999999999972,0.8153999999999044,0.8321999999999505,0.8487999999999261,0.8653999999999087,0.8821999999999548,0.8996999999999531,0.9156999999999513,0.9327999999999292,0.9487999999999275,0.966099999999976,0.9817999999999287,0.9991999999999521,1.0166999999999504,1.0319999999999965,1.0495999999999768,1.0652999999999295,1.082699999999953,1.0992999999999284,1.1156999999999542,1.1322999999999297,1.1494999999999962,1.166699999999956,1.183899999999909,1.2002999999999275,1.2150999999999783]",,2,0,2,0,1,,,,
,,,,,,,,,,,,,,,PAV-9988,2022-11-01_16h07.14.844,GoFitts,2022.1.4,Win32,60.24822268,,,,,"[-32.66514477114167,310.7880923025854]","[96.567810742171,-297.2051613422355]",25.5,625,0,"[-27,-32,-32,-33,-33,-33,-33,-33,-33,-33,-33,-33,-33,-33,-33,-33,-33,-33,-33,-33,-33,-29,-21,-9,9,39,53,67,80,91,102,110,114,115,115,115,115,115,115,115,115,114,112,106,102,96,90,86,85,84,84,84,84,84,84,84,84,84,84,84,84,84,84,84,84,85,86]","[315,314,314,314,314,314,314,314,314,314,314,314,314,314,314,314,314,314,314,314,314,305,285,251,198,90,5,-84,-182,-274,-342,-384,-400,-402,-402,-402,-401,-398,-397,-396,-395,-395,-392,-383,-371,-358,-343,-329,-313,-311,-306,-304,-303,-303,-303,-303,-303,-303,-303,-303,-303,-303,-303,-303,-303,-303,-303]","[0,0,0,0,0,0,0,0,0,0,0,0,0,0,0,0,0,0,0,0,0,0,0,0,0,0,0,0,0,0,0,0,0,0,0,0,0,0,0,0,0,0,0,0,0,0,0,0,0,0,0,0,0,0,0,0,0,0,0,0,0,0,0,0,0,0,0]","[0,0,0,0,0,0,0,0,0,0,0,0,0,0,0,0,0,0,0,0,0,0,0,0,0,0,0,0,0,0,0,0,0,0,0,0,0,0,0,0,0,0,0,0,0,0,0,0,0,0,0,0,0,0,0,0,0,0,0,0,0,0,0,0,0,0,0]","[0,0,0,0,0,0,0,0,0,0,0,0,0,0,0,0,0,0,0,0,0,0,0,0,0,0,0,0,0,0,0,0,0,0,0,0,0,0,0,0,0,0,0,0,0,0,0,0,0,0,0,0,0,0,0,0,0,0,0,0,0,0,0,0,0,0,0]","[0.0006999999999521833,0.01719999999995281,0.03269999999994866,0.04899999999999949,0.06759999999997035,0.08240000000002112,0.09909999999997154,0.11590000000001766,0.13299999999999557,0.1489999999999938,0.16599999999999682,0.18259999999997234,0.20030000000004122,0.21730000000004424,0.23399999999999466,0.24909999999997723,0.26590000000002334,0.28249999999999886,0.2991999999999493,0.3159000000000205,0.332499999999996,0.34949999999999903,0.36640000000002004,0.38390000000001834,0.3995999999999711,0.4171999999999514,0.4344999999999999,0.44930000000004355,0.46740000000001913,0.4824999999999946,0.5005999999999702,0.5174999999999983,0.5339000000000169,0.5494999999999948,0.5670000000000002,0.5828000000000415,0.5996999999999488,0.6171999999999471,0.6334000000000231,0.6494000000000213,0.6663000000000423,0.6830999999999747,0.700599999999973,0.7159000000000191,0.7343000000000401,0.7506999999999522,0.7663000000000437,0.7836999999999534,0.8014000000000223,0.8160999999999703,0.8344000000000236,0.8513000000000446,0.8676999999999495,0.8828000000000458,0.8994000000000213,0.9163000000000423,0.9329999999999998,0.9495000000000005,0.9659000000000191,0.9826999999999515,0.9993000000000407,1.0159000000000233,1.032300000000042,1.0491999999999493,1.0661999999999523,1.0828000000000415,1.1006999999999536]",,3,0,3,0,1,,,,
,,,,,,,,,,,,,,,PAV-9988,2022-11-01_16h07.14.844,GoFitts,2022.1.4,Win32,60.24822268,,,,,"[96.567810742171,-297.2051613422355]","[-156.24999999999994,270.6329386826371]",25.5,625,0,"[86,86,86,86,86,86,86,86,87,88,89,89,90,90,90,90,90,90,90,90,90,80,63,40,11,-19,-45,-69,-94,-114,-130,-145,-149,-150,-151,-152,-152,-152,-152,-152,-152,-152,-152,-152,-152,-152,-151,-150]","[-303,-303,-303,-303,-303,-303,-303,-303,-303,-303,-303,-303,-303,-303,-303,-302,-302,-302,-302,-294,-287,-247,-197,-138,-66,12,79,143,197,233,260,280,283,284,285,286,286,286,286,286,286,286,286,286,286,286,284,280]","[0,0,0,0,0,0,0,0,0,0,0,0,0,0,0,0,0,0,0,0,0,0,0,0,0,0,0,0,0,0,0,0,0,0,0,0,0,0,0,0,0,0,0,0,0,0,0,0]","[0,0,0,0,0,0,0,0,0,0,0,0,0,0,0,0,0,0,0,0,0,0,0,0,0,0,0,0,0,0,0,0,0,0,0,0,0,0,0,0,0,0,0,0,0,0,0,0]","[0,0,0,0,0,0,0,0,0,0,0,0,0,0,0,0,0,0,0,0,0,0,0,0,0,0,0,0,0,0,0,0,0,0,0,0,0,0,0,0,0,0,0,0,0,0,0,0]","[0.0003000000000454861,0.016500000000000625,0.03159999999997609,0.047999999999994714,0.06480000000004793,0.08140000000002345,0.09809999999997387,0.11499999999999488,0.131800000000041,0.14830000000004162,0.1669000000000196,0.18309999999997473,0.19830000000004588,0.21459999999997592,0.23330000000004247,0.24969999999995451,0.26490000000001857,0.2815000000000012,0.29969999999995167,0.3164000000000229,0.33159999999997325,0.34959999999997393,0.365000000000002,0.38280000000003866,0.3984000000000165,0.41519999999994894,0.43199999999999505,0.44880000000004117,0.46650000000000347,0.4820999999999813,0.49890000000002743,0.5169000000000281,0.5331999999999582,0.5488000000000497,0.565499999999993,0.5821999999999505,0.5984000000000194,0.6150999999999769,0.6319999999999979,0.6484000000000165,0.6654000000000266,0.68209999999997,0.6985000000000028,0.7153000000000489,0.7319000000000173,0.748400000000025,0.7654999999999959,0.7829999999999941]",,4,0,4,0,1,,,,
,,,,,,,,,,,,,,,PAV-9988,2022-11-01_16h07.14.844,GoFitts,2022.1.4,Win32,60.24822268,,,,,"[-156.24999999999994,270.6329386826371]","[209.10331448714328,-232.23275796168562]",25.5,625,0,"[-150,-149,-148,-148,-148,-148,-148,-148,-148,-148,-147,-146,-146,-146,-145,-145,-145,-142,-134,-128,-121,-115,-83,-45,7,64,118,163,195,215]","[280,280,279,279,279,279,279,279,279,279,279,279,279,279,279,279,278,278,276,273,263,253,186,115,31,-50,-119,-175,-212,-237]","[0,0,0,0,0,0,0,0,0,0,0,0,0,0,0,0,0,0,0,0,0,0,0,0,0,0,0,0,0,0]","[0,0,0,0,0,0,0,0,0,0,0,0,0,0,0,0,0,0,0,0,0,0,0,0,0,0,0,0,0,0]","[0,0,0,0,0,0,0,0,0,0,0,0,0,0,0,0,0,0,0,0,0,0,0,0,0,0,0,0,0,0]","[0.00030000000005259153,0.016400000000032833,0.03180000000004668,0.049000000000006594,0.06499999999999773,0.08140000000003056,0.09780000000004918,0.1145999999999816,0.13100000000000023,0.14780000000004634,0.16470000000006735,0.18159999999997467,0.19920000000007576,0.21480000000005361,0.23140000000002203,0.24780000000005487,0.2647000000000759,0.28259999999997376,0.29980000000004736,0.3165999999999798,0.3329999999999984,0.34820000000007667,0.36580000000004986,0.38340000000002306,0.39790000000002124,0.41470000000006735,0.43259999999997945,0.4480000000000075,0.46649999999999636,0.48140000000002203]",,5,0,5,0,1,,,,
,,,,,,,,,,,,,,,PAV-9988,2022-11-01_16h07.14.844,GoFitts,2022.1.4,Win32,60.24822268,,,,,"[209.10331448714328,-232.23275796168562]","[-252.81781074217105,183.6828913413979]",25.5,625,0,"[215,224,230,231,231,231,231,231,231,231,231,231,231,230,226,220,211,203,202,199,199,199,199,199,199,199,199,199,199,199,199,199,199,199,199,199,194,179,160,116,21,-47,-106,-147,-170,-188,-202,-212,-223,-233,-235,-240,-243,-244,-244,-245,-245,-245,-245,-245,-245,-245,-245,-245,-246,-246,-246,-246,-246,-246,-246,-246,-246,-246,-246,-246,-246,-246,-246,-246,-246,-246,-246,-246,-246,-246,-247]","[-237,-247,-252,-252,-252,-252,-252,-252,-252,-252,-252,-252,-252,-249,-246,-241,-234,-228,-227,-224,-224,-223,-223,-223,-223,-223,-223,-223,-223,-223,-223,-223,-223,-223,-223,-223,-216,-203,-187,-158,-91,-43,3,43,74,99,116,129,138,145,147,151,154,155,156,158,159,161,162,162,163,164,167,169,171,172,172,172,172,172,172,172,172,172,172,172,172,172,172,172,172,172,172,172,172,172,174]","[0,0,0,0,0,0,0,0,0,0,0,0,0,0,0,0,0,0,0,0,0,0,0,0,0,0,0,0,0,0,0,0,0,0,0,0,0,0,0,0,0,0,0,0,0,0,0,0,0,0,0,0,0,0,0,0,0,0,0,0,0,0,0,0,0,0,0,0,0,0,0,0,0,0,0,0,0,0,0,0,0,0,0,0,0,0,0]","[0,0,0,0,0,0,0,0,0,0,0,0,0,0,0,0,0,0,0,0,0,0,0,0,0,0,0,0,0,0,0,0,0,0,0,0,0,0,0,0,0,0,0,0,0,0,0,0,0,0,0,0,0,0,0,0,0,0,0,0,0,0,0,0,0,0,0,0,0,0,0,0,0,0,0,0,0,0,0,0,0,0,0,0,0,0,0]","[0,0,0,0,0,0,0,0,0,0,0,0,0,0,0,0,0,0,0,0,0,0,0,0,0,0,0,0,0,0,0,0,0,0,0,0,0,0,0,0,0,0,0,0,0,0,0,0,0,0,0,0,0,0,0,0,0,0,0,0,0,0,0,0,0,0,0,0,0,0,0,0,0,0,0,0,0,0,0,0,0,0,0,0,0,0,0]","[0.00029999999992469384,0.017899999999912097,0.03309999999997615,0.05079999999992424,0.06789999999990926,0.08269999999994582,0.09959999999998104,0.11779999999993152,0.13309999999997046,0.15089999999990766,0.16609999999997171,0.18299999999999272,0.19989999999990005,0.21709999999997365,0.23459999999997194,0.2503999999998996,0.2675999999999732,0.28319999999995105,0.29999999999999716,0.31799999999999784,0.3333999999999122,0.3501999999999583,0.36669999999995184,0.38329999999993447,0.3998999999999029,0.4165999999999741,0.4345999999999748,0.44979999999992515,0.46649999999999636,0.4831999999999539,0.5,0.5166999999999575,0.5335000000000036,0.5498999999999086,0.5665999999999798,0.5830999999999733,0.6002999999999332,0.6175999999999817,0.6343999999998999,0.6498999999999029,0.6677999999999287,0.6827999999999292,0.7007999999999299,0.716199999999958,0.7340999999999696,0.7496999999999474,0.7676999999999481,0.784899999999908,0.8015999999999792,0.8176999999999452,0.8328999999999098,0.851099999999974,0.8678999999999064,0.8830999999999705,0.9012999999999352,0.9159999999999968,0.9329999999999927,0.9516999999999456,0.9678999999999007,0.9827999999999264,1,1.0160999999999802,1.0342999999999307,1.0512999999999266,1.0677999999999344,1.0846999999999554,1.0993999999999033,1.1162999999999244,1.132899999999907,1.1493999999999005,1.1661999999999466,1.1830999999999818,1.2010999999999683,1.2165999999999713,1.233099999999979,1.2498999999999114,1.2664999999999935,1.283299999999926,1.300099999999972,1.3165999999999798,1.3331999999999482,1.3498999999999057,1.366599999999977,1.3831999999999454,1.3999999999999915,1.416699999999949,1.43359999999997]",,6,0,6,0,1,,,,
,,,,,,,,,,,,,,,PAV-9988,2022-11-01_16h07.14.844,GoFitts,2022.1.4,Win32,60.24822268,,,,,"[-252.81781074217105,183.6828913413979]","[285.4829555133128,-127.10520096118755]",25.5,625,0,"[-247,-251,-253,-254,-255,-255,-255,-255,-255,-255,-255,-255,-255,-255,-255,-255,-245,-235,-216,-173,-110,-27,68,151,226,299,311,330,334,336,336,336,336,336,336,336,336,335,328,320,312,306,300,298,298,298,297,297,296]","[174,179,180,182,182,182,182,182,182,182,182,182,182,182,182,182,182,182,181,174,164,146,117,83,42,-16,-33,-69,-85,-97,-103,-104,-105,-105,-105,-105,-105,-105,-105,-105,-108,-111,-114,-116,-117,-118,-119,-119,-120]","[0,0,0,0,0,0,0,0,0,0,0,0,0,0,0,0,0,0,0,0,0,0,0,0,0,0,0,0,0,0,0,0,0,0,0,0,0,0,0,0,0,0,0,0,0,0,0,0,0]","[0,0,0,0,0,0,0,0,0,0,0,0,0,0,0,0,0,0,0,0,0,0,0,0,0,0,0,0,0,0,0,0,0,0,0,0,0,0,0,0,0,0,0,0,0,0,0,0,0]","[0,0,0,0,0,0,0,0,0,0,0,0,0,0,0,0,0,0,0,0,0,0,0,0,0,0,0,0,0,0,0,0,0,0,0,0,0,0,0,0,0,0,0,0,0,0,0,0,0]","[0.0005999999999772854,0.01690000000003522,0.032800000000051455,0.05020000000007485,0.06720000000007076,0.08240000000003533,0.09890000000002885,0.11570000000007497,0.1323000000000576,0.148900000000026,0.16550000000000864,0.18200000000000216,0.19870000000007337,0.2152000000000811,0.23180000000004952,0.24840000000003215,0.26550000000000296,0.2839000000000311,0.2990000000000066,0.31720000000007076,0.3338000000000534,0.34880000000005396,0.36670000000007974,0.382000000000005,0.3990000000000009,0.4165999999999883,0.43250000000000455,0.44990000000002794,0.4655999999999807,0.4833000000000567,0.49859999999998195,0.5172000000000736,0.5338000000000562,0.5485000000000042,0.5654000000000252,0.5820999999999827,0.5985999999999763,0.6159000000000248,0.6323000000000576,0.6505000000000081,0.6655000000000086,0.6820000000000022,0.7010999999999825,0.7174000000000262,0.73370000000007,0.7489000000000345,0.7660999999999802,0.7835000000000036,0.8004999999999995]",,7,0,7,0,1,,,,
,,,,,,,,,,,,,,,PAV-9988,2022-11-01_16h07.14.844,GoFitts,2022.1.4,Win32,60.24822268,,,,,"[285.4829555133128,-127.10520096118755]","[-305.67112522931427,64.97240338054979]",25.5,625,0,"[296,296,296,296,296,296,296,295,294,290,286,284,279,275,272,262,233,200,151,93,23,-64,-123,-156,-182,-207,-231,-263,-283,-303,-321,-327,-328,-328,-328,-328,-328,-326,-319,-314,-310]","[-120,-120,-120,-120,-120,-120,-120,-120,-120,-121,-122,-122,-122,-121,-121,-114,-93,-68,-37,-4,26,53,64,68,68,67,61,53,49,47,46,46,46,46,46,46,48,48,51,53,54]","[0,0,0,0,0,0,0,0,0,0,0,0,0,0,0,0,0,0,0,0,0,0,0,0,0,0,0,0,0,0,0,0,0,0,0,0,0,0,0,0,0]","[0,0,0,0,0,0,0,0,0,0,0,0,0,0,0,0,0,0,0,0,0,0,0,0,0,0,0,0,0,0,0,0,0,0,0,0,0,0,0,0,0]","[0,0,0,0,0,0,0,0,0,0,0,0,0,0,0,0,0,0,0,0,0,0,0,0,0,0,0,0,0,0,0,0,0,0,0,0,0,0,0,0,0]","[0.00030000000005259153,0.016400000000032833,0.0313000000000585,0.04760000000010223,0.06430000000005975,0.08120000000008076,0.09910000000009234,0.1148000000000593,0.13140000000002772,0.14840000000002362,0.16550000000000864,0.18170000000007747,0.19860000000009848,0.21570000000006928,0.23140000000003624,0.24810000000009325,0.26580000000005555,0.2815000000000083,0.2983000000000544,0.31490000000002283,0.3331000000001012,0.3497000000000696,0.3645000000000067,0.3822000000000827,0.39810000000009893,0.4140000000000015,0.4312000000000751,0.4475000000000051,0.4643000000000512,0.4828000000000543,0.49900000000000944,0.5145000000000124,0.5321000000000993,0.5474999999999994,0.5641000000000957,0.5820000000000078,0.5989000000000289,0.6145000000000067,0.6321000000000936,0.6491000000001037,0.6642000000000792]",,8,0,8,0,1,,,,
,,,,,,,,,,,,,,,PAV-9988,2022-11-01_16h07.14.844,GoFitts,2022.1.4,Win32,60.24822268,,,,,"[-305.67112522931427,64.97240338054979]","[312.5,0]",25.5,625,0,"[-310,-309,-308,-308,-308,-308,-308,-308,-308,-308,-308,-308,-308,-308,-308,-308,-308,-300,-282,-232,-177,-104,-70,-11,66,118,163,191,206,216,225,234,240,243,245,248,253,256,261,264,270,275,283,289,294,296,296,297,298,298,298,298,298,298,298,298,300,304]","[54,56,57,57,57,57,57,57,57,57,57,57,57,57,57,57,57,57,58,67,75,85,91,95,97,96,89,82,75,67,59,50,46,43,42,40,37,35,32,30,28,25,21,19,17,17,17,17,17,17,17,17,17,17,17,16,11,2]","[0,0,0,0,0,0,0,0,0,0,0,0,0,0,0,0,0,0,0,0,0,0,0,0,0,0,0,0,0,0,0,0,0,0,0,0,0,0,0,0,0,0,0,0,0,0,0,0,0,0,0,0,0,0,0,0,0,0]","[0,0,0,0,0,0,0,0,0,0,0,0,0,0,0,0,0,0,0,0,0,0,0,0,0,0,0,0,0,0,0,0,0,0,0,0,0,0,0,0,0,0,0,0,0,0,0,0,0,0,0,0,0,0,0,0,0,0]","[0,0,0,0,0,0,0,0,0,0,0,0,0,0,0,0,0,0,0,0,0,0,0,0,0,0,0,0,0,0,0,0,0,0,0,0,0,0,0,0,0,0,0,0,0,0,0,0,0,0,0,0,0,0,0,0,0,0]","[0.00020000000007769358,0.01770000000007599,0.03340000000002874,0.04980000000004736,0.06650000000000489,0.0831000000001012,0.10099999999999909,0.11840000000002249,0.1355000000000075,0.15130000000004884,0.1661000000000996,0.1844999999999999,0.19970000000007815,0.21780000000005373,0.2326000000000903,0.25150000000000716,0.2682000000000784,0.28330000000005384,0.30040000000002465,0.31790000000002294,0.33500000000000796,0.35160000000009006,0.36670000000006553,0.38370000000007565,0.40130000000004884,0.41810000000009495,0.4336000000000979,0.4510000000000076,0.46699999999999875,0.48449999999999704,0.5001000000000886,0.5181000000000893,0.5349999999999966,0.5515000000000043,0.5671000000000959,0.583300000000051,0.6014000000000266,0.6169000000000295,0.6348000000000553,0.6503000000000441,0.6667000000000769,0.6837000000000728,0.7003000000000554,0.7167000000000741,0.7336000000000951,0.75,0.7663000000000437,0.7848000000000468,0.8014000000000294,0.8179999999999978,0.8329000000000235,0.8497000000000696,0.866500000000002,0.8829999999999956,0.9009999999999962,0.9169000000000267,0.9335000000000093,0.9510000000000076]",,9,0,9,0,1,,,,
,,,,,,,,,,,,,,,PAV-9988,2022-11-01_16h07.14.844,GoFitts,2022.1.4,Win32,60.24822268,,,,,"[312.5,0]","[-305.67112522931427,-64.97240338054971]",25.5,625,0,"[304,307,308,309,309,309,309,309,309,309,309,309,309,309,305,289,246,176,77,-13,-82,-127,-154,-163,-166,-174,-188,-217,-242,-260,-264,-265,-265,-265,-265,-265,-266,-267,-274,-280,-287,-295]","[2,-4,-6,-7,-7,-7,-7,-7,-7,-7,-7,-7,-7,-7,-7,-7,-12,-20,-29,-42,-54,-63,-69,-71,-71,-71,-70,-64,-61,-59,-58,-58,-58,-57,-57,-57,-57,-57,-57,-58,-59,-60]","[0,0,0,0,0,0,0,0,0,0,0,0,0,0,0,0,0,0,0,0,0,0,0,0,0,0,0,0,0,0,0,0,0,0,0,0,0,0,0,0,0,0]","[0,0,0,0,0,0,0,0,0,0,0,0,0,0,0,0,0,0,0,0,0,0,0,0,0,0,0,0,0,0,0,0,0,0,0,0,0,0,0,0,0,0]","[0,0,0,0,0,0,0,0,0,0,0,0,0,0,0,0,0,0,0,0,0,0,0,0,0,0,0,0,0,0,0,0,0,0,0,0,0,0,0,0,0,0]","[0.00009999999997489795,0.017499999999998295,0.031699999999958095,0.050499999999999545,0.06700000000000728,0.08200000000000784,0.09840000000002647,0.11640000000002715,0.1319000000000301,0.14840000000002362,0.16509999999998115,0.18190000000002726,0.19849999999999568,0.2150000000000034,0.23190000000002442,0.2497999999999294,0.26509999999996836,0.28319999999994394,0.2987999999999218,0.3154000000000181,0.33209999999997564,0.34890000000002175,0.36659999999996984,0.38340000000001595,0.3989000000000189,0.41569999999995133,0.43249999999999744,0.44990000000002084,0.4657999999999234,0.4824999999999946,0.4991999999999521,0.5156999999999456,0.5321999999999534,0.5492999999999242,0.5666999999999476,0.5822999999999254,0.5992999999999213,0.6165999999999698,0.6334999999999908,0.6500999999999735,0.6652999999999238,0.6824999999999974]",,10,0,10,0,1,,,,
,,,,,,,,,,,,,,,PAV-9988,2022-11-01_16h07.14.844,GoFitts,2022.1.4,Win32,60.24822268,,,,,"[-305.67112522931427,-64.97240338054971]","[285.4829555133128,127.10520096118755]",25.5,625,0,"[-295,-308,-319,-330,-337,-338,-339,-339,-339,-339,-339,-339,-339,-339,-339,-339,-337,-335,-333,-332,-331,-329,-320,-296,-248,-180,-99,-7,84,167,258,275,303,309,312,315,317,322,329,338,349,351,349,346,331,320,307,298,290]","[-60,-61,-61,-61,-61,-61,-61,-61,-61,-61,-61,-61,-61,-61,-61,-61,-61,-61,-61,-61,-61,-61,-58,-48,-27,3,41,82,120,155,187,192,200,201,201,201,201,202,203,203,203,203,199,196,179,167,154,144,135]","[0,0,0,0,0,0,0,0,0,0,0,0,0,0,0,0,0,0,0,0,0,0,0,0,0,0,0,0,0,0,0,0,0,0,0,0,0,0,0,0,0,0,0,0,0,0,0,0,0]","[0,0,0,0,0,0,0,0,0,0,0,0,0,0,0,0,0,0,0,0,0,0,0,0,0,0,0,0,0,0,0,0,0,0,0,0,0,0,0,0,0,0,0,0,0,0,0,0,0]","[0,0,0,0,0,0,0,0,0,0,0,0,0,0,0,0,0,0,0,0,0,0,0,0,0,0,0,0,0,0,0,0,0,0,0,0,0,0,0,0,0,0,0,0,0,0,0,0,0]","[0.00030000000005259153,0.016999999999995907,0.032800000000051455,0.04990000000002226,0.06630000000005509,0.08270000000007371,0.1004000000000218,0.11570000000007497,0.13240000000001828,0.15030000000004407,0.16580000000004702,0.1839000000000226,0.19920000000007576,0.21580000000004418,0.2324000000000268,0.24920000000007292,0.26610000000009393,0.28270000000007656,0.30040000000002465,0.3161000000000911,0.33410000000009177,0.34940000000003124,0.3673000000000428,0.38280000000004577,0.40040000000001896,0.4157000000000721,0.43280000000004293,0.44910000000010086,0.46610000000009677,0.4827000000000652,0.5004000000000275,0.5159000000000304,0.532400000000024,0.5492000000000701,0.5671000000000959,0.5827000000000737,0.5993000000000421,0.6170000000000044,0.6327000000000709,0.6508000000000465,0.6664999999999992,0.6832000000000704,0.7006000000000938,0.7164999999999964,0.7343000000000472,0.7511000000000934,0.7673000000000485,0.7843000000000444,0.7992000000000701]",,11,0,11,0,1,,,,
,,,,,,,,,,,,,,,PAV-9988,2022-11-01_16h07.14.844,GoFitts,2022.1.4,Win32,60.24822268,,,,,"[285.4829555133128,127.10520096118755]","[-252.81781074217108,-183.68289134139783]",25.5,625,0,"[290,286,286,286,286,286,286,286,286,286,286,286,286,286,286,286,286,286,286,285,252,98,-30,-153,-264,-355,-406,-423,-424,-422,-416,-411,-408,-400,-393,-378,-358,-332,-303,-279,-262]","[135,133,132,132,132,132,132,132,132,132,132,132,132,132,132,132,132,132,132,132,123,77,31,-15,-66,-119,-159,-184,-200,-209,-215,-218,-220,-221,-221,-220,-215,-210,-203,-196,-191]","[0,0,0,0,0,0,0,0,0,0,0,0,0,0,0,0,0,0,0,0,0,0,0,0,0,0,0,0,0,0,0,0,0,0,0,0,0,0,0,0,0]","[0,0,0,0,0,0,0,0,0,0,0,0,0,0,0,0,0,0,0,0,0,0,0,0,0,0,0,0,0,0,0,0,0,0,0,0,0,0,0,0,0]","[0,0,0,0,0,0,0,0,0,0,0,0,0,0,0,0,0,0,0,0,0,0,0,0,0,0,0,0,0,0,0,0,0,0,0,0,0,0,0,0,0]","[0.0001999999999497959,0.017499999999998295,0.03309999999997615,0.04949999999999477,0.06669999999995468,0.08440000000001646,0.09969999999995593,0.11629999999992435,0.13319999999995957,0.1496999999999531,0.16629999999993572,0.18309999999998183,0.19990000000002794,0.21640000000002146,0.2331999999999539,0.2496999999999474,0.26619999999995514,0.28290000000002635,0.29949999999999477,0.3165000000000049,0.3329000000000235,0.3509000000000242,0.36629999999992435,0.3824999999999932,0.399799999999928,0.417500000000004,0.43250000000000455,0.44979999999992515,0.466199999999958,0.48409999999996955,0.4996999999999474,0.5172999999999348,0.5329000000000264,0.5506999999999493,0.5657999999999248,0.5829000000000235,0.599400000000017,0.6164000000000271,0.6341999999999501,0.6491999999999507,0.6675999999999789]",,12,0,12,0,1,,,,
,,,,,,,,,,,,,,,PAV-9988,2022-11-01_16h07.14.844,GoFitts,2022.1.4,Win32,60.24822268,,,,,"[-252.81781074217108,-183.68289134139783]","[209.1033144871432,232.2327579616857]",25.5,625,0,"[-262,-256,-255,-255,-255,-255,-255,-255,-254,-252,-252,-252,-252,-252,-252,-252,-252,-252,-252,-252,-252,-251,-242,-221,-166,-114,-83,16,50,141,167,173,173,173,173,176,179,182,183,185,188,190,193,197,202,207]","[-191,-189,-188,-188,-188,-188,-188,-188,-188,-188,-188,-188,-188,-188,-188,-188,-188,-188,-188,-188,-188,-182,-164,-125,-42,30,66,180,212,282,298,302,302,302,302,302,302,300,299,296,291,285,275,261,245,234]","[0,0,0,0,0,0,0,0,0,0,0,0,0,0,0,0,0,0,0,0,0,0,0,0,0,0,0,0,0,0,0,0,0,0,0,0,0,0,0,0,0,0,0,0,0,0]","[0,0,0,0,0,0,0,0,0,0,0,0,0,0,0,0,0,0,0,0,0,0,0,0,0,0,0,0,0,0,0,0,0,0,0,0,0,0,0,0,0,0,0,0,0,0]","[0,0,0,0,0,0,0,0,0,0,0,0,0,0,0,0,0,0,0,0,0,0,0,0,0,0,0,0,0,0,0,0,0,0,0,0,0,0,0,0,0,0,0,0,0,0]","[0.00020000000006348273,0.017099999999970805,0.03190000000002158,0.0482000000000653,0.06499999999999773,0.08180000000004384,0.09830000000005157,0.11499999999999488,0.13290000000002067,0.148700000000062,0.16480000000004225,0.18180000000005236,0.19849999999999568,0.2150999999999783,0.23190000000002442,0.24880000000004543,0.26540000000002806,0.2819999999999965,0.2985999999999791,0.3153000000000503,0.33199999999999363,0.34909999999997865,0.36570000000007497,0.3825999999999823,0.40059999999996876,0.4172000000000651,0.43259999999997945,0.44980000000003884,0.4660999999999689,0.4830000000000041,0.49880000000004543,0.5154000000000281,0.5328000000000515,0.5488000000000426,0.5653000000000503,0.5823000000000462,0.599599999999981,0.6154999999999973,0.6322000000000685,0.6495999999999782,0.6667000000000627,0.6818000000000524,0.6984999999999957,0.7164000000000215,0.7319000000000244,0.748599999999982]",,13,0,13,0,1,,,,
,,,,,,,,,,,,,,,PAV-9988,2022-11-01_16h07.14.844,GoFitts,2022.1.4,Win32,60.24822268,,,,,"[209.1033144871432,232.2327579616857]","[-156.25000000000014,-270.632938682637]",25.5,625,0,"[207,211,214,214,214,214,214,214,214,214,214,214,214,214,214,214,214,214,214,210,176,130,85,34,-12,-64,-112,-156,-188,-205,-214,-219,-222,-222,-222,-222,-222,-221,-218,-210,-191,-152,-126,-112,-109,-108,-108,-108,-110,-115,-127,-142,-153]","[234,226,222,221,221,221,221,221,221,221,221,221,222,222,222,223,223,223,223,223,205,179,141,95,46,-11,-72,-130,-184,-215,-239,-253,-261,-262,-262,-262,-260,-257,-255,-254,-251,-245,-244,-244,-244,-244,-245,-245,-248,-251,-257,-264,-270]","[0,0,0,0,0,0,0,0,0,0,0,0,0,0,0,0,0,0,0,0,0,0,0,0,0,0,0,0,0,0,0,0,0,0,0,0,0,0,0,0,0,0,0,0,0,0,0,0,0,0,0,0,0]","[0,0,0,0,0,0,0,0,0,0,0,0,0,0,0,0,0,0,0,0,0,0,0,0,0,0,0,0,0,0,0,0,0,0,0,0,0,0,0,0,0,0,0,0,0,0,0,0,0,0,0,0,0]","[0,0,0,0,0,0,0,0,0,0,0,0,0,0,0,0,0,0,0,0,0,0,0,0,0,0,0,0,0,0,0,0,0,0,0,0,0,0,0,0,0,0,0,0,0,0,0,0,0,0,0,0,0]","[0.0004000000000274895,0.017599999999973193,0.034400000000019304,0.051300000000054524,0.0660000000000025,0.08319999999996242,0.1008000000000493,0.11559999999997217,0.13280000000004577,0.15069999999995787,0.16599999999999682,0.18280000000004293,0.19980000000005305,0.21750000000000114,0.2328000000000543,0.2495999999999725,0.2675999999999732,0.2843000000000444,0.2994000000000199,0.3163000000000551,0.3340000000000032,0.34950000000000614,0.36590000000002476,0.3848000000000553,0.40130000000004884,0.4159000000000219,0.4345999999999748,0.44990000000002794,0.46680000000004895,0.48419999999995866,0.5001999999999498,0.5166999999999575,0.5343000000000444,0.5499000000000223,0.5663000000000551,0.5828000000000486,0.6001999999999583,0.6165999999999769,0.6335999999999729,0.6503000000000441,0.6669000000000267,0.6848000000000525,0.701300000000046,0.7178000000000537,0.7348000000000496,0.7500999999999749,0.7674999999999983,0.7830999999999761,0.7999000000000223,0.8175999999999846,0.833300000000051,0.8500000000000085,0.8666999999999518]",,14,0,14,0,1,,,,
,,,,,,,,,,,,,,,PAV-9988,2022-11-01_16h07.14.844,GoFitts,2022.1.4,Win32,60.24822268,,,,,,,,,0,,,,,,,,,,,,,0,0,0,1
,,,,,,,,,,,,,,,PAV-9988,2022-11-01_16h07.14.844,GoFitts,2022.1.4,Win32,60.24822268,,,return,1.6477,"[-75,-125]","[26.266444521870515,-80.83980388508806]",77.8,170,1,"[-75,-75,-75,-75,-75,-75,-75,-75,-75,-75,-75,-75,-75,-75,-75,-75,-75,-75,-75,-75,-75,-75,-75,-72,-68,-66,-61,-59,-57,-56,-55,-55,-53,-49,-35,-23,-12,-4]","[-125,-125,-125,-125,-125,-125,-125,-125,-125,-125,-125,-125,-125,-125,-125,-125,-125,-125,-125,-125,-125,-125,-125,-125,-125,-125,-125,-125,-124,-124,-124,-124,-123,-119,-107,-97,-88,-81]","[0,0,0,0,0,0,0,0,0,0,0,0,0,0,0,0,0,0,0,0,0,0,0,0,0,0,0,0,0,0,0,0,0,0,0,0,0,0]","[0,0,0,0,0,0,0,0,0,0,0,0,0,0,0,0,0,0,0,0,0,0,0,0,0,0,0,0,0,0,0,0,0,0,0,0,0,0]","[0,0,0,0,0,0,0,0,0,0,0,0,0,0,0,0,0,0,0,0,0,0,0,0,0,0,0,0,0,0,0,0,0,0,0,0,0,0]","[0.0007000000000658702,0.01840000000002817,0.03700000000000614,0.05140000000002942,0.06670000000006837,0.0835000000000008,0.09970000000006962,0.11659999999997694,0.13340000000002306,0.15000000000000568,0.1668000000000518,0.18359999999998422,0.20020000000006632,0.21800000000000352,0.23359999999998138,0.2499000000000251,0.2668000000000461,0.28350000000000364,0.30009999999998627,0.3165999999999798,0.3330999999999733,0.3498000000000445,0.36650000000000205,0.38340000000002306,0.4000000000000057,0.4175999999999789,0.4348000000000525,0.45000000000000284,0.46759999999997603,0.4828000000000543,0.5012000000000683,0.5163000000000437,0.5330999999999761,0.5499000000000223,0.5675999999999846,0.584700000000069,0.599599999999981,0.6163000000000523]",,0,0,0,0,1,,,,
,,,,,,,,,,,,,,,PAV-9988,2022-11-01_16h07.14.844,GoFitts,2022.1.4,Win32,60.24822268,,,,,"[26.266444521870515,-80.83980388508806]","[-42.49999999999998,73.6121593216773]",77.8,170,1,"[-4,-1,0,2,3,4,4,4,4,4,4,4,4,4,4,4,4,4,4,4,4,3,-4,-9,-21,-35,-52]","[-81,-77,-73,-69,-66,-64,-64,-64,-64,-64,-64,-64,-64,-64,-64,-64,-64,-64,-64,-64,-64,-64,-53,-37,-6,20,47]","[0,0,0,0,0,0,0,0,0,0,0,0,0,0,0,0,0,0,0,0,0,0,0,0,0,0,0]","[0,0,0,0,0,0,0,0,0,0,0,0,0,0,0,0,0,0,0,0,0,0,0,0,0,0,0]","[0,0,0,0,0,0,0,0,0,0,0,0,0,0,0,0,0,0,0,0,0,0,0,0,0,0,0]","[0.0003000000000383807,0.01850000000000307,0.0344999999999942,0.04959999999996967,0.06740000000002055,0.0830999999999733,0.09959999999996683,0.11759999999996751,0.13440000000001362,0.1495000000000033,0.16609999999997171,0.1839000000000226,0.19950000000000045,0.21619999999994377,0.2326999999999515,0.25099999999999056,0.26619999999995514,0.28280000000003724,0.29980000000004736,0.3164000000000158,0.3333000000000368,0.3501999999999441,0.3669000000000153,0.38340000000002306,0.3994000000000142,0.4165999999999741,0.4334000000000202]",,1,0,1,0,1,,,,
,,,,,,,,,,,,,,,PAV-9988,2022-11-01_16h07.14.844,GoFitts,2022.1.4,Win32,60.24822268,,,,,"[-42.49999999999998,73.6121593216773]","[56.87610154050297,-63.16731016557849]",77.8,170,1,"[-52,-66,-73,-77,-78,-79,-79,-80,-80,-80,-78,-77,-76,-73,-71,-67,-62,-57,-46,-28,-6,17,36,51,60]","[47,72,90,104,110,112,112,112,112,112,112,112,112,112,112,110,106,101,87,70,50,29,11,-10,-28]","[0,0,0,0,0,0,0,0,0,0,0,0,0,0,0,0,0,0,0,0,0,0,0,0,0]","[0,0,0,0,0,0,0,0,0,0,0,0,0,0,0,0,0,0,0,0,0,0,0,0,0]","[0,0,0,0,0,0,0,0,0,0,0,0,0,0,0,0,0,0,0,0,0,0,0,0,0]","[0.0003999999998995918,0.017199999999945703,0.032899999999898455,0.04989999999990857,0.0662999999999272,0.0830999999999733,0.09929999999992845,0.11659999999997694,0.13249999999999318,0.1492999999999256,0.1664999999999992,0.18299999999999272,0.20079999999992992,0.21759999999997603,0.2328999999999013,0.2494999999999976,0.2672999999999206,0.28249999999999886,0.30079999999992424,0.31739999999990687,0.3342999999999279,0.34909999999997865,0.36689999999990164,0.382699999999943,0.3990999999999758]",,2,0,2,0,1,,,,
,,,,,,,,,,,,,,,PAV-9988,2022-11-01_16h07.14.844,GoFitts,2022.1.4,Win32,60.24822268,,,,,"[56.87610154050297,-63.16731016557849]","[-68.76644452187053,49.961746444860225]",77.8,170,1,"[60,66,70,72,72,72,72,72,72,72,72,72,72,72,72,72,72,60,43,22,-2,-34,-50]","[-28,-43,-52,-57,-59,-59,-59,-59,-59,-59,-59,-59,-59,-59,-59,-59,-59,-51,-39,-25,-10,12,23]","[0,0,0,0,0,0,0,0,0,0,0,0,0,0,0,0,0,0,0,0,0,0,0]","[0,0,0,0,0,0,0,0,0,0,0,0,0,0,0,0,0,0,0,0,0,0,0]","[0,0,0,0,0,0,0,0,0,0,0,0,0,0,0,0,0,0,0,0,0,0,0]","[0.00030000000005259153,0.01770000000007599,0.03320000000006473,0.051200000000065415,0.06699999999999307,0.0834000000000259,0.09980000000004452,0.117999999999995,0.13450000000000273,0.15149999999999864,0.1664000000000243,0.18299999999999272,0.19959999999997535,0.21640000000002146,0.2330000000000041,0.2498000000000502,0.26659999999998263,0.28340000000002874,0.30100000000000193,0.3165999999999798,0.3332000000000761,0.3509999999999991,0.36650000000000205]",,3,0,3,0,1,,,,
,,,,,,,,,,,,,,,PAV-9988,2022-11-01_16h07.14.844,GoFitts,2022.1.4,Win32,60.24822268,,,,,"[-68.76644452187053,49.961746444860225]","[77.65136389962109,-34.57261466144301]",77.8,170,1,"[-50,-59,-67,-72,-76,-77,-78,-79,-79,-79,-79,-79,-79,-79,-74,-68,-56,-38,-15,9,36,66]","[23,31,37,41,43,44,45,45,46,46,46,46,46,46,46,45,43,37,31,24,14,-2]","[0,0,0,0,0,0,0,0,0,0,0,0,0,0,0,0,0,0,0,0,0,0]","[0,0,0,0,0,0,0,0,0,0,0,0,0,0,0,0,0,0,0,0,0,0]","[0,0,0,0,0,0,0,0,0,0,0,0,0,0,0,0,0,0,0,0,0,0]","[0.00019999999996400675,0.017599999999987403,0.03290000000002635,0.04990000000002226,0.06659999999997979,0.0836999999999648,0.10069999999996071,0.11800000000000921,0.13340000000002306,0.15000000000000568,0.1666999999999632,0.18340000000003442,0.19990000000002794,0.21659999999998547,0.23369999999995628,0.2504000000000275,0.2670000000000101,0.28359999999997854,0.30049999999999955,0.3170999999999822,0.33459999999998047,0.351299999999938]",,4,0,4,0,1,,,,
,,,,,,,,,,,,,,,PAV-9988,2022-11-01_16h07.14.844,GoFitts,2022.1.4,Win32,60.24822268,,,,,"[77.65136389962109,-34.57261466144301]","[-83.14254606237348,17.672493719509543]",77.8,170,1,"[66,79,84,91,95,96,97,97,97,97,97,97,97,97,95,92,85,72,54,33,14,-2,-19,-33,-41,-47,-52,-58]","[-2,-12,-18,-31,-42,-49,-52,-52,-53,-53,-53,-53,-53,-53,-53,-51,-48,-41,-33,-26,-20,-17,-15,-13,-11,-9,-7,-5]","[0,0,0,0,0,0,0,0,0,0,0,0,0,0,0,0,0,0,0,0,0,0,0,0,0,0,0,0]","[0,0,0,0,0,0,0,0,0,0,0,0,0,0,0,0,0,0,0,0,0,0,0,0,0,0,0,0]","[0,0,0,0,0,0,0,0,0,0,0,0,0,0,0,0,0,0,0,0,0,0,0,0,0,0,0,0]","[0.0004000000000132786,0.016300000000043724,0.03170000000005757,0.04959999999996967,0.06499999999999773,0.08190000000001874,0.09890000000001464,0.11570000000006075,0.1319000000000159,0.1494000000000142,0.16459999999996455,0.18149999999999977,0.1980999999999682,0.2147000000000645,0.23109999999996944,0.2494999999999976,0.26490000000001146,0.28249999999999886,0.2980999999999767,0.3149999999999977,0.33120000000006655,0.34820000000006246,0.3648000000000451,0.3825999999999681,0.39809999999997103,0.4159000000000219,0.4332000000000704,0.44950000000000045]",,5,0,5,0,1,,,,
,,,,,,,,,,,,,,,PAV-9988,2022-11-01_16h07.14.844,GoFitts,2022.1.4,Win32,60.24822268,,,,,"[-83.14254606237348,17.672493719509543]","[85,0]",77.8,170,1,"[-58,-63,-67,-69,-69,-70,-70,-70,-70,-70,-70,-68,-61,-51,-40,-26,-7,14,40,68]","[-5,-2,0,0,1,1,1,1,1,1,1,1,1,0,-1,-1,-4,-5,-6,-6]","[0,0,0,0,0,0,0,0,0,0,0,0,0,0,0,0,0,0,0,0]","[0,0,0,0,0,0,0,0,0,0,0,0,0,0,0,0,0,0,0,0]","[0,0,0,0,0,0,0,0,0,0,0,0,0,0,0,0,0,0,0,0]","[0.00029999999992469384,0.016799999999932425,0.03149999999999409,0.049399999999906186,0.06509999999997262,0.08189999999990505,0.09950000000000614,0.1147999999999314,0.13129999999992492,0.14809999999997103,0.16489999999990346,0.18169999999994957,0.1982999999999322,0.21679999999993527,0.23209999999997422,0.24839999999990425,0.264899999999912,0.28300000000000125,0.2987999999999289,0.3156999999999499]",,6,0,6,0,1,,,,
,,,,,,,,,,,,,,,PAV-9988,2022-11-01_16h07.14.844,GoFitts,2022.1.4,Win32,60.24822268,,,,,"[85,0]","[-83.14254606237348,-17.67249371950952]",77.8,170,1,"[68,107,127,134,137,137,137,137,137,137,137,137,137,134,126,125,122,114,99,78,42,7,-16,-32,-40,-44,-44,-44,-45]","[-6,-6,-5,-5,-4,-4,-4,-4,-4,-4,-4,-4,-4,-4,-3,-3,-3,-3,-3,-3,-5,-10,-15,-21,-23,-24,-24,-24,-24]","[0,0,0,0,0,0,0,0,0,0,0,0,0,0,0,0,0,0,0,0,0,0,0,0,0,0,0,0,0]","[0,0,0,0,0,0,0,0,0,0,0,0,0,0,0,0,0,0,0,0,0,0,0,0,0,0,0,0,0]","[0,0,0,0,0,0,0,0,0,0,0,0,0,0,0,0,0,0,0,0,0,0,0,0,0,0,0,0,0]","[0.0003999999998995918,0.017899999999897886,0.03579999999992367,0.04909999999996728,0.06689999999990448,0.08219999999995764,0.09900000000000375,0.11579999999992197,0.13259999999996808,0.1490999999999758,0.16589999999990823,0.18379999999993402,0.19929999999992276,0.21639999999990778,0.23369999999995628,0.2494999999999976,0.26609999999998024,0.2823999999999103,0.2993999999999062,0.3160000000000025,0.3328999999999098,0.3506999999999465,0.367399999999904,0.38439999999989993,0.40069999999994366,0.4172999999999263,0.4338999999999089,0.4488999999999095,0.46669999999994616]",,7,0,7,0,1,,,,
,,,,,,,,,,,,,,,PAV-9988,2022-11-01_16h07.14.844,GoFitts,2022.1.4,Win32,60.24822268,,,,,"[-83.14254606237348,-17.67249371950952]","[77.65136389962107,34.57261466144301]",77.8,170,1,"[-45,-46,-48,-49,-49,-49,-49,-49,-49,-49,-54,-61,-64,-65,-65,-63,-58,-51,-41,-21,1,26,45]","[-24,-24,-24,-24,-24,-24,-24,-24,-24,-24,-24,-21,-20,-20,-20,-20,-20,-19,-16,-8,2,13,24]","[0,0,0,0,0,0,0,0,0,0,0,0,0,0,0,0,0,0,0,0,0,0,0]","[0,0,0,0,0,0,0,0,0,0,0,0,0,0,0,0,0,0,0,0,0,0,0]","[0,0,0,0,0,0,0,0,0,0,0,0,0,0,0,0,0,0,0,0,0,0,0]","[0.0001999999999497959,0.016799999999932425,0.03219999999994627,0.05029999999992185,0.06550000000000011,0.08199999999999363,0.09850000000000136,0.11509999999996978,0.1318999999999022,0.14869999999994832,0.16569999999995844,0.18200000000000216,0.19879999999993458,0.21709999999997365,0.23209999999997422,0.25,0.26509999999997547,0.2820999999999714,0.30029999999992185,0.3156999999999499,0.33239999999990744,0.34879999999992606,0.36569999999994707]",,8,0,8,0,1,,,,
,,,,,,,,,,,,,,,PAV-9988,2022-11-01_16h07.14.844,GoFitts,2022.1.4,Win32,60.24822268,,,,,"[77.65136389962107,34.57261466144301]","[-68.76644452187054,-49.96174644486021]",77.8,170,1,"[45,64,67,68,68,68,68,68,68,68,68,68,68,68,67,57,41,21,-1,-25,-45]","[24,34,37,37,37,37,37,37,37,37,37,37,37,37,37,37,28,15,-3,-24,-44]","[0,0,0,0,0,0,0,0,0,0,0,0,0,0,0,0,0,0,0,0,0]","[0,0,0,0,0,0,0,0,0,0,0,0,0,0,0,0,0,0,0,0,0]","[0,0,0,0,0,0,0,0,0,0,0,0,0,0,0,0,0,0,0,0,0]","[0.00030000000005259153,0.0173000000000485,0.03409999999998092,0.048900000000031696,0.06759999999998456,0.08240000000002112,0.09880000000005396,0.11590000000002476,0.13280000000004577,0.1495999999999782,0.16590000000002192,0.18280000000004293,0.19990000000002794,0.21600000000000819,0.2331999999999539,0.2509000000000299,0.2673000000000485,0.28290000000002635,0.2996999999999588,0.31740000000002055,0.3329999999999984]",,9,0,9,0,1,,,,
,,,,,,,,,,,,,,,PAV-9988,2022-11-01_16h07.14.844,GoFitts,2022.1.4,Win32,60.24822268,,,,,"[-68.76644452187054,-49.96174644486021]","[56.87610154050295,63.16731016557851]",77.8,170,1,"[-45,-56,-60,-62,-63,-63,-63,-63,-63,-64,-64,-64,-64,-64,-64,-64,-64,-60,-49,-20,1,22,39,49]","[-44,-56,-63,-67,-68,-68,-68,-68,-68,-68,-68,-68,-68,-68,-68,-68,-68,-66,-58,-38,-22,-4,16,33]","[0,0,0,0,0,0,0,0,0,0,0,0,0,0,0,0,0,0,0,0,0,0,0,0]","[0,0,0,0,0,0,0,0,0,0,0,0,0,0,0,0,0,0,0,0,0,0,0,0]","[0,0,0,0,0,0,0,0,0,0,0,0,0,0,0,0,0,0,0,0,0,0,0,0]","[0.0003999999998995918,0.017099999999970805,0.033199999999951046,0.049399999999906186,0.06639999999990209,0.08259999999997092,0.09929999999992845,0.11619999999994945,0.13259999999996808,0.1498999999999029,0.16739999999990118,0.18269999999995434,0.19929999999992276,0.2158999999999054,0.2323999999998989,0.24909999999997012,0.2672999999999348,0.28279999999992356,0.2987999999999289,0.3158999999998997,0.3326999999999458,0.34929999999992845,0.36709999999997933,0.3825999999999681]",,10,0,10,0,1,,,,
,,,,,,,,,,,,,,,PAV-9988,2022-11-01_16h07.14.844,GoFitts,2022.1.4,Win32,60.24822268,,,,,"[56.87610154050295,63.16731016557851]","[-42.500000000000036,-73.61215932167727]",77.8,170,1,"[49,57,60,61,61,61,61,61,61,61,61,61,61,61,61,61,61,60,52,41,28,13,-2,-14]","[33,47,54,58,59,60,60,60,60,60,60,60,60,60,60,60,60,59,44,25,4,-23,-46,-65]","[0,0,0,0,0,0,0,0,0,0,0,0,0,0,0,0,0,0,0,0,0,0,0,0]","[0,0,0,0,0,0,0,0,0,0,0,0,0,0,0,0,0,0,0,0,0,0,0,0]","[0,0,0,0,0,0,0,0,0,0,0,0,0,0,0,0,0,0,0,0,0,0,0,0]","[0.0004000000000132786,0.017599999999973193,0.03309999999997615,0.04959999999996967,0.06620000000006598,0.08459999999996626,0.09959999999996683,0.11620000000006314,0.13420000000006382,0.14970000000006678,0.1664999999999992,0.18320000000007042,0.2012000000000711,0.21620000000007167,0.23280000000004009,0.25070000000006587,0.2662000000000688,0.2842000000000695,0.3017000000000678,0.31790000000002294,0.33449999999999136,0.3495999999999668,0.36630000000003804,0.38330000000004816]",,11,0,11,0,1,,,,
,,,,,,,,,,,,,,,PAV-9988,2022-11-01_16h07.14.844,GoFitts,2022.1.4,Win32,60.24822268,,,,,"[-42.500000000000036,-73.61215932167727]","[26.266444521870532,80.83980388508805]",77.8,170,1,"[-14,-25,-31,-34,-35,-35,-35,-36,-36,-37,-38,-38,-38,-38,-38,-38,-38,-35,-29,-27,-22,-17,-14,-12,-10,-7,-4]","[-65,-80,-87,-90,-92,-92,-92,-93,-93,-93,-94,-94,-94,-94,-94,-89,-82,-69,-47,-40,-22,5,23,39,50,59,64]","[0,0,0,0,0,0,0,0,0,0,0,0,0,0,0,0,0,0,0,0,0,0,0,0,0,0,0]","[0,0,0,0,0,0,0,0,0,0,0,0,0,0,0,0,0,0,0,0,0,0,0,0,0,0,0]","[0,0,0,0,0,0,0,0,0,0,0,0,0,0,0,0,0,0,0,0,0,0,0,0,0,0,0]","[0.0003000000000383807,0.017700000000061777,0.034700000000071896,0.05140000000001521,0.06770000000007315,0.08299999999999841,0.09999999999999432,0.11680000000004043,0.13299999999999557,0.15040000000001896,0.16770000000006746,0.18309999999998183,0.19980000000003884,0.21649999999999636,0.23330000000004247,0.2499000000000251,0.266900000000021,0.283800000000042,0.30100000000000193,0.31670000000006837,0.3332000000000619,0.3499000000000194,0.36670000000006553,0.38450000000000273,0.3999999999999915,0.4168000000000518,0.434400000000025]",,12,0,12,0,1,,,,
,,,,,,,,,,,,,,,PAV-9988,2022-11-01_16h07.14.844,GoFitts,2022.1.4,Win32,60.24822268,,,,,"[26.266444521870532,80.83980388508805]","[-8.88491937775061,-84.53436110630322]",77.8,170,1,"[-4,-2,-2,-2,-1,-1,0,0,2,3,5,6,7,8,8,8,8,8,8,8,8,6,5,2,-1]","[64,67,67,68,68,68,68,68,68,68,68,68,68,68,68,68,68,68,68,67,49,28,3,-25,-49]","[0,0,0,0,0,0,0,0,0,0,0,0,0,0,0,0,0,0,0,0,0,0,0,0,0]","[0,0,0,0,0,0,0,0,0,0,0,0,0,0,0,0,0,0,0,0,0,0,0,0,0]","[0,0,0,0,0,0,0,0,0,0,0,0,0,0,0,0,0,0,0,0,0,0,0,0,0]","[0.00019999999996400675,0.0177999999999372,0.03319999999996526,0.048199999999965826,0.06500000000001194,0.08140000000003056,0.09819999999996298,0.1145999999999816,0.13309999999998468,0.14809999999998524,0.16450000000000387,0.18140000000002487,0.1980000000000075,0.21669999999996037,0.23140000000003624,0.24900000000000944,0.26490000000002567,0.2812999999999306,0.2979000000000269,0.31479999999993424,0.33159999999998035,0.348199999999963,0.3647999999999314,0.3826999999999572,0.3995999999999782]",,13,0,13,0,1,,,,
,,,,,,,,,,,,,,,PAV-9988,2022-11-01_16h07.14.844,GoFitts,2022.1.4,Win32,60.24822268,,,,,"[-8.88491937775061,-84.53436110630322]","[-8.884919377750533,84.53436110630324]",77.8,170,1,"[-1,-3,-3,-3,-4,-4,-4,-4,-4,-4,-4,-4,-4,-4,-5,-7,-7,-7,-7,-7,-7,-8,-10]","[-49,-66,-76,-81,-82,-82,-82,-82,-82,-82,-82,-82,-82,-82,-81,-72,-51,-45,-27,2,21,39,55]","[0,0,0,0,0,0,0,0,0,0,0,0,0,0,0,0,0,0,0,0,0,0,0]","[0,0,0,0,0,0,0,0,0,0,0,0,0,0,0,0,0,0,0,0,0,0,0]","[0,0,0,0,0,0,0,0,0,0,0,0,0,0,0,0,0,0,0,0,0,0,0]","[0.00020000000006348273,0.01649999999999352,0.03190000000002158,0.0484000000000151,0.06620000000006598,0.083100000000087,0.09820000000006246,0.11499999999999488,0.1316000000000912,0.14960000000009188,0.1667000000000627,0.18160000000008836,0.19840000000002078,0.21640000000002146,0.2321000000000879,0.24880000000004543,0.2668000000000461,0.2819000000000216,0.2983000000000402,0.31490000000002283,0.33180000000004384,0.34890000000001464,0.3653000000000475]",,14,0,14,0,1,,,,
,,,,,,,,,,,,,,,PAV-9988,2022-11-01_16h07.14.844,GoFitts,2022.1.4,Win32,60.24822268,,,,,,,,,1,,,,,,,,,,,,,1,0,0,1
,,,,,,,,,,,,,,,PAV-9988,2022-11-01_16h07.14.844,GoFitts,2022.1.4,Win32,60.24822268,,,return,1.8583,"[38,-44]","[-24.825510026067665,236.19895014996493]",40.5,475,2,"[38,38,38,38,38,38,38,38,38,38,38,38,38,38,38,38,38,38,38,38,38,38,37,24,4,-11,-22,-28,-32,-33,-34,-36,-37,-37,-35,-33,-31,-29,-26,-25,-25,-27,-28,-28]","[-44,-44,-44,-44,-44,-44,-44,-44,-44,-44,-44,-44,-44,-44,-44,-44,-44,-44,-44,-44,-44,-44,-44,-35,-11,11,33,54,74,93,108,119,130,137,142,144,148,150,161,176,190,203,212,217]","[0,0,0,0,0,0,0,0,0,0,0,0,0,0,0,0,0,0,0,0,0,0,0,0,0,0,0,0,0,0,0,0,0,0,0,0,0,0,0,0,0,0,0,0]","[0,0,0,0,0,0,0,0,0,0,0,0,0,0,0,0,0,0,0,0,0,0,0,0,0,0,0,0,0,0,0,0,0,0,0,0,0,0,0,0,0,0,0,0]","[0,0,0,0,0,0,0,0,0,0,0,0,0,0,0,0,0,0,0,0,0,0,0,0,0,0,0,0,0,0,0,0,0,0,0,0,0,0,0,0,0,0,0,0]","[0.000999999999990564,0.017499999999998295,0.03269999999994866,0.049699999999944566,0.06649999999999068,0.08330000000003679,0.09980000000004452,0.11650000000000205,0.13309999999997046,0.1493000000000393,0.16730000000003997,0.1841999999999473,0.21780000000003952,0.23469999999994684,0.25119999999995457,0.2678000000000367,0.28249999999999886,0.29959999999996967,0.3163000000000409,0.3329000000000235,0.34969999999995593,0.36630000000003804,0.38340000000002306,0.3999000000000166,0.41749999999998977,0.4329999999999927,0.44990000000001373,0.46769999999995093,0.48440000000002215,0.4996999999999474,0.5164000000000186,0.5343000000000444,0.5494000000000199,0.5660999999999774,0.5829000000000235,0.5998000000000445,0.6176999999999424,0.6329999999999956,0.6508000000000465,0.6663000000000352,0.6841999999999473,0.6995999999999754,0.717400000000012,0.7325000000000017]",,0,0,0,0,1,,,,
,,,,,,,,,,,,,,,PAV-9988,2022-11-01_16h07.14.844,GoFitts,2022.1.4,Win32,60.24822268,,,,,"[-24.825510026067665,236.19895014996493]","[73.39153616404997,-225.875922620099]",40.5,475,2,"[-28,-28,-28,-28,-28,-28,-28,-28,-28,-28,-28,-28,-28,-28,-28,-28,-24,14,32,64,101,122,133,138,138,138,138,138,138,138,138,138,138,136,128,119,111,108,104,100,99,97,96,95,95,95,94,94,94,91,87]","[217,221,222,222,222,222,222,222,222,222,222,222,222,222,222,222,209,99,47,-69,-219,-290,-324,-338,-340,-340,-340,-340,-340,-340,-340,-340,-340,-337,-328,-321,-311,-302,-291,-279,-272,-259,-254,-250,-247,-245,-244,-243,-242,-238,-233]","[0,0,0,0,0,0,0,0,0,0,0,0,0,0,0,0,0,0,0,0,0,0,0,0,0,0,0,0,0,0,0,0,0,0,0,0,0,0,0,0,0,0,0,0,0,0,0,0,0,0,0]","[0,0,0,0,0,0,0,0,0,0,0,0,0,0,0,0,0,0,0,0,0,0,0,0,0,0,0,0,0,0,0,0,0,0,0,0,0,0,0,0,0,0,0,0,0,0,0,0,0,0,0]","[0,0,0,0,0,0,0,0,0,0,0,0,0,0,0,0,0,0,0,0,0,0,0,0,0,0,0,0,0,0,0,0,0,0,0,0,0,0,0,0,0,0,0,0,0,0,0,0,0,0,0]","[0.00009999999997489795,0.01809999999997558,0.03339999999991505,0.049799999999933675,0.06669999999995468,0.08479999999993026,0.1013999999999129,0.118199999999959,0.13299999999999557,0.1498999999999029,0.1665999999999741,0.1848999999999137,0.19979999999992515,0.21829999999992822,0.23519999999994923,0.2501999999999498,0.2672999999999348,0.2845999999999833,0.30039999999991096,0.3170000000000073,0.3336999999999506,0.3504999999999967,0.36700000000000443,0.38329999999993447,0.4003999999999053,0.4170000000000016,0.4335999999999842,0.45050000000000523,0.46689999999991016,0.4836999999999563,0.5003999999999138,0.5168999999999073,0.5336999999999534,0.5504999999999995,0.5673999999999069,0.5838999999999146,0.601299999999938,0.6170999999999793,0.6337999999999369,0.6505000000000081,0.6681999999999562,0.6850000000000023,0.7000999999999777,0.7180000000000035,0.7335999999999814,0.7502999999999389,0.7678999999999121,0.7835999999999785,0.8013999999999157,0.8170999999999822,0.8335999999999757]",,1,0,1,0,1,,,,
,,,,,,,,,,,,,,,PAV-9988,2022-11-01_16h07.14.844,GoFitts,2022.1.4,Win32,60.24822268,,,,,"[73.39153616404997,-225.875922620099]","[-118.74999999999994,205.6810333988042]",40.5,475,2,"[87,81,79,79,78,78,78,78,78,78,78,78,78,78,78,78,56,35,16,1,-10,-15,-19,-24,-30,-35,-39,-42,-47,-51,-57,-61,-65,-66,-69,-74,-80,-87,-92,-97,-102,-106,-111,-119,-128,-131,-134,-136,-136,-136,-134,-134,-133,-133,-131,-130,-127,-122,-117,-114,-112,-111]","[-233,-227,-225,-224,-224,-224,-224,-224,-224,-224,-224,-224,-224,-224,-224,-224,-211,-195,-175,-147,-108,-73,-43,-22,-13,-10,-10,-9,-9,-9,-3,3,10,16,24,32,38,45,49,52,55,58,62,78,98,115,132,145,159,165,168,169,169,169,169,170,171,174,177,181,185,187]","[0,0,0,0,0,0,0,0,0,0,0,0,0,0,0,0,0,0,0,0,0,0,0,0,0,0,0,0,0,0,0,0,0,0,0,0,0,0,0,0,0,0,0,0,0,0,0,0,0,0,0,0,0,0,0,0,0,0,0,0,0,0]","[0,0,0,0,0,0,0,0,0,0,0,0,0,0,0,0,0,0,0,0,0,0,0,0,0,0,0,0,0,0,0,0,0,0,0,0,0,0,0,0,0,0,0,0,0,0,0,0,0,0,0,0,0,0,0,0,0,0,0,0,0,0]","[0,0,0,0,0,0,0,0,0,0,0,0,0,0,0,0,0,0,0,0,0,0,0,0,0,0,0,0,0,0,0,0,0,0,0,0,0,0,0,0,0,0,0,0,0,0,0,0,0,0,0,0,0,0,0,0,0,0,0,0,0,0]","[0.0001999999999497959,0.017499999999998295,0.034000000000006025,0.04919999999995639,0.0662999999999272,0.08249999999999602,0.10079999999993561,0.11579999999993618,0.1325000000000074,0.1492999999999256,0.16579999999993333,0.18250000000000455,0.19940000000002556,0.21590000000001908,0.2326999999999515,0.24909999999998433,0.26590000000003045,0.28300000000000125,0.2994000000000199,0.31759999999997035,0.33450000000000557,0.3509000000000242,0.36599999999999966,0.38309999999997046,0.40090000000002135,0.41790000000001726,0.4341999999999473,0.44969999999995025,0.4662999999999329,0.4826999999999515,0.4996999999999474,0.5165000000000077,0.533199999999951,0.5499999999999972,0.5662999999999272,0.5831999999999482,0.5999999999999943,0.6164000000000271,0.6330999999999705,0.6499000000000308,0.6664000000000243,0.6829000000000178,0.6994000000000256,0.7164999999999964,0.7344000000000221,0.7495999999999725,0.7665999999999826,0.7844000000000193,0.8012999999999266,0.8165000000000049,0.8329999999999984,0.8496999999999559,0.8671999999999542,0.8822999999999297,0.8995999999999782,0.9171999999999514,0.9326999999999543,0.9491999999999479,0.9675000000000011,0.983099999999979,1.0012999999999295,1.0174999999999983]",,2,0,2,0,1,,,,
,,,,,,,,,,,,,,,PAV-9988,2022-11-01_16h07.14.844,GoFitts,2022.1.4,Win32,60.24822268,,,,,"[-118.74999999999994,205.6810333988042]","[158.9185190102289,-176.49689605088108]",40.5,475,2,"[-111,-111,-111,-111,-112,-112,-112,-112,-112,-112,-112,-112,-112,-112,-112,-112,-107,-94,-75,-39,4,40,70,98,120,133,138,138,138,138,138,138,138,139]","[187,188,188,190,191,191,191,191,191,191,191,191,191,191,191,191,191,191,177,138,80,14,-54,-116,-156,-172,-178,-178,-178,-178,-178,-178,-178,-178]","[0,0,0,0,0,0,0,0,0,0,0,0,0,0,0,0,0,0,0,0,0,0,0,0,0,0,0,0,0,0,0,0,0,0]","[0,0,0,0,0,0,0,0,0,0,0,0,0,0,0,0,0,0,0,0,0,0,0,0,0,0,0,0,0,0,0,0,0,0]","[0,0,0,0,0,0,0,0,0,0,0,0,0,0,0,0,0,0,0,0,0,0,0,0,0,0,0,0,0,0,0,0,0,0]","[0.00030000000005259153,0.017800000000050886,0.03330000000005384,0.05070000000007724,0.06900000000000261,0.08309999999998752,0.09809999999998809,0.11620000000007735,0.1315999999999775,0.14820000000007383,0.16490000000003135,0.18140000000002487,0.19820000000007099,0.2149000000000285,0.233099999999979,0.2505000000000024,0.2669000000000352,0.2817000000000718,0.2985999999999791,0.3167000000000826,0.333300000000051,0.34840000000002647,0.3652000000000726,0.3829000000000349,0.3988000000000511,0.41550000000000864,0.43200000000000216,0.44959999999998956,0.465300000000056,0.4819000000000244,0.49870000000007053,0.5152000000000783,0.5318000000000467,0.5490000000000066]",,3,0,3,0,1,,,,
,,,,,,,,,,,,,,,PAV-9988,2022-11-01_16h07.14.844,GoFitts,2022.1.4,Win32,60.24822268,,,,,"[158.9185190102289,-176.49689605088108]","[-192.14153616405,139.5989974194624]",40.5,475,2,"[139,143,145,145,145,145,145,145,147,150,150,150,150,150,150,150,150,128,107,74,22,-40,-99,-140,-164,-175,-178,-179,-181]","[-178,-181,-182,-182,-182,-182,-182,-182,-182,-179,-179,-179,-178,-178,-178,-178,-175,-154,-134,-101,-54,0,52,90,113,121,123,124,124]","[0,0,0,0,0,0,0,0,0,0,0,0,0,0,0,0,0,0,0,0,0,0,0,0,0,0,0,0,0]","[0,0,0,0,0,0,0,0,0,0,0,0,0,0,0,0,0,0,0,0,0,0,0,0,0,0,0,0,0]","[0,0,0,0,0,0,0,0,0,0,0,0,0,0,0,0,0,0,0,0,0,0,0,0,0,0,0,0,0]","[0.0007000000000658702,0.016999999999995907,0.03370000000006712,0.04920000000007008,0.0657000000000636,0.08240000000002112,0.09880000000003974,0.11549999999999727,0.13230000000004338,0.15049999999999386,0.16730000000003997,0.18230000000004054,0.19940000000002556,0.21680000000004895,0.23209999999997422,0.24870000000007053,0.26570000000006644,0.28330000000003963,0.2988000000000426,0.3165999999999798,0.33209999999996853,0.3503000000000469,0.36549999999999727,0.38349999999999795,0.3990999999999758,0.4157000000000721,0.4337000000000728,0.44909999999997297,0.4654000000000167]",,4,0,4,0,1,,,,
,,,,,,,,,,,,,,,PAV-9988,2022-11-01_16h07.14.844,GoFitts,2022.1.4,Win32,60.24822268,,,,,"[-192.14153616405,139.5989974194624]","[216.96704619011774,-96.59995273050254]",40.5,475,2,"[-181,-185,-188,-190,-190,-190,-190,-190,-190,-190,-190,-190,-189,-189,-189,-186,-180,-174,-165,-157,-149,-137,-107,-11,79,163,197,271,292,299,300,300,300,300,300,300,301,301,299,296,288,275,259,243,235]","[124,125,125,126,126,126,126,126,126,126,126,126,127,127,127,127,128,128,129,129,129,129,113,57,13,-30,-46,-84,-95,-99,-100,-101,-101,-101,-102,-104,-105,-106,-106,-106,-106,-106,-106,-104,-103]","[0,0,0,0,0,0,0,0,0,0,0,0,0,0,0,0,0,0,0,0,0,0,0,0,0,0,0,0,0,0,0,0,0,0,0,0,0,0,0,0,0,0,0,0,0]","[0,0,0,0,0,0,0,0,0,0,0,0,0,0,0,0,0,0,0,0,0,0,0,0,0,0,0,0,0,0,0,0,0,0,0,0,0,0,0,0,0,0,0,0,0]","[0,0,0,0,0,0,0,0,0,0,0,0,0,0,0,0,0,0,0,0,0,0,0,0,0,0,0,0,0,0,0,0,0,0,0,0,0,0,0,0,0,0,0,0,0]","[0.0003000000000383807,0.01760000000008688,0.03340000000001453,0.05130000000004031,0.06599999999998829,0.08340000000001169,0.09980000000004452,0.11620000000006314,0.13310000000008415,0.14990000000001658,0.1664999999999992,0.1832000000000562,0.19999999999998863,0.21780000000003952,0.23310000000009268,0.25110000000007915,0.26599999999999113,0.28340000000001453,0.3013000000000403,0.3184000000000111,0.33490000000001885,0.3502000000000578,0.3673000000000428,0.3846000000000913,0.4014000000000095,0.41840000000001965,0.4333000000000453,0.4516000000000844,0.4679999999999893,0.48460000000008563,0.5002000000000635,0.5179999999999865,0.5332000000000647,0.5511000000000905,0.5667000000000684,0.584700000000069,0.6003000000000327,0.617100000000093,0.633499999999998,0.6502000000000692,0.6679999999999922,0.6837000000000586,0.7002000000000663,0.7179000000000144,0.7334000000000174]",,5,0,5,0,1,,,,
,,,,,,,,,,,,,,,PAV-9988,2022-11-01_16h07.14.844,GoFitts,2022.1.4,Win32,60.24822268,,,,,"[216.96704619011774,-96.59995273050254]","[-232.31005517427886,49.379026569217835]",40.5,475,2,"[235,233,233,233,233,233,233,232,232,231,231,230,228,227,225,222,211,191,140,90,35,-12,-56,-93,-120,-141,-152,-160,-169,-176,-186,-196,-204,-211,-215,-216,-216,-216,-217,-218,-219,-220,-220,-221]","[-103,-102,-102,-102,-102,-102,-102,-101,-101,-99,-99,-98,-97,-96,-95,-93,-90,-85,-71,-56,-36,-21,-6,6,14,18,21,23,25,26,27,28,29,29,30,30,30,30,30,31,32,32,33,34]","[0,0,0,0,0,0,0,0,0,0,0,0,0,0,0,0,0,0,0,0,0,0,0,0,0,0,0,0,0,0,0,0,0,0,0,0,0,0,0,0,0,0,0,0]","[0,0,0,0,0,0,0,0,0,0,0,0,0,0,0,0,0,0,0,0,0,0,0,0,0,0,0,0,0,0,0,0,0,0,0,0,0,0,0,0,0,0,0,0]","[0,0,0,0,0,0,0,0,0,0,0,0,0,0,0,0,0,0,0,0,0,0,0,0,0,0,0,0,0,0,0,0,0,0,0,0,0,0,0,0,0,0,0,0]","[0.0004999999999881766,0.01799999999998647,0.034799999999918896,0.04949999999999477,0.0661999999999523,0.08419999999995298,0.09949999999999193,0.11629999999992435,0.13279999999991787,0.14959999999996398,0.16609999999997171,0.1840999999999724,0.19979999999992515,0.21640000000002146,0.23399999999999466,0.24929999999991992,0.26599999999999113,0.28299999999998704,0.2992999999999171,0.3159000000000134,0.3325999999999709,0.351099999999974,0.36629999999992435,0.38399999999998613,0.399799999999928,0.4164000000000101,0.4339999999999975,0.44969999999995025,0.4674999999999869,0.48429999999991935,0.499199999999945,0.5157999999999276,0.5344000000000193,0.5492999999999171,0.5657999999999248,0.5831999999999482,0.5994999999999919,0.6162999999999244,0.6334000000000231,0.6502999999999162,0.6679999999999922,0.6849000000000132,0.7000999999999635,0.7167999999999211]",,6,0,6,0,1,,,,
,,,,,,,,,,,,,,,PAV-9988,2022-11-01_16h07.14.844,GoFitts,2022.1.4,Win32,60.24822268,,,,,"[-232.31005517427886,49.379026569217835]","[237.5,0]",40.5,475,2,"[-221,-221,-221,-221,-221,-221,-221,-221,-222,-222,-222,-222,-222,-222,-217,-208,-193,-183,-173,-161,-125,-88,-70,-6,30,53,68,76,77,77,80,95,119,143,175,180,184,184,185,192,206,220]","[34,34,35,35,35,35,37,39,40,41,41,41,41,41,41,41,42,43,44,44,43,39,36,27,21,17,14,13,13,13,13,11,6,5,5,5,5,5,5,5,4,2]","[0,0,0,0,0,0,0,0,0,0,0,0,0,0,0,0,0,0,0,0,0,0,0,0,0,0,0,0,0,0,0,0,0,0,0,0,0,0,0,0,0,0]","[0,0,0,0,0,0,0,0,0,0,0,0,0,0,0,0,0,0,0,0,0,0,0,0,0,0,0,0,0,0,0,0,0,0,0,0,0,0,0,0,0,0]","[0,0,0,0,0,0,0,0,0,0,0,0,0,0,0,0,0,0,0,0,0,0,0,0,0,0,0,0,0,0,0,0,0,0,0,0,0,0,0,0,0,0]","[0.0008000000000407681,0.017400000000023397,0.034400000000019304,0.05069999999994934,0.06559999999997501,0.08230000000004623,0.09949999999999193,0.11640000000001294,0.13330000000004816,0.1495999999999782,0.16609999999997171,0.1839999999999975,0.19930000000003645,0.21619999999994377,0.23299999999998988,0.24930000000004782,0.266900000000021,0.2843000000000444,0.29959999999996967,0.3160999999999774,0.3340999999999781,0.3506999999999465,0.36569999999994707,0.38369999999994775,0.398900000000026,0.4156999999999442,0.43219999999995196,0.44919999999994786,0.4658000000000442,0.48390000000001976,0.499199999999945,0.516099999999966,0.5336999999999534,0.548699999999954,0.567800000000048,0.582499999999996,0.6009999999999991,0.6174999999999926,0.6324000000000183,0.6490000000000009,0.6659000000000219,0.6836999999999449]",,7,0,7,0,1,,,,
,,,,,,,,,,,,,,,PAV-9988,2022-11-01_16h07.14.844,GoFitts,2022.1.4,Win32,60.24822268,,,,,"[237.5,0]","[-232.31005517427886,-49.37902656921778]",40.5,475,2,"[220,235,243,243,243,243,242,242,241,241,241,241,241,239,231,186,155,68,-34,-127,-221]","[2,1,0,0,0,0,0,0,0,0,0,0,0,0,0,-1,-4,-15,-29,-44,-59]","[0,0,0,0,0,0,0,0,0,0,0,0,0,0,0,0,0,0,0,0,0]","[0,0,0,0,0,0,0,0,0,0,0,0,0,0,0,0,0,0,0,0,0]","[0,0,0,0,0,0,0,0,0,0,0,0,0,0,0,0,0,0,0,0,0]","[0.0001999999999497959,0.01690000000002101,0.032099999999971374,0.049699999999944566,0.06490000000002283,0.0831999999999482,0.09879999999992606,0.11519999999994468,0.1320999999999799,0.14859999999997342,0.16509999999996694,0.18179999999992447,0.19840000000002078,0.21559999999996649,0.2325999999999766,0.25,0.26529999999992526,0.28240000000002397,0.2990999999999673,0.3156999999999499,0.3336999999999506]",,8,0,8,0,1,,,,
,,,,,,,,,,,,,,,PAV-9988,2022-11-01_16h07.14.844,GoFitts,2022.1.4,Win32,60.24822268,,,,,"[-232.31005517427886,-49.37902656921778]","[216.9670461901177,96.59995273050254]",40.5,475,2,"[-221,-249,-260,-261,-261,-261,-261,-261,-261,-261,-261,-261,-261,-261,-256,-253,-250,-246,-239,-234,-233,-230,-222,-207,-184,-147,-96,-38,16,54,80,90,91,91,91,96,100,103,106,106,108,133,193,274,346,377,380,375,372,367,362,355,346,339,331,325,318,312,305,298,290,269,252,242,237,235]","[-59,-64,-65,-65,-65,-65,-65,-65,-65,-65,-65,-65,-65,-65,-65,-64,-64,-63,-59,-57,-55,-53,-46,-35,-20,-1,22,40,56,65,70,71,71,71,71,71,71,71,71,71,71,73,74,82,88,92,94,94,94,94,95,96,97,97,98,99,99,100,100,101,101,101,101,101,101,101]","[0,0,0,0,0,0,0,0,0,0,0,0,0,0,0,0,0,0,0,0,0,0,0,0,0,0,0,0,0,0,0,0,0,0,0,0,0,0,0,0,0,0,0,0,0,0,0,0,0,0,0,0,0,0,0,0,0,0,0,0,0,0,0,0,0,0]","[0,0,0,0,0,0,0,0,0,0,0,0,0,0,0,0,0,0,0,0,0,0,0,0,0,0,0,0,0,0,0,0,0,0,0,0,0,0,0,0,0,0,0,0,0,0,0,0,0,0,0,0,0,0,0,0,0,0,0,0,0,0,0,0,0,0]","[0,0,0,0,0,0,0,0,0,0,0,0,0,0,0,0,0,0,0,0,0,0,0,0,0,0,0,0,0,0,0,0,0,0,0,0,0,0,0,0,0,0,0,0,0,0,0,0,0,0,0,0,0,0,0,0,0,0,0,0,0,0,0,0,0,0]","[0.00019999999996400675,0.01650000000000773,0.032899999999912666,0.049799999999933675,0.06450000000000955,0.08129999999994197,0.09829999999993788,0.11509999999998399,0.13139999999991403,0.14919999999996492,0.16629999999993572,0.1813999999999112,0.1980999999999824,0.2150000000000034,0.23169999999996094,0.24850000000000705,0.2652999999999395,0.28300000000000125,0.30000000000001137,0.3165000000000049,0.33150000000000546,0.3483999999999128,0.36629999999993856,0.3831999999999596,0.3995000000000033,0.41469999999995366,0.43289999999991835,0.4480999999999824,0.4650999999999783,0.4825000000000017,0.4997999999999365,0.5145999999999873,0.5315999999999832,0.5492999999999313,0.5645999999999844,0.5811999999999529,0.5980999999999881,0.6147999999999314,0.6325000000000074,0.6480000000000103,0.6648999999999177,0.6814999999999998,0.6980999999999824,0.7145999999999759,0.731599999999986,0.7482999999999294,0.7661999999999551,0.7827999999999378,0.7976999999999634,0.8145999999999844,0.8327999999999349,0.8483999999999128,0.8648999999999063,0.8827999999999321,0.8993999999999147,0.915199999999956,0.9318999999999136,0.9485000000000099,0.9650999999999783,0.9816999999999609,0.9983999999999185,1.0150999999999897,1.031899999999908,1.048699999999954,1.0653999999999115,1.0816999999999553]",,9,0,9,0,1,,,,
,,,,,,,,,,,,,,,PAV-9988,2022-11-01_16h07.14.844,GoFitts,2022.1.4,Win32,60.24822268,,,,,"[216.9670461901177,96.59995273050254]","[-192.14153616405002,-139.59899741946234]",40.5,475,2,"[235,235,234,234,234,234,234,234,234,234,234,234,233,222,201,168,122,45,1,-45,-97,-147,-187,-211,-219,-221,-222,-223,-224,-225,-225,-225,-225,-225,-217,-208,-200]","[101,101,101,101,101,101,101,101,101,101,101,101,101,97,92,82,70,36,12,-19,-52,-81,-105,-117,-119,-120,-120,-120,-120,-120,-120,-120,-120,-120,-121,-124,-127]","[0,0,0,0,0,0,0,0,0,0,0,0,0,0,0,0,0,0,0,0,0,0,0,0,0,0,0,0,0,0,0,0,0,0,0,0,0]","[0,0,0,0,0,0,0,0,0,0,0,0,0,0,0,0,0,0,0,0,0,0,0,0,0,0,0,0,0,0,0,0,0,0,0,0,0]","[0,0,0,0,0,0,0,0,0,0,0,0,0,0,0,0,0,0,0,0,0,0,0,0,0,0,0,0,0,0,0,0,0,0,0,0,0]","[0.0005000000000023874,0.017299999999934812,0.033299999999925944,0.04940000000001987,0.0661999999999523,0.08290000000002351,0.09950000000000614,0.11609999999997456,0.13279999999993208,0.1494000000000284,0.16609999999997171,0.18290000000001783,0.19979999999992515,0.21649999999999636,0.2332999999999288,0.2494999999999976,0.26609999999998024,0.28290000000002635,0.30049999999999955,0.3161999999999523,0.3327999999999349,0.34909999999997865,0.36619999999994945,0.38379999999993686,0.3990999999999758,0.4170000000000016,0.43269999999995434,0.44919999999994786,0.4660999999999831,0.4829000000000292,0.49919999999995923,0.5159000000000162,0.534000000000006,0.5507999999999242,0.5676999999999595,0.584199999999953,0.5995000000000061]",,10,0,10,0,1,,,,
,,,,,,,,,,,,,,,PAV-9988,2022-11-01_16h07.14.844,GoFitts,2022.1.4,Win32,60.24822268,,,,,"[-192.14153616405002,-139.59899741946234]","[158.91851901022883,176.49689605088113]",40.5,475,2,"[-200,-196,-192,-190,-189,-189,-189,-189,-189,-189,-189,-189,-189,-189,-189,-182,-153,-99,-1,54,78,97,118,135,151]","[-127,-130,-132,-134,-134,-134,-134,-134,-134,-134,-134,-134,-134,-134,-130,-112,-75,-17,72,112,130,144,158,169,179]","[0,0,0,0,0,0,0,0,0,0,0,0,0,0,0,0,0,0,0,0,0,0,0,0,0]","[0,0,0,0,0,0,0,0,0,0,0,0,0,0,0,0,0,0,0,0,0,0,0,0,0]","[0,0,0,0,0,0,0,0,0,0,0,0,0,0,0,0,0,0,0,0,0,0,0,0,0]","[0.00020000000006348273,0.0173000000000485,0.03300000000000125,0.049700000000072464,0.06659999999997979,0.08290000000002351,0.09940000000001703,0.11609999999997456,0.13270000000007087,0.1495999999999782,0.16609999999997171,0.18280000000004293,0.19950000000000045,0.21640000000002146,0.23290000000001498,0.25,0.2667000000000712,0.28340000000001453,0.29990000000002226,0.3164000000000158,0.333300000000051,0.3499999999999943,0.3668000000000404,0.38400000000000034,0.40120000000007394]",,11,0,11,0,1,,,,
,,,,,,,,,,,,,,,PAV-9988,2022-11-01_16h07.14.844,GoFitts,2022.1.4,Win32,60.24822268,,,,,"[158.91851901022883,176.49689605088113]","[-118.7500000000001,-205.68103339880415]",40.5,475,2,"[151,182,192,211,218,218,218,218,217,215,209,202,200,199,197,197,197,197,190,186,184,184,184,184,184,173,143,106,88,32,-9,-45,-87,-123]","[179,194,198,206,208,208,208,208,208,208,208,208,208,208,207,207,207,200,193,187,184,183,183,182,180,171,147,118,99,34,-26,-88,-143,-186]","[0,0,0,0,0,0,0,0,0,0,0,0,0,0,0,0,0,0,0,0,0,0,0,0,0,0,0,0,0,0,0,0,0,0]","[0,0,0,0,0,0,0,0,0,0,0,0,0,0,0,0,0,0,0,0,0,0,0,0,0,0,0,0,0,0,0,0,0,0]","[0,0,0,0,0,0,0,0,0,0,0,0,0,0,0,0,0,0,0,0,0,0,0,0,0,0,0,0,0,0,0,0,0,0]","[0.0001999999999497959,0.017199999999945703,0.03190000000002158,0.048900000000017485,0.06640000000001578,0.0832999999999231,0.09840000000001226,0.1147999999999314,0.13240000000001828,0.14859999999997342,0.1664000000000243,0.18190000000001305,0.1981999999999431,0.2149000000000143,0.23190000000002442,0.24819999999995446,0.26500000000000057,0.2816999999999439,0.2984000000000151,0.3164999999999907,0.33190000000001874,0.34869999999995116,0.36490000000002,0.3817999999999273,0.3984000000000236,0.41509999999996694,0.4331999999999425,0.45029999999992754,0.4649000000000143,0.48129999999991924,0.49840000000001794,0.51629999999993,0.5334999999999894,0.5499999999999972]",,12,0,12,0,1,,,,
,,,,,,,,,,,,,,,PAV-9988,2022-11-01_16h07.14.844,GoFitts,2022.1.4,Win32,60.24822268,,,,,"[-118.7500000000001,-205.68103339880415]","[73.39153616405002,225.87592262009898]",40.5,475,2,"[-123,-147,-160,-162,-163,-164,-168,-172,-174,-174,-174,-174,-174,-174,-174,-174,-162,-147,-122,-78,-60,-17,7,24,34,38,42,45,47,50,53,55,55,49,42,40,40,40,40,39,39,39,39,39,39,39,39,47,52,53,55,55,56,56,57,58]","[-186,-209,-217,-218,-218,-217,-212,-209,-207,-206,-206,-206,-206,-206,-206,-206,-199,-185,-156,-79,-47,44,98,134,155,164,173,178,181,185,188,190,191,201,204,206,206,206,206,206,206,206,206,206,206,206,208,210,211,212,212,212,212,212,212,213]","[0,0,0,0,0,0,0,0,0,0,0,0,0,0,0,0,0,0,0,0,0,0,0,0,0,0,0,0,0,0,0,0,0,0,0,0,0,0,0,0,0,0,0,0,0,0,0,0,0,0,0,0,0,0,0,0]","[0,0,0,0,0,0,0,0,0,0,0,0,0,0,0,0,0,0,0,0,0,0,0,0,0,0,0,0,0,0,0,0,0,0,0,0,0,0,0,0,0,0,0,0,0,0,0,0,0,0,0,0,0,0,0,0]","[0,0,0,0,0,0,0,0,0,0,0,0,0,0,0,0,0,0,0,0,0,0,0,0,0,0,0,0,0,0,0,0,0,0,0,0,0,0,0,0,0,0,0,0,0,0,0,0,0,0,0,0,0,0,0,0]","[0.0001999999999497959,0.016400000000018622,0.0315999999999832,0.04980000000004736,0.06480000000004793,0.08109999999997797,0.09799999999999898,0.11499999999999488,0.13290000000002067,0.14869999999994832,0.16490000000001714,0.18119999999994718,0.1979000000000184,0.21450000000000102,0.23140000000002203,0.24819999999995446,0.26559999999997785,0.2819999999999965,0.2985999999999791,0.3161999999999523,0.33180000000004384,0.34840000000002647,0.3651999999999589,0.3821999999999548,0.3995000000000033,0.41530000000004463,0.43209999999997706,0.4485999999999706,0.4654000000000167,0.4819999999999993,0.49880000000004543,0.5154000000000281,0.5319000000000216,0.5485999999999791,0.5645999999999702,0.5813000000000415,0.5995000000000061,0.6168000000000404,0.631800000000041,0.6486999999999483,0.6650000000000063,0.68130000000005,0.6983000000000459,0.7146999999999508,0.731400000000022,0.7480000000000047,0.7648000000000508,0.7816999999999581,0.798699999999954,0.8163000000000409,0.8313000000000415,0.8480999999999739,0.8663000000000523,0.8830999999999705,0.8984999999999985,0.9159999999999968]",,13,0,13,0,1,,,,
,,,,,,,,,,,,,,,PAV-9988,2022-11-01_16h07.14.844,GoFitts,2022.1.4,Win32,60.24822268,,,,,"[73.39153616405002,225.87592262009898]","[-24.82551002606788,-236.1989501499649]",40.5,475,2,"[58,58,58,58,58,59,63,65,66,68,69,70,70,70,70,69,64,58,54,44,31,19,10,7,5,5,5,5,5,5,5,5,5,4,0,-3,-6,-7,-7,-7,-8,-13,-29]","[213,213,213,213,213,213,213,213,213,214,215,215,215,215,215,215,214,202,168,105,28,-48,-119,-169,-210,-218,-225,-228,-228,-228,-228,-228,-228,-228,-223,-220,-218,-217,-217,-217,-217,-218,-230]","[0,0,0,0,0,0,0,0,0,0,0,0,0,0,0,0,0,0,0,0,0,0,0,0,0,0,0,0,0,0,0,0,0,0,0,0,0,0,0,0,0,0,0]","[0,0,0,0,0,0,0,0,0,0,0,0,0,0,0,0,0,0,0,0,0,0,0,0,0,0,0,0,0,0,0,0,0,0,0,0,0,0,0,0,0,0,0]","[0,0,0,0,0,0,0,0,0,0,0,0,0,0,0,0,0,0,0,0,0,0,0,0,0,0,0,0,0,0,0,0,0,0,0,0,0,0,0,0,0,0,0]","[0.00020000000007769358,0.017000000000010118,0.03190000000003579,0.04860000000009279,0.06520000000007542,0.08220000000007133,0.09870000000007906,0.11550000000001148,0.13390000000002544,0.1488000000000511,0.1667000000000769,0.18350000000000932,0.20030000000005543,0.2150000000000034,0.23190000000002442,0.24890000000003454,0.2669000000000352,0.2839000000000311,0.30070000000007724,0.31730000000005987,0.33190000000003295,0.34930000000005634,0.36590000000002476,0.382600000000096,0.40050000000000807,0.4156000000000972,0.43220000000007985,0.44930000000005066,0.46690000000002385,0.482200000000077,0.49900000000000944,0.5156000000001058,0.532400000000024,0.5492000000000701,0.5654000000000252,0.5824000000000353,0.5993000000000563,0.6159000000000248,0.6335000000000122,0.648900000000026,0.665800000000047,0.6833000000000595,0.7003000000000554]",,14,0,14,0,1,,,,
,,,,,,,,,,,,,,,PAV-9988,2022-11-01_16h07.14.844,GoFitts,2022.1.4,Win32,60.24822268,,,,,,,,,2,,,,,,,,,,,,,2,0,0,1
,,,,,,,,,,,,,,,PAV-9988,2022-11-01_16h07.14.844,GoFitts,2022.1.4,Win32,60.24822268,,,return,1.4899,"[74,-8]","[-158.94898511924342,-33.78564975788585]",60.5,325,3,"[74,74,74,74,74,74,74,74,74,74,74,74,74,75,76,78,78,79,79,79,80,80,77,55,-42,-79,-173,-210,-221,-221,-221,-221,-221,-221,-221,-217,-199,-187,-177,-171,-168,-167,-167,-167,-167,-167,-167,-167]","[-8,-8,-8,-8,-8,-8,-8,-8,-8,-8,-8,-8,-8,-8,-8,-8,-8,-8,-8,-7,-7,-7,-7,-7,-41,-57,-103,-117,-120,-120,-121,-121,-121,-121,-121,-116,-99,-88,-78,-71,-67,-65,-65,-65,-65,-65,-65,-62]","[0,0,0,0,0,0,0,0,0,0,0,0,0,0,0,0,0,0,0,0,0,0,0,0,0,0,0,0,0,0,0,0,0,0,0,0,0,0,0,0,0,0,0,0,0,0,0,0]","[0,0,0,0,0,0,0,0,0,0,0,0,0,0,0,0,0,0,0,0,0,0,0,0,0,0,0,0,0,0,0,0,0,0,0,0,0,0,0,0,0,0,0,0,0,0,0,0]","[0,0,0,0,0,0,0,0,0,0,0,0,0,0,0,0,0,0,0,0,0,0,0,0,0,0,0,0,0,0,0,0,0,0,0,0,0,0,0,0,0,0,0,0,0,0,0,0]","[0.0006000000000909722,0.018100000000089267,0.033100000000089835,0.049700000000072464,0.06650000000000489,0.08299999999999841,0.09970000000006962,0.1179000000000201,0.13320000000007326,0.15000000000000568,0.1667000000000769,0.1834999999999951,0.20000000000000284,0.21710000000008733,0.23360000000009506,0.2503000000000526,0.2667000000000712,0.283800000000042,0.30020000000007485,0.31720000000007076,0.33490000000001885,0.35180000000005407,0.367100000000093,0.38380000000005055,0.40120000000007394,0.4164999999999992,0.4348000000000525,0.4517000000000735,0.4679000000000286,0.4832000000000676,0.5016000000000957,0.516900000000021,0.5331000000000898,0.5499000000000223,0.5663000000000409,0.5835000000000008,0.6015000000000015,0.6166000000000906,0.6333000000000482,0.6499000000000308,0.6668000000000518,0.6834999999999951,0.6999000000000279,0.7161000000000968,0.7328000000000543,0.7499000000000251,0.7681000000000893,0.7848000000000468]",,0,0,0,0,1,,,,
,,,,,,,,,,,,,,,PAV-9988,2022-11-01_16h07.14.844,GoFitts,2022.1.4,Win32,60.24822268,,,,,"[-158.94898511924342,-33.78564975788585]","[148.45113686692264,66.09470449981752]",60.5,325,3,"[-167,-167,-167,-167,-165,-162,-159,-158,-158,-158,-158,-158,-158,-158,-158,-158,-154,-137,-122,-103,-76,-40,-4,35,46,62,73,85,87,89,90,91,94,101,111,125]","[-62,-57,-53,-48,-42,-34,-31,-29,-29,-29,-29,-29,-29,-29,-29,-29,-29,-29,-28,-25,-20,-12,-2,13,18,25,30,36,38,39,40,41,44,48,53,60]","[0,0,0,0,0,0,0,0,0,0,0,0,0,0,0,0,0,0,0,0,0,0,0,0,0,0,0,0,0,0,0,0,0,0,0,0]","[0,0,0,0,0,0,0,0,0,0,0,0,0,0,0,0,0,0,0,0,0,0,0,0,0,0,0,0,0,0,0,0,0,0,0,0]","[0,0,0,0,0,0,0,0,0,0,0,0,0,0,0,0,0,0,0,0,0,0,0,0,0,0,0,0,0,0,0,0,0,0,0,0]","[0.0005999999999772854,0.016400000000018622,0.031199999999955708,0.04919999999995639,0.06480000000004793,0.08290000000002351,0.09969999999995593,0.11480000000004509,0.13090000000002533,0.148900000000026,0.16450000000000387,0.18099999999999739,0.1976999999999549,0.21440000000002613,0.23080000000004475,0.24780000000004065,0.2648000000000508,0.28290000000002635,0.29980000000004736,0.31490000000002283,0.33140000000001635,0.34850000000000136,0.3651999999999447,0.3824000000000183,0.39809999999997103,0.41490000000001714,0.4311999999999472,0.4480999999999682,0.46640000000002146,0.4816999999999467,0.49869999999995684,0.5156999999999528,0.5316999999999581,0.5485000000000042,0.5660000000000025,0.5825999999999709]",,1,0,1,0,1,,,,
,,,,,,,,,,,,,,,PAV-9988,2022-11-01_16h07.14.844,GoFitts,2022.1.4,Win32,60.24822268,,,,,"[148.45113686692264,66.09470449981752]","[-131.46526158592897,-95.51510349752687]",60.5,325,3,"[125,127,127,127,127,134,145,159,171,177,178,178,178,175,161,153,146,139,128,107,66,8,-60,-112,-147,-159,-162,-164,-167,-168,-168,-168,-162,-155,-147,-136,-120]","[60,61,61,61,61,61,62,65,67,68,69,69,69,69,69,68,66,65,53,26,-12,-58,-104,-139,-158,-161,-161,-161,-161,-160,-159,-158,-153,-146,-138,-128,-114]","[0,0,0,0,0,0,0,0,0,0,0,0,0,0,0,0,0,0,0,0,0,0,0,0,0,0,0,0,0,0,0,0,0,0,0,0,0]","[0,0,0,0,0,0,0,0,0,0,0,0,0,0,0,0,0,0,0,0,0,0,0,0,0,0,0,0,0,0,0,0,0,0,0,0,0]","[0,0,0,0,0,0,0,0,0,0,0,0,0,0,0,0,0,0,0,0,0,0,0,0,0,0,0,0,0,0,0,0,0,0,0,0,0]","[0.0001999999999497959,0.016899999999907322,0.03300000000000125,0.04809999999997672,0.06529999999992242,0.08219999999994343,0.09999999999999432,0.11669999999995184,0.1320999999999799,0.1488999999998981,0.16539999999990584,0.18289999999990414,0.1982999999999322,0.2154999999999916,0.23339999999990368,0.24859999999996774,0.2665999999999684,0.281599999999969,0.29849999999999,0.3164999999999907,0.33199999999999363,0.34850000000000136,0.3652999999999196,0.3818999999999022,0.3996999999999531,0.41529999999993095,0.4330999999999676,0.45019999999995264,0.4650999999999783,0.4829999999999899,0.49849999999999284,0.5150999999999755,0.531599999999969,0.548699999999954,0.5652999999999224,0.5819999999999936,0.598899999999901]",,2,0,2,0,1,,,,
,,,,,,,,,,,,,,,PAV-9988,2022-11-01_16h07.14.844,GoFitts,2022.1.4,Win32,60.24822268,,,,,"[-131.46526158592897,-95.51510349752687]","[108.73372353331446,120.76103414007656]",60.5,325,3,"[-120,-92,-83,-81,-81,-81,-82,-83,-83,-86,-88,-93,-96,-98,-99,-100,-101,-101,-101,-100,-82,-50,-13,28,62,105,112,122,123,123,123,123,123,122,121,114,111,99,82,75,71,69,69,70,74,77,81,82]","[-114,-94,-86,-81,-79,-78,-78,-78,-78,-78,-78,-78,-78,-78,-78,-78,-78,-78,-78,-76,-53,-20,17,54,90,169,187,219,240,242,243,243,243,243,242,229,225,205,173,154,141,132,124,118,113,109,108,107]","[0,0,0,0,0,0,0,0,0,0,0,0,0,0,0,0,0,0,0,0,0,0,0,0,0,0,0,0,0,0,0,0,0,0,0,0,0,0,0,0,0,0,0,0,0,0,0,0]","[0,0,0,0,0,0,0,0,0,0,0,0,0,0,0,0,0,0,0,0,0,0,0,0,0,0,0,0,0,0,0,0,0,0,0,0,0,0,0,0,0,0,0,0,0,0,0,0]","[0,0,0,0,0,0,0,0,0,0,0,0,0,0,0,0,0,0,0,0,0,0,0,0,0,0,0,0,0,0,0,0,0,0,0,0,0,0,0,0,0,0,0,0,0,0,0,0]","[0.0003000000000383807,0.0173000000000485,0.032400000000023965,0.04909999999996728,0.06709999999996796,0.08269999999994582,0.1006999999999465,0.11619999999994945,0.13249999999999318,0.14980000000004168,0.16769999999995377,0.1844999999999999,0.2009000000000185,0.21630000000004657,0.233099999999979,0.2494999999999976,0.2664999999999935,0.28290000000002635,0.29949999999999477,0.3164999999999907,0.33430000000004156,0.34969999999995593,0.36719999999995423,0.38319999999994536,0.3994000000000142,0.4170999999999765,0.4329000000000178,0.44959999999997535,0.4678000000000395,0.48469999999994684,0.4995999999999725,0.5173000000000485,0.5343000000000444,0.5495999999999697,0.5673000000000457,0.5844000000000165,0.5990999999999786,0.6164000000000129,0.6341999999999501,0.6509000000000214,0.665800000000047,0.6826999999999543,0.6993000000000364,0.717599999999976,0.733099999999979,0.7494000000000227,0.766099999999966,0.783800000000042]",,3,0,3,0,1,,,,
,,,,,,,,,,,,,,,PAV-9988,2022-11-01_16h07.14.844,GoFitts,2022.1.4,Win32,60.24822268,,,,,"[108.73372353331446,120.76103414007656]","[-81.25000000000007,-140.72912811497125]",60.5,325,3,"[82,82,82,89,95,98,98,98,99,99,99,99,99,99,99,99,85,50,-5,-61,-121,-169,-199,-210,-211,-210,-205,-204,-203,-194,-180,-164,-148,-132,-119,-117,-112,-112,-111]","[107,107,107,107,107,107,107,108,108,109,110,110,110,111,111,111,109,88,52,3,-51,-103,-140,-160,-170,-173,-175,-175,-175,-173,-169,-165,-160,-156,-150,-149,-147,-147,-146]","[0,0,0,0,0,0,0,0,0,0,0,0,0,0,0,0,0,0,0,0,0,0,0,0,0,0,0,0,0,0,0,0,0,0,0,0,0,0,0]","[0,0,0,0,0,0,0,0,0,0,0,0,0,0,0,0,0,0,0,0,0,0,0,0,0,0,0,0,0,0,0,0,0,0,0,0,0,0,0]","[0,0,0,0,0,0,0,0,0,0,0,0,0,0,0,0,0,0,0,0,0,0,0,0,0,0,0,0,0,0,0,0,0,0,0,0,0,0,0]","[0.0002999999999389047,0.016699999999957527,0.03179999999993299,0.04990000000002226,0.06529999999993663,0.08209999999998274,0.10009999999998342,0.11729999999992913,0.1320999999999799,0.148900000000026,0.16529999999993095,0.18190000000002726,0.19849999999999568,0.2157999999999305,0.23350000000000648,0.24869999999995684,0.26550000000000296,0.2820999999999856,0.2990000000000066,0.3166999999999547,0.33219999999995764,0.34890000000002885,0.36700000000000443,0.38369999999996196,0.4001999999999555,0.41559999999998354,0.43319999999995673,0.44909999999997297,0.4655000000000058,0.4820999999999742,0.49900000000000944,0.5156999999999528,0.5335000000000036,0.5504999999999995,0.567299999999932,0.5821999999999576,0.5999000000000194,0.6155999999999722,0.6324000000000325]",,4,0,4,0,1,,,,
,,,,,,,,,,,,,,,PAV-9988,2022-11-01_16h07.14.844,GoFitts,2022.1.4,Win32,60.24822268,,,,,"[-81.25000000000007,-140.72912811497125]","[50.215261585928964,154.54668389796245]",60.5,325,3,"[-111,-110,-110,-109,-108,-108,-108,-108,-108,-103,-98,-94,-92,-91,-91,-91,-88,-84,-71,-57,-40,-21,-3,12,30]","[-146,-146,-146,-146,-145,-145,-145,-145,-145,-143,-142,-140,-139,-138,-138,-136,-124,-101,-58,-9,43,91,130,153,173]","[0,0,0,0,0,0,0,0,0,0,0,0,0,0,0,0,0,0,0,0,0,0,0,0,0]","[0,0,0,0,0,0,0,0,0,0,0,0,0,0,0,0,0,0,0,0,0,0,0,0,0]","[0,0,0,0,0,0,0,0,0,0,0,0,0,0,0,0,0,0,0,0,0,0,0,0,0]","[0.00030000000005259153,0.017499999999998295,0.03249999999999886,0.05100000000000193,0.06730000000004566,0.08410000000009177,0.09940000000001703,0.11730000000004281,0.13290000000002067,0.14960000000009188,0.1661000000000996,0.18270000000006803,0.19920000000007576,0.21560000000009438,0.2324000000000268,0.25060000000009097,0.26600000000000534,0.283800000000042,0.30080000000005214,0.316200000000066,0.3339000000000283,0.34940000000001703,0.36610000000008824,0.38299999999999557,0.40070000000007155]",,5,0,5,0,1,,,,
,,,,,,,,,,,,,,,PAV-9988,2022-11-01_16h07.14.844,GoFitts,2022.1.4,Win32,60.24822268,,,,,"[50.215261585928964,154.54668389796245]","[-16.985875280993813,-161.6098079973444]",60.5,325,3,"[30,38,42,43,43,43,43,43,43,43,43,45,47,47,48,48,48,48,48,40,28,10,-4,-15,-19,-15]","[173,179,182,182,182,182,182,182,182,182,182,182,182,182,182,182,182,182,182,173,153,110,56,-5,-93,-139]","[0,0,0,0,0,0,0,0,0,0,0,0,0,0,0,0,0,0,0,0,0,0,0,0,0,0]","[0,0,0,0,0,0,0,0,0,0,0,0,0,0,0,0,0,0,0,0,0,0,0,0,0,0]","[0,0,0,0,0,0,0,0,0,0,0,0,0,0,0,0,0,0,0,0,0,0,0,0,0,0]","[0.00020000000007769358,0.01680000000004611,0.03340000000002874,0.049700000000072464,0.06499999999999773,0.08150000000000546,0.09809999999997387,0.11490000000001999,0.13150000000000261,0.14809999999998524,0.16609999999998593,0.18180000000005236,0.19830000000004588,0.2150000000000034,0.23190000000002442,0.24840000000003215,0.26490000000002567,0.2815000000000083,0.2983000000000544,0.3150999999999726,0.3328000000000486,0.34859999999997626,0.3654000000000224,0.3822000000000685,0.3995999999999782,0.4163000000000494]",,6,0,6,0,1,,,,
,,,,,,,,,,,,,,,PAV-9988,2022-11-01_16h07.14.844,GoFitts,2022.1.4,Win32,60.24822268,,,,,"[-16.985875280993813,-161.6098079973444]","[-16.985875280993668,161.60980799734443]",60.5,325,3,"[-15,-13,-11,-11,-11,-12,-13,-14,-14,-14,-14,-14,-14,-14,-14,-14,-14,-14,-13,-13,-13,-13,-14,-18,-18,-19]","[-139,-166,-186,-197,-200,-201,-201,-201,-201,-201,-201,-201,-201,-197,-190,-180,-167,-149,-124,-93,-55,9,29,88,103,140]","[0,0,0,0,0,0,0,0,0,0,0,0,0,0,0,0,0,0,0,0,0,0,0,0,0,0]","[0,0,0,0,0,0,0,0,0,0,0,0,0,0,0,0,0,0,0,0,0,0,0,0,0,0]","[0,0,0,0,0,0,0,0,0,0,0,0,0,0,0,0,0,0,0,0,0,0,0,0,0,0]","[0.00030000000005259153,0.016700000000071213,0.0315999999999832,0.04909999999998149,0.06650000000000489,0.08240000000002112,0.09900000000000375,0.11650000000000205,0.13309999999998468,0.14849999999999852,0.16520000000006974,0.18209999999997706,0.1985999999999848,0.215300000000056,0.233099999999979,0.2503000000000526,0.26530000000005316,0.28320000000007894,0.2989000000000317,0.3155000000000001,0.3332000000000761,0.350200000000072,0.3650000000000091,0.38320000000007326,0.398900000000026,0.4162000000000745]",,7,0,7,0,1,,,,
,,,,,,,,,,,,,,,PAV-9988,2022-11-01_16h07.14.844,GoFitts,2022.1.4,Win32,60.24822268,,,,,"[-16.985875280993668,161.60980799734443]","[50.21526158592892,-154.54668389796245]",60.5,325,3,"[-19,-19,-19,-19,-19,-19,-19,-19,-19,-19,-19,-20,-20,-20,-20,-20,-21,-21,-14,-1,7,17,21,32,37,39]","[140,156,165,169,169,170,170,170,170,170,170,170,170,170,170,170,170,163,137,93,48,-4,-28,-91,-115,-134]","[0,0,0,0,0,0,0,0,0,0,0,0,0,0,0,0,0,0,0,0,0,0,0,0,0,0]","[0,0,0,0,0,0,0,0,0,0,0,0,0,0,0,0,0,0,0,0,0,0,0,0,0,0]","[0,0,0,0,0,0,0,0,0,0,0,0,0,0,0,0,0,0,0,0,0,0,0,0,0,0]","[0.00009999999997489795,0.01690000000002101,0.03230000000004907,0.048699999999954,0.06530000000005032,0.08230000000004623,0.09869999999995116,0.11530000000004748,0.132000000000005,0.14859999999997342,0.16519999999995605,0.18319999999995673,0.20030000000005543,0.21659999999998547,0.23169999999996094,0.2498000000000502,0.26540000000002806,0.28240000000002397,0.2985999999999791,0.3165999999999798,0.3340999999999781,0.3501999999999583,0.3651999999999589,0.3818000000000552,0.3988000000000511,0.4170999999999765]",,8,0,8,0,1,,,,
,,,,,,,,,,,,,,,PAV-9988,2022-11-01_16h07.14.844,GoFitts,2022.1.4,Win32,60.24822268,,,,,"[50.21526158592892,-154.54668389796245]","[-81.24999999999996,140.7291281149713]",60.5,325,3,"[39,39,39,38,38,38,38,38,38,38,38,38,38,38,37,32,26,16,-2,-24,-54,-87,-91,-101,-104,-105]","[-134,-145,-152,-155,-157,-157,-157,-157,-157,-157,-157,-157,-157,-157,-153,-139,-122,-98,-63,-21,22,67,78,102,114,122]","[0,0,0,0,0,0,0,0,0,0,0,0,0,0,0,0,0,0,0,0,0,0,0,0,0,0]","[0,0,0,0,0,0,0,0,0,0,0,0,0,0,0,0,0,0,0,0,0,0,0,0,0,0]","[0,0,0,0,0,0,0,0,0,0,0,0,0,0,0,0,0,0,0,0,0,0,0,0,0,0]","[0.00020000000006348273,0.016200000000068826,0.03140000000001919,0.04800000000000182,0.06470000000007303,0.08120000000006655,0.09809999999997387,0.11470000000007019,0.13140000000002772,0.14809999999997103,0.16480000000004225,0.18140000000002487,0.1979000000000184,0.21459999999997592,0.23170000000007462,0.24850000000000705,0.26520000000006405,0.28300000000000125,0.2985999999999791,0.3153000000000503,0.33170000000006894,0.34959999999998104,0.3648000000000451,0.3815000000000026,0.39820000000007383,0.41480000000004225]",,9,0,9,0,1,,,,
,,,,,,,,,,,,,,,PAV-9988,2022-11-01_16h07.14.844,GoFitts,2022.1.4,Win32,60.24822268,,,,,"[-81.24999999999996,140.7291281149713]","[108.7337235333145,-120.76103414007653]",60.5,325,3,"[-105,-105,-105,-105,-105,-105,-105,-105,-105,-105,-105,-105,-105,-104,-104,-103,-103,-103,-103,-98,-76,-55,-30,-6,15,34,45,54,63,70,80,90]","[122,129,135,139,142,144,145,145,145,145,145,145,145,145,145,145,145,145,145,134,102,80,58,36,14,-10,-31,-51,-73,-93,-110,-122]","[0,0,0,0,0,0,0,0,0,0,0,0,0,0,0,0,0,0,0,0,0,0,0,0,0,0,0,0,0,0,0,0]","[0,0,0,0,0,0,0,0,0,0,0,0,0,0,0,0,0,0,0,0,0,0,0,0,0,0,0,0,0,0,0,0]","[0,0,0,0,0,0,0,0,0,0,0,0,0,0,0,0,0,0,0,0,0,0,0,0,0,0,0,0,0,0,0,0]","[0.00039999999991380264,0.017299999999934812,0.033199999999951046,0.050499999999999545,0.06789999999990926,0.08429999999992788,0.09950000000000614,0.11719999999995423,0.13279999999993208,0.1490999999999758,0.166899999999913,0.18250000000000455,0.19919999999994786,0.21769999999995093,0.23419999999995866,0.24939999999990903,0.26589999999990255,0.28249999999999886,0.2991999999999564,0.3157999999999248,0.3338999999999004,0.34909999999997865,0.367399999999904,0.38439999999989993,0.40079999999993277,0.4160999999999717,0.4339999999999975,0.44950000000000045,0.465999999999994,0.4825000000000017,0.4989999999999952,0.5160000000000053]",,10,0,10,0,1,,,,
,,,,,,,,,,,,,,,PAV-9988,2022-11-01_16h07.14.844,GoFitts,2022.1.4,Win32,60.24822268,,,,,"[108.7337235333145,-120.76103414007653]","[-131.46526158592894,95.51510349752691]",60.5,325,3,"[90,97,98,98,98,98,98,98,98,99,99,99,99,97,94,80,45,7,-42,-86,-116,-132,-144]","[-122,-127,-127,-128,-128,-128,-128,-128,-128,-126,-123,-119,-113,-107,-103,-90,-62,-35,-4,25,47,62,77]","[0,0,0,0,0,0,0,0,0,0,0,0,0,0,0,0,0,0,0,0,0,0,0]","[0,0,0,0,0,0,0,0,0,0,0,0,0,0,0,0,0,0,0,0,0,0,0]","[0,0,0,0,0,0,0,0,0,0,0,0,0,0,0,0,0,0,0,0,0,0,0]","[0.0001999999999497959,0.0172999999999206,0.03309999999997615,0.049699999999944566,0.06590000000001339,0.08259999999997092,0.09949999999999193,0.11569999999994707,0.13259999999996808,0.1496999999999531,0.16740000000001487,0.1834000000000202,0.20079999999992992,0.2179999999999893,0.2327999999999264,0.2496999999999474,0.2674000000000234,0.2844000000000193,0.30079999999992424,0.3164000000000158,0.3332999999999231,0.3499000000000194,0.3679000000000201]",,11,0,11,0,1,,,,
,,,,,,,,,,,,,,,PAV-9988,2022-11-01_16h07.14.844,GoFitts,2022.1.4,Win32,60.24822268,,,,,"[-131.46526158592894,95.51510349752691]","[148.45113686692267,-66.09470449981752]",60.5,325,3,"[-144,-152,-153,-155,-156,-157,-157,-158,-158,-158,-158,-158,-158,-158,-157,-157,-156,-152,-147,-143,-129,-108,-76,-30,17,89,111,150]","[77,94,100,110,115,117,122,123,125,125,125,125,125,125,125,125,125,125,125,124,117,107,93,71,46,3,-13,-41]","[0,0,0,0,0,0,0,0,0,0,0,0,0,0,0,0,0,0,0,0,0,0,0,0,0,0,0,0]","[0,0,0,0,0,0,0,0,0,0,0,0,0,0,0,0,0,0,0,0,0,0,0,0,0,0,0,0]","[0,0,0,0,0,0,0,0,0,0,0,0,0,0,0,0,0,0,0,0,0,0,0,0,0,0,0,0]","[0.00030000000005259153,0.01650000000000773,0.031699999999958095,0.049000000000006594,0.0660999999999774,0.08130000000004145,0.09819999999994877,0.11630000000005225,0.131800000000041,0.1495000000000033,0.1663000000000494,0.18300000000000693,0.1976999999999549,0.21480000000005361,0.23140000000002203,0.24790000000002976,0.26600000000000534,0.2814000000000192,0.299300000000045,0.31449999999999534,0.33150000000000546,0.34919999999995355,0.3649999999999949,0.3825000000000074,0.39819999999996014,0.4159999999999968,0.4311999999999614,0.4479000000000184]",,12,0,12,0,1,,,,
,,,,,,,,,,,,,,,PAV-9988,2022-11-01_16h07.14.844,GoFitts,2022.1.4,Win32,60.24822268,,,,,"[148.45113686692267,-66.09470449981752]","[-158.94898511924342,33.78564975788589]",60.5,325,3,"[150,193,210,216,218,218,218,218,218,214,210,208,201,181,166,156,148,143,137,126,105,81,49,11,-27,-54,-73,-89,-96,-100,-106,-112,-117,-121,-123,-125,-125,-126,-131,-135]","[-41,-72,-87,-93,-96,-97,-97,-97,-96,-93,-91,-89,-87,-80,-76,-72,-69,-67,-65,-61,-54,-47,-38,-27,-19,-12,-7,-1,1,3,7,10,12,14,15,16,16,17,19,20]","[0,0,0,0,0,0,0,0,0,0,0,0,0,0,0,0,0,0,0,0,0,0,0,0,0,0,0,0,0,0,0,0,0,0,0,0,0,0,0,0]","[0,0,0,0,0,0,0,0,0,0,0,0,0,0,0,0,0,0,0,0,0,0,0,0,0,0,0,0,0,0,0,0,0,0,0,0,0,0,0,0]","[0,0,0,0,0,0,0,0,0,0,0,0,0,0,0,0,0,0,0,0,0,0,0,0,0,0,0,0,0,0,0,0,0,0,0,0,0,0,0,0]","[0.00020000000006348273,0.017800000000036675,0.033100000000089835,0.04990000000002226,0.06630000000004088,0.08290000000002351,0.09980000000004452,0.11630000000003804,0.13330000000004816,0.15110000000008483,0.16820000000006985,0.18310000000009552,0.20000000000000284,0.21790000000001442,0.23290000000001498,0.2494999999999976,0.2662000000000688,0.28330000000003963,0.29999999999999716,0.3164000000000158,0.3336000000000894,0.3504000000000218,0.3672000000000679,0.38380000000005055,0.40030000000004407,0.4168000000000376,0.4336000000000837,0.45000000000000284,0.46690000000002385,0.48430000000004725,0.5004000000000275,0.5177000000000618,0.5337000000000671,0.5503000000000497,0.5672000000000708,0.5844000000000165,0.5999000000000194,0.6182000000000727,0.6347000000000662,0.6516000000000872]",,13,0,13,0,1,,,,
,,,,,,,,,,,,,,,PAV-9988,2022-11-01_16h07.14.844,GoFitts,2022.1.4,Win32,60.24822268,,,,,"[-158.94898511924342,33.78564975788589]","[162.5,0]",60.5,325,3,"[-135,-139,-140,-141,-142,-142,-142,-142,-142,-142,-142,-142,-139,-133,-121,-109,-100,-88,-72,-50,-9,9,59,82,100,109,113,116,117,118,120,120,120,121,129,150]","[20,22,23,24,24,24,24,24,24,24,24,24,24,25,26,27,27,28,28,28,28,26,20,15,9,7,5,5,4,4,4,4,4,4,4,4]","[0,0,0,0,0,0,0,0,0,0,0,0,0,0,0,0,0,0,0,0,0,0,0,0,0,0,0,0,0,0,0,0,0,0,0,0]","[0,0,0,0,0,0,0,0,0,0,0,0,0,0,0,0,0,0,0,0,0,0,0,0,0,0,0,0,0,0,0,0,0,0,0,0]","[0,0,0,0,0,0,0,0,0,0,0,0,0,0,0,0,0,0,0,0,0,0,0,0,0,0,0,0,0,0,0,0,0,0,0,0]","[0.00010000000008858478,0.016400000000018622,0.03140000000001919,0.0482000000000653,0.06510000000008631,0.08280000000004861,0.09799999999999898,0.1142000000000678,0.1312000000000637,0.14790000000002124,0.16430000000003986,0.18120000000006087,0.1978000000000435,0.21640000000002146,0.23299999999998988,0.24770000000006576,0.26470000000006166,0.28230000000004907,0.2980000000000018,0.31449999999999534,0.3323000000000462,0.347999999999999,0.36580000000003565,0.3813000000000386,0.39760000000008233,0.41449999999998965,0.4314000000000249,0.4479999999999933,0.4649000000000143,0.48130000000004713,0.4993000000000478,0.5162000000000688,0.5311000000000945,0.5491000000000952,0.5660000000000025,0.5811000000000917]",,14,0,14,0,1,,,,
,,,,,,,,,,,,,,,PAV-9988,2022-11-01_16h07.14.844,GoFitts,2022.1.4,Win32,60.24822268,,,,,,,,,3,,,,,,,,,,,,,3,0,0,1
,,,,,,,,,,,,,,,PAV-9988,2022-11-01_16h07.14.844,GoFitts,2022.1.4,Win32,60.24822268,,,return,1.42,"[15,-37]","[108.15594803123153,-332.8697807033038]",20,700,4,"[15,15,15,15,15,15,15,15,15,15,15,15,15,15,15,15,15,15,15,15,15,15,15,15,12,5,11,29,46,59,68,74,74,74,73,72,72,72,74,75,75,77,84,88,97,105,109,110,110,110,110,110,110,110,110,110,110,107]","[-37,-37,-37,-37,-37,-37,-37,-37,-37,-37,-37,-37,-37,-37,-37,-37,-37,-37,-37,-37,-37,-37,-37,-37,-38,-46,-70,-107,-145,-171,-188,-200,-203,-206,-207,-210,-213,-217,-223,-229,-241,-255,-277,-285,-294,-301,-303,-303,-303,-303,-303,-303,-303,-304,-310,-315,-317,-327]","[0,0,0,0,0,0,0,0,0,0,0,0,0,0,0,0,0,0,0,0,0,0,0,0,0,0,0,0,0,0,0,0,0,0,0,0,0,0,0,0,0,0,0,0,0,0,0,0,0,0,0,0,0,0,0,0,0,0]","[0,0,0,0,0,0,0,0,0,0,0,0,0,0,0,0,0,0,0,0,0,0,0,0,0,0,0,0,0,0,0,0,0,0,0,0,0,0,0,0,0,0,0,0,0,0,0,0,0,0,0,0,0,0,0,0,0,0]","[0,0,0,0,0,0,0,0,0,0,0,0,0,0,0,0,0,0,0,0,0,0,0,0,0,0,0,0,0,0,0,0,0,0,0,0,0,0,0,0,0,0,0,0,0,0,0,0,0,0,0,0,0,0,0,0,0,0]","[0.0005999999999772854,0.017500000000012506,0.03279999999993777,0.04959999999998388,0.0662999999999414,0.08279999999993493,0.09939999999991755,0.11619999999996367,0.13269999999995719,0.1493999999999147,0.16629999999993572,0.18289999999991835,0.19939999999991187,0.2157999999999305,0.2326999999999657,0.24939999999990903,0.26619999999995514,0.28279999999993777,0.2992999999999313,0.3160000000000025,0.334199999999953,0.34950000000000614,0.36609999999998877,0.3827999999999321,0.3997999999999422,0.4165999999999883,0.4341999999999615,0.4511999999999574,0.46789999999991494,0.4830000000000041,0.500199999999964,0.5175999999999874,0.5330999999999904,0.5512999999999408,0.5678999999999093,0.584399999999917,0.5995000000000061,0.6165999999999769,0.6343999999999141,0.6496999999999531,0.6670000000000016,0.6833999999999065,0.7010999999999825,0.7166999999999604,0.733099999999979,0.7495000000000118,0.7660999999999802,0.7840999999999809,0.8011999999999659,0.8165000000000049,0.8328999999999098,0.8496999999999559,0.866500000000002,0.8846999999999667,0.9016999999999626,0.9182999999999311,0.9335000000000093,0.950699999999955]",,0,0,0,0,1,,,,
