key_resp_4.keys,key_resp_4.rt,身分證字號,date,expName,psychopyVersion,OS,frameRate,mouse_2.x,mouse_2.y,mouse_2.leftButton,mouse_2.midButton,mouse_2.rightButton,mouse_2.time,cont.keys,cont.rt,retry_testing.thisRepN,retry_testing.thisTrialN,retry_testing.thisN,retry_testing.thisIndex,retry_testing.ran,key_resp.keys,key_resp.rt,key_resp_3.keys,key_resp_3.rt,from,to,w,a,sequence_loop.thisN,mouse.x,mouse.y,mouse.leftButton,mouse.midButton,mouse.rightButton,mouse.time,key_resp_2.keys,trial_loop.thisRepN,trial_loop.thisTrialN,trial_loop.thisN,trial_loop.thisIndex,trial_loop.ran,sequence_loop.thisRepN,sequence_loop.thisTrialN,sequence_loop.thisIndex,sequence_loop.ran
return,5.9303,R223499753,2022-12-15_11h12.06.676,GoFitts,2022.2.4,Win32,59.21714929,,,,,,,,,,,,,,,,,,,,,,,,,,,,,,,,,,,,,,
,,R223499753,2022-12-15_11h12.06.676,GoFitts,2022.2.4,Win32,59.21714929,"[120.5,119.5,119.5,118.5,118.5,117.5,117.5,117.5,117.5,117.5,117.5,117.5,117.5,117.5,117.5,117.5,117.5,117.5,117.5,117.5,117.5,117.5,117.5,117.5,117.5,117.5,117.5,117.5,117.5,117.5,117.5,117.5,115.5,113.5,108.5,101.5,95.5,90.5,87.5,85.5,83.5,81.5,80.5,80.5,80.5,80.5,80.5,80.5,80.5,80.5,80.5,80.5,80.5,80.5,81.5,84.5,88.5,105.5,123.5,151.5,193.5,260.5,284.5,309.5,314.5,316.5,316.5,316.5,316.5,316.5,316.5,316.5,317.5,317.5,317.5,317.5,317.5,317.5,317.5,317.5,319.5,320.5,324.5,327.5,331.5,334.5,337.5,337.5,337.5,337.5,337.5,337.5,337.5,337.5,337.5,337.5,337.5,337.5,337.5,337.5,337.5,337.5,334.5,325.5,287.5,239.5,189.5,119.5,66.5,40.5,10.5,8.5,8.5,11.5,13.5,14.5,15.5,15.5,17.5,17.5,18.5,18.5,18.5,19.5,19.5,19.5,17.5,14.5,11.5,5.5,3.5,2.5,1.5,1.5,1.5,1.5,1.5,1.5,1.5,1.5,1.5,1.5,0.5,-1.5,-6.5,-13.5,-33.5,-60.5,-85.5,-107.5,-127.5,-147.5,-172.5,-192.5,-201.5,-211.5,-216.5,-220.5,-223.5,-225.5,-226.5,-226.5,-226.5,-226.5,-226.5,-226.5,-226.5,-226.5,-226.5,-226.5,-226.5,-226.5,-226.5,-226.5,-226.5,-226.5,-226.5,-226.5,-226.5,-226.5,-226.5,-226.5,-226.5,-226.5,-227.5,-227.5,-227.5,-227.5,-227.5,-227.5,-227.5,-227.5,-227.5,-227.5,-227.5,-229.5,-231.5,-238.5,-245.5,-254.5,-266.5,-276.5,-289.5,-299.5,-305.5,-309.5,-312.5,-314.5,-317.5,-321.5,-324.5,-326.5,-329.5,-332.5,-335.5,-338.5,-340.5,-341.5,-341.5,-342.5,-342.5,-343.5,-344.5,-346.5,-346.5,-346.5,-346.5,-346.5,-346.5,-346.5,-346.5,-346.5,-346.5,-347.5,-349.5,-349.5,-349.5,-350.5,-350.5,-345.5,-337.5,-317.5,-288.5,-239.5,-179.5,-99.5,-58.5,-35.5,-35.5,-35.5,-35.5,-35.5,-35.5,-35.5,-35.5,-35.5,-35.5,-35.5,-35.5,-35.5,-8.5,-11.5,-14.5,-18.5,-20.5,-22.5,-23.5,-23.5,-23.5,-22.5,-20.5,-15.5,-12.5,-9.5]","[108,107,107,107,107,106,106,106,106,106,106,106,106,106,106,106,106,106,106,106,106,106,106,106,106,106,106,106,106,106,106,106,105,103,96,88,82,77,73,70,69,67,66,66,66,66,66,66,66,66,66,66,66,66,61,55,51,40,30,18,6,-8,-15,-19,-20,-20,-20,-20,-19,-18,-16,-13,-10,-7,-6,-4,0,1,3,4,5,5,6,6,6,6,6,6,6,6,6,6,6,6,6,6,6,6,6,6,6,5,5,5,22,63,105,165,216,245,291,297,302,306,308,310,312,314,315,316,317,317,318,319,323,324,329,333,336,342,343,345,346,346,346,346,346,346,346,346,346,346,346,342,324,298,250,216,193,178,167,156,142,127,120,109,103,98,94,92,91,91,91,91,91,91,91,91,91,91,91,91,91,91,91,91,91,91,91,91,91,91,91,91,91,90,90,90,90,90,90,90,90,90,90,88,85,77,69,59,45,33,18,7,1,-3,-4,-6,-7,-11,-12,-13,-14,-14,-14,-14,-14,-14,-13,-13,-12,-11,-6,-3,-3,-3,-3,-3,-3,-3,-3,-3,-3,-3,-3,-3,-3,-3,-4,-17,-30,-59,-102,-178,-267,-360,-398,-415,-415,-415,-415,-415,-415,-415,-415,-415,-415,-415,-415,-415,-411,-407,-403,-400,-398,-397,-396,-395,-393,-386,-380,-372,-368,-365]","[0,0,0,0,0,0,0,0,0,0,0,0,0,0,0,0,0,0,0,0,0,0,0,0,0,0,0,0,0,0,0,0,0,0,0,0,0,0,0,0,0,0,0,0,0,0,0,0,0,0,0,0,0,0,0,0,0,0,0,0,0,0,0,0,0,0,0,0,0,0,0,0,0,0,0,0,0,0,0,0,0,0,0,0,0,0,0,0,0,0,0,1,1,1,1,1,1,0,0,0,0,0,0,0,0,0,0,0,0,0,0,0,0,0,0,0,0,0,0,0,0,0,0,0,0,0,0,0,0,0,0,0,0,0,0,1,1,1,1,1,0,0,0,0,0,0,0,0,0,0,0,0,0,0,0,0,0,0,0,0,0,0,0,0,0,0,0,0,0,0,0,0,0,0,0,0,0,0,0,0,0,0,0,0,0,0,0,0,0,0,0,0,0,0,0,0,0,0,0,0,0,0,0,0,0,0,0,0,0,0,0,0,0,0,0,0,0,0,0,0,0,0,0,0,0,0,1,1,1,1,0,0,0,0,0,0,0,0,0,0,0,0,0,0,0,0,0,0,0,0,0,0,0,0,0,0,0,0,0,0,0,0,0,0,0,0,0,0,0,0,0,0,0,0]","[0,0,0,0,0,0,0,0,0,0,0,0,0,0,0,0,0,0,0,0,0,0,0,0,0,0,0,0,0,0,0,0,0,0,0,0,0,0,0,0,0,0,0,0,0,0,0,0,0,0,0,0,0,0,0,0,0,0,0,0,0,0,0,0,0,0,0,0,0,0,0,0,0,0,0,0,0,0,0,0,0,0,0,0,0,0,0,0,0,0,0,0,0,0,0,0,0,0,0,0,0,0,0,0,0,0,0,0,0,0,0,0,0,0,0,0,0,0,0,0,0,0,0,0,0,0,0,0,0,0,0,0,0,0,0,0,0,0,0,0,0,0,0,0,0,0,0,0,0,0,0,0,0,0,0,0,0,0,0,0,0,0,0,0,0,0,0,0,0,0,0,0,0,0,0,0,0,0,0,0,0,0,0,0,0,0,0,0,0,0,0,0,0,0,0,0,0,0,0,0,0,0,0,0,0,0,0,0,0,0,0,0,0,0,0,0,0,0,0,0,0,0,0,0,0,0,0,0,0,0,0,0,0,0,0,0,0,0,0,0,0,0,0,0,0,0,0,0,0,0,0,0,0,0,0,0,0,0,0,0,0,0,0,0,0,0,0,0,0,0,0,0,0,0]","[0,0,0,0,0,0,0,0,0,0,0,0,0,0,0,0,0,0,0,0,0,0,0,0,0,0,0,0,0,0,0,0,0,0,0,0,0,0,0,0,0,0,0,0,0,0,0,0,0,0,0,0,0,0,0,0,0,0,0,0,0,0,0,0,0,0,0,0,0,0,0,0,0,0,0,0,0,0,0,0,0,0,0,0,0,0,0,0,0,0,0,0,0,0,0,0,0,0,0,0,0,0,0,0,0,0,0,0,0,0,0,0,0,0,0,0,0,0,0,0,0,0,0,0,0,0,0,0,0,0,0,0,0,0,0,0,0,0,0,0,0,0,0,0,0,0,0,0,0,0,0,0,0,0,0,0,0,0,0,0,0,0,0,0,0,0,0,0,0,0,0,0,0,0,0,0,0,0,0,0,0,0,0,0,0,0,0,0,0,0,0,0,0,0,0,0,0,0,0,0,0,0,0,0,0,0,0,0,0,0,0,0,0,0,0,0,0,0,0,0,0,0,0,0,0,0,0,0,0,0,0,0,0,0,0,0,0,0,0,0,0,0,0,0,0,0,0,0,0,0,0,0,0,0,0,0,0,0,0,0,0,0,0,0,0,0,0,0,0,0,0,0,0,0]","[0.0035999999977640584,0.022699999999254317,0.026199999999253265,0.043899999998508576,0.0589999999999975,0.07699999999999818,0.09239999999850923,0.10899999999999821,0.12589999999850932,0.14219999999925292,0.15889999999851057,0.1760999999977635,0.19219999999925363,0.2091999999992531,0.22589999999850718,0.2423999999985078,0.2588000000007433,0.2754999999999974,0.2923000000007434,0.3089999999999975,0.3258000000007435,0.3425999999977627,0.3591999999992552,0.37559999999776394,0.3925999999977634,0.40889999999851057,0.42639999999850886,0.4423999999985071,0.4588000000007426,0.4758999999985072,0.4926999999992532,0.5088000000007433,0.526800000000744,0.5433000000007446,0.5599999999999987,0.5766999999992528,0.5938000000007442,0.6098000000007424,0.6266999999992535,0.64389999999851,0.6598000000007431,0.6768999999985077,0.6935000000000002,0.7093999999985101,0.7258999999985072,0.7421999999992543,0.7588000000007433,0.7760999999977649,0.7921999999992551,0.8090999999977626,0.8256999999992551,0.843,0.8588000000007447,0.8756999999992523,0.8935999999977646,0.9100999999977653,0.9269999999999996,0.9431999999992549,0.9596999999992555,0.9778000000007445,0.9935999999977625,1.0109999999999992,1.0278999999985103,1.0433000000007446,1.0603999999985092,1.0768000000007447,1.0926999999992546,1.1089999999999982,1.1268999999985105,1.1431999999992541,1.1613000000007432,1.1768999999985077,1.1933999999985083,1.209899999998509,1.2268000000007433,1.2436999999992544,1.2596999999992526,1.2781999999992522,1.2938999999985086,1.3105999999977627,1.3263000000007423,1.3434999999999988,1.3598000000007424,1.377099999997764,1.3934999999999995,1.4128000000007432,1.4268999999985077,1.442399999998507,1.459199999999253,1.4755999999977654,1.4923999999985078,1.5088000000007433,1.5256999999992544,1.542199999999255,1.5588999999985091,1.5768999999985098,1.5921999999992522,1.6091999999992552,1.6263999999985082,1.642199999999253,1.6593999999985094,1.6764999999999972,1.6938000000007456,1.7110999999977636,1.7268999999985084,1.7431999999992556,1.7608999999985073,1.7768999999985091,1.7929999999999993,1.8118999999985093,1.8268000000007447,1.8434999999999988,1.8606999999992553,1.8774999999999977,1.8945999999977623,1.9103000000007455,1.9265999999977623,1.943099999997763,1.959899999998509,1.9768999999985084,1.9931999999992556,2.0090999999977655,2.026800000000744,2.0468999999985087,2.0686999999992537,2.07689999999851,2.0933000000007453,2.1106999999992553,2.1268999999985105,2.144399999998509,2.161199999999255,2.1768999999985077,2.1935000000000002,2.2088999999985077,2.2258000000007456,2.242599999997765,2.2588999999985084,2.275800000000743,2.292699999999254,2.3095,2.3263000000007423,2.342800000000743,2.3613000000007425,2.3768999999985105,2.393199999999254,2.4100999999977653,2.4270999999977647,2.4433999999985083,2.46089999999851,2.476699999999255,2.4934999999999974,2.509999999999998,2.528099999997764,2.543499999999998,2.5613999999985104,2.5763000000007423,2.5936999999992523,2.611199999999254,2.6268999999985105,2.6428999999985088,2.659800000000743,2.6763000000007438,2.6928000000007444,2.709199999999253,2.7258000000007456,2.742599999997765,2.759499999999999,2.776099999997765,2.7923999999985085,2.8091999999992545,2.8260000000000005,2.842300000000744,2.859699999999254,2.8756999999992523,2.8925999999977634,2.9093000000007443,2.9261999999992554,2.942499999999999,2.9588999999985077,2.975899999998507,2.9930999999977637,3.0088999999985084,3.0261999999992533,3.0428999999985074,3.0606999999992546,3.076699999999253,3.092300000000744,3.108999999999998,3.126099999997763,3.142300000000745,3.158999999999999,3.17589999999851,3.192599999997764,3.209300000000745,3.226599999997763,3.2436999999992544,3.2610999999977643,3.2769999999999975,3.2943000000007423,3.3113000000007453,3.3270999999977633,3.344999999999999,3.3605999999977634,3.3773000000007443,3.393699999999253,3.4108999999985095,3.4279999999999973,3.443099999997763,3.4596999999992555,3.4778999999985096,3.493300000000744,3.509999999999998,3.5266999999992557,3.5450999999977633,3.5613999999985104,3.5764999999999993,3.5951999999992523,3.6099999999999994,3.6266999999992535,3.6434999999999995,3.6623999999985095,3.678699999999253,3.6943000000007444,3.715,3.7276999999992526,3.74289999999851,3.7590000000000003,3.775800000000743,3.7923000000007434,3.8091999999992545,3.8260000000000005,3.8431999999992534,3.858999999999998,3.877800000000743,3.8935999999977646,3.909099999997764,3.9263000000007438,3.9433999999985083,3.9594999999999985,3.9770999999977654,3.9934999999999974,4.010999999999999,4.027999999999999,4.0440000000000005,4.062599999997765,4.07839999999851,4.093800000000744,4.109199999999255,4.126099999997763,4.142699999999255,4.159099999997764,4.175999999999998,4.192800000000744,4.209099999997765,4.22639999999851,4.242800000000745,4.259300000000746,4.276699999999256,4.2925,4.3091999999992545,4.3280999999977645,4.344800000000745,4.361699999999253,4.3766999999992535,4.3933000000007425,4.4115,4.427300000000745,4.443399999998508,4.4596999999992555,4.477,4.4935999999977625,4.51139999999851,4.527300000000743,4.543499999999998]",return,2.7643,0,0,0,0,1,,,,,,,,,,,,,,,,,,,,,,,,,
,,R223499753,2022-12-15_11h12.06.676,GoFitts,2022.2.4,Win32,59.21714929,,,,,,,,,,,,,,return,1.4489,,,,,,,,,,,,,,,,,,,,,,,
,,R223499753,2022-12-15_11h12.06.676,GoFitts,2022.2.4,Win32,59.21714929,,,,,,,,,,,,,,,,return,0.5577,"[103.5,-164]","[73.39153616405002,225.87592262009898]",40.5,475,0,"[103.5,103.5,103.5,103.5,103.5,103.5,103.5,103.5,103.5,103.5,103.5,103.5,103.5,103.5,103.5,103.5,103.5,103.5,103.5,103.5,103.5,103.5,102.5,99.5,95.5,94.5,93.5,93.5,93.5,93.5,94.5,96.5,96.5,96.5,96.5,96.5,96.5,96.5,96.5,96.5,96.5,96.5,96.5,97.5,97.5,97.5,95.5,90.5,86.5,84.5,81.5]","[-164,-164,-164,-164,-164,-164,-164,-164,-164,-164,-164,-164,-164,-164,-164,-164,-164,-164,-164,-164,-164,-162,-149,-122,-97,-49,7,41,68,88,98,115,124,133,140,143,147,152,154,155,156,158,161,167,172,177,183,192,199,204,210]","[0,0,0,0,0,0,0,0,0,0,0,0,0,0,0,0,0,0,0,0,0,0,0,0,0,0,0,0,0,0,0,0,0,0,0,0,0,0,0,0,0,0,0,0,0,0,0,0,0,0,0]","[0,0,0,0,0,0,0,0,0,0,0,0,0,0,0,0,0,0,0,0,0,0,0,0,0,0,0,0,0,0,0,0,0,0,0,0,0,0,0,0,0,0,0,0,0,0,0,0,0,0,0]","[0,0,0,0,0,0,0,0,0,0,0,0,0,0,0,0,0,0,0,0,0,0,0,0,0,0,0,0,0,0,0,0,0,0,0,0,0,0,0,0,0,0,0,0,0,0,0,0,0,0,0]","[0.0039000000022362258,0.026199999999256818,0.031800000000746564,0.04769999999925645,0.0633000000007442,0.08030000000074722,0.09700000000000131,0.1138000000007473,0.13019999999925602,0.14669999999925665,0.1636999999992561,0.18019999999925673,0.1968000000007457,0.2136000000014917,0.2301999999992539,0.24680000000074642,0.26360000000148887,0.2803000000007465,0.2969000000022355,0.3134000000022361,0.32990000000223674,0.3478000000007455,0.36419999999925423,0.3811999999992537,0.39949999999999974,0.4154000000022364,0.43100000000000094,0.44950000000000045,0.4651999999992569,0.48100000000000165,0.497900000002236,0.5148000000007471,0.5311000000014907,0.5480000000000018,0.5643000000007454,0.5811999999992565,0.5993000000007456,0.6144000000022345,0.6309000000022351,0.6496000000014917,0.6644000000022352,0.6810000000000009,0.69910000000149,0.7149999999999999,0.73110000000149,0.7486000000014918,0.7643000000007447,0.782,0.7980000000000018,0.8148000000007443,0.8309999999999995]",,0,0,0,0,1,,,,
,,R223499753,2022-12-15_11h12.06.676,GoFitts,2022.2.4,Win32,59.21714929,,,,,,,,,,,,,,,,,,"[73.39153616405002,225.87592262009898]","[-24.82551002606788,-236.1989501499649]",40.5,475,0,"[81.5,80.5,79.5,79.5,79.5,79.5,79.5,79.5,79.5,79.5,79.5,79.5,79.5,79.5,79.5,79.5,79.5,79.5,79.5,79.5,79.5,79.5,79.5,79.5,79.5,79.5,79.5,79.5,79.5,79.5,79.5,78.5,77.5,76.5,74.5,71.5,63.5,45.5,6.5,-11.5,-30.5,-40.5,-45.5,-47.5,-47.5,-47.5,-47.5,-47.5,-46.5,-45.5,-45.5,-45.5,-45.5,-46.5,-47.5,-47.5,-47.5,-47.5,-47.5,-47.5,-45.5,-39.5]","[210,212,213,215,215,215,215,215,215,215,215,215,215,215,215,215,215,215,215,215,215,215,215,215,215,215,215,215,215,215,215,214,205,200,195,184,158,112,15,-33,-89,-117,-136,-150,-164,-168,-173,-178,-186,-196,-204,-216,-225,-234,-244,-249,-254,-255,-255,-255,-253,-249]","[0,0,0,0,0,0,0,1,1,1,1,1,1,0,0,0,0,0,0,0,0,0,0,0,0,0,0,0,0,0,0,0,0,0,0,0,0,0,0,0,0,0,0,0,0,0,0,0,0,0,0,0,0,0,0,0,0,0,0,0,0,0]","[0,0,0,0,0,0,0,0,0,0,0,0,0,0,0,0,0,0,0,0,0,0,0,0,0,0,0,0,0,0,0,0,0,0,0,0,0,0,0,0,0,0,0,0,0,0,0,0,0,0,0,0,0,0,0,0,0,0,0,0,0,0]","[0,0,0,0,0,0,0,0,0,0,0,0,0,0,0,0,0,0,0,0,0,0,0,0,0,0,0,0,0,0,0,0,0,0,0,0,0,0,0,0,0,0,0,0,0,0,0,0,0,0,0,0,0,0,0,0,0,0,0,0,0,0]","[0.0009000000022361121,0.01919999999925537,0.03260000000149077,0.049100000001491395,0.06500000000000128,0.08130000000074489,0.098199999999256,0.11469999999925307,0.13140000000223395,0.14860000000149043,0.16490000000223404,0.18230000000074398,0.19869999999925625,0.21460000000148938,0.23180000000074585,0.24849999999999994,0.2654000000022343,0.2814000000022361,0.2989999999999995,0.3150000000000013,0.33140000000223324,0.348199999999256,0.3653000000007438,0.3813000000007456,0.39819999999925315,0.4146999999992538,0.43140000000223466,0.44830000000074577,0.4649999999999963,0.48180000000074585,0.4981999999992581,0.5158000000007448,0.5324999999999989,0.549199999999253,0.5661000000014909,0.5838000000007426,0.6004000000022316,0.6176999999992532,0.6326000000014886,0.6496000000014917,0.6666000000014876,0.6836999999992557,0.699300000000747,0.7175000000000011,0.7329000000022319,0.7491000000014907,0.7674000000022332,0.783600000001492,0.7996999999992553,0.8178000000007444,0.8331999999992519,0.8489999999999966,0.8664000000022369,0.883100000001491,0.8995000000000033,0.9178000000007458,0.9324999999999974,0.9495000000000005,0.9649999999999963,0.9813000000007435,1.0006000000014907,1.018100000001489]",,1,0,1,0,1,,,,
,,R223499753,2022-12-15_11h12.06.676,GoFitts,2022.2.4,Win32,59.21714929,,,,,,,,,,,,,,,,,,"[-24.82551002606788,-236.1989501499649]","[-24.825510026067665,236.19895014996493]",40.5,475,0,"[-39.5,-33.5,-24.5,-22.5,-22.5,-22.5,-22.5,-22.5,-22.5,-22.5,-22.5,-22.5,-22.5,-22.5,-22.5,-22.5,-22.5,-22.5,-22.5,-23.5,-25.5,-30.5,-39.5,-49.5,-52.5,-52.5,-47.5,-41.5,-36.5,-29.5,-23.5,-18.5,-15.5,-14.5,-14.5]","[-249,-245,-242,-241,-241,-241,-241,-241,-241,-241,-241,-241,-241,-241,-241,-241,-239,-238,-234,-225,-181,-111,-36,30,80,103,137,156,167,176,187,199,208,216,223]","[0,0,0,0,0,1,1,1,1,1,1,1,1,0,0,0,0,0,0,0,0,0,0,0,0,0,0,0,0,0,0,0,0,0,0]","[0,0,0,0,0,0,0,0,0,0,0,0,0,0,0,0,0,0,0,0,0,0,0,0,0,0,0,0,0,0,0,0,0,0,0]","[0,0,0,0,0,0,0,0,0,0,0,0,0,0,0,0,0,0,0,0,0,0,0,0,0,0,0,0,0,0,0,0,0,0,0]","[0.000699999999248746,0.014300000000744717,0.03040000000223131,0.04730000000073886,0.06319999999924875,0.07980000000074483,0.09640000000223381,0.1131000000014879,0.129800000000742,0.14619999999925426,0.1629000000022316,0.1796999999992508,0.1966000000014887,0.21310000000148932,0.23049999999999926,0.24669999999925096,0.2643000000007447,0.28030000000074295,0.2988000000007389,0.3138000000007395,0.33060000000148904,0.34719999999925477,0.3639000000022321,0.3811000000014886,0.3993000000007427,0.4139999999999944,0.43069999999924846,0.44730000000074455,0.46380000000074517,0.48149999999999693,0.4986000000014883,0.5139999999999958,0.5311999999992523,0.5474000000022343,0.5638000000007395]",,2,0,2,0,1,,,,
,,R223499753,2022-12-15_11h12.06.676,GoFitts,2022.2.4,Win32,59.21714929,,,,,,,,,,,,,,,,,,"[-24.825510026067665,236.19895014996493]","[73.39153616404997,-225.875922620099]",40.5,475,0,"[-14.5,-14.5,-14.5,-14.5,-14.5,-14.5,-14.5,-14.5,-14.5,-14.5,-14.5,-14.5,-14.5,-14.5,-14.5,-14.5,-14.5,-14.5,-14.5,-14.5,-15.5,-15.5,-16.5,-16.5,-15.5,-9.5,-5.5,1.5,8.5,14.5,18.5,21.5,22.5,24.5,26.5,27.5,28.5,29.5,32.5,36.5,45.5,52.5,63.5,74.5,83.5,91.5]","[223,231,237,241,241,241,241,241,241,241,241,241,241,241,241,241,241,241,241,241,238,225,197,172,154,124,104,71,30,7,-14,-29,-41,-54,-67,-73,-77,-80,-86,-94,-118,-138,-162,-189,-207,-223]","[0,0,0,0,0,0,0,0,0,0,0,0,1,1,1,1,1,0,0,0,0,0,0,0,0,0,0,0,0,0,0,0,0,0,0,0,0,0,0,0,0,0,0,0,0,0]","[0,0,0,0,0,0,0,0,0,0,0,0,0,0,0,0,0,0,0,0,0,0,0,0,0,0,0,0,0,0,0,0,0,0,0,0,0,0,0,0,0,0,0,0,0,0]","[0,0,0,0,0,0,0,0,0,0,0,0,0,0,0,0,0,0,0,0,0,0,0,0,0,0,0,0,0,0,0,0,0,0,0,0,0,0,0,0,0,0,0,0,0,0]","[0.00039999999851403345,0.016199999999258807,0.03359999999776875,0.04930000000074841,0.06450000000000244,0.08119999999925653,0.09799999999999898,0.11459999999776471,0.13130000000074915,0.14809999999776835,0.16480000000074568,0.18159999999776488,0.19830000000074932,0.2150000000000034,0.23130000000074347,0.24799999999999756,0.2648999999985122,0.2810999999977639,0.29780000000074835,0.31450000000000244,0.3340000000000032,0.3500000000000014,0.3658999999985113,0.3836999999992585,0.39880000000074745,0.41559999999776664,0.434599999997765,0.451199999999254,0.4658999999985127,0.4835999999977645,0.49880000000074887,0.5153999999985075,0.534099999997764,0.5489999999999995,0.5660000000000025,0.5821999999992542,0.5993999999985107,0.6158000000007462,0.6321999999992585,0.6493000000007427,0.6653000000007481,0.6825999999977626,0.6985999999977679,0.7163000000007429,0.7323999999985134,0.7491999999992558]",,3,0,3,0,1,,,,
,,R223499753,2022-12-15_11h12.06.676,GoFitts,2022.2.4,Win32,59.21714929,,,,,,,,,,,,,,,,,,"[73.39153616404997,-225.875922620099]","[-118.74999999999994,205.6810333988042]",40.5,475,0,"[91.5,97.5,102.5,104.5,105.5,105.5,105.5,105.5,105.5,105.5,104.5,104.5,104.5,102.5,99.5,90.5,81.5,74.5,70.5,68.5,66.5,66.5,66.5,66.5,65.5,63.5,56.5,27.5,0.5,-26.5,-63.5,-94.5,-120.5,-134.5]","[-223,-235,-247,-251,-253,-254,-254,-255,-255,-255,-256,-256,-256,-256,-254,-243,-235,-229,-225,-222,-221,-220,-218,-216,-212,-203,-184,-102,-28,32,94,142,185,208]","[0,0,0,0,0,0,0,0,0,0,0,0,0,0,0,0,0,0,0,0,0,0,0,0,0,0,0,0,0,0,0,0,0,0]","[0,0,0,0,0,0,0,0,0,0,0,0,0,0,0,0,0,0,0,0,0,0,0,0,0,0,0,0,0,0,0,0,0,0]","[0,0,0,0,0,0,0,0,0,0,0,0,0,0,0,0,0,0,0,0,0,0,0,0,0,0,0,0,0,0,0,0,0,0]","[0.000499999999995282,0.015299999997019142,0.03339999999850818,0.048799999997015675,0.06519999999925119,0.08209999999775874,0.09809999999776409,0.11529999999701346,0.13100000000000023,0.14759999999775886,0.16509999999776426,0.18079999999701357,0.1980000000000004,0.2154999999999987,0.23379999999701795,0.2486999999992534,0.26519999999925403,0.28359999999776164,0.3001999999992506,0.3155999999977652,0.33339999999850534,0.3488999999985083,0.3653999999985089,0.381699999999249,0.3994999999999962,0.41719999999925506,0.43199999999999505,0.4484999999999957,0.4654999999999987,0.4838999999985063,0.5001999999992535,0.5163999999985052,0.5319999999999965,0.5485999999977622]",,4,0,4,0,1,,,,
,,R223499753,2022-12-15_11h12.06.676,GoFitts,2022.2.4,Win32,59.21714929,,,,,,,,,,,,,,,,,,"[-118.74999999999994,205.6810333988042]","[158.9185190102289,-176.49689605088108]",40.5,475,0,"[-134.5,-146.5,-149.5,-150.5,-150.5,-152.5,-152.5,-152.5,-152.5,-152.5,-152.5,-152.5,-152.5,-144.5,-138.5,-133.5,-131.5,-129.5,-127.5,-124.5,-124.5,-121.5,-120.5,-119.5,-117.5,-116.5,-116.5,-116.5,-116.5,-116.5,-116.5,-116.5,-116.5,-116.5,-116.5,-116.5,-116.5,-116.5,-116.5,-116.5,-116.5,-116.5,-116.5,-116.5,-116.5,-116.5,-116.5,-116.5,-116.5,-116.5,-116.5,-116.5,-116.5,-116.5,-116.5,-116.5,-116.5,-116.5,-116.5,-116.5,-116.5,-116.5,-116.5,-116.5,-116.5,-116.5,-116.5,-116.5,-116.5,-116.5,-116.5,-116.5,-116.5,-116.5,-116.5,-116.5,-116.5,-116.5,-116.5,-116.5,-116.5,-116.5,-116.5,-116.5,-116.5,-117.5,-120.5,-123.5,-125.5,-127.5,-127.5,-127.5,-128.5,-128.5,-128.5,-128.5,-127.5,-123.5,-115.5,-92.5,-77.5,-55.5,-36.5,-20.5,2.5,40.5,53.5,70.5,78.5,82.5,86.5,87.5,87.5,88.5,88.5,88.5,88.5,90.5,91.5,93.5,96.5,99.5,102.5,108.5,123.5,134.5,150.5]","[208,233,240,245,247,250,252,252,252,252,252,252,252,243,235,230,227,224,221,215,212,209,204,201,196,194,194,193,193,193,193,193,193,193,193,193,193,193,193,193,193,193,193,193,193,193,193,193,193,193,193,193,193,193,193,193,193,193,193,193,193,193,193,193,193,193,193,193,193,193,193,193,193,193,193,193,193,193,193,193,193,193,193,193,193,192,189,185,181,179,177,175,171,168,167,165,163,157,146,114,92,53,15,-21,-62,-127,-145,-163,-171,-174,-176,-176,-176,-176,-176,-176,-176,-174,-173,-170,-168,-167,-166,-166,-171,-175,-179]","[0,0,0,0,0,0,0,0,0,0,0,0,0,0,0,0,0,0,0,0,0,0,0,0,0,0,0,0,0,0,0,0,0,0,0,0,0,0,0,0,0,0,0,0,0,0,0,0,0,0,0,0,0,0,0,0,0,0,0,0,0,0,0,0,0,0,0,0,0,0,0,0,0,0,0,0,0,0,0,0,0,0,0,0,0,0,0,0,0,0,0,0,0,0,0,0,0,0,0,0,0,0,0,0,0,0,0,0,0,0,0,0,0,0,0,0,0,0,0,0,0,0,0,0,0,0,0]","[0,0,0,0,0,0,0,0,0,0,0,0,0,0,0,0,0,0,0,0,0,0,0,0,0,0,0,0,0,0,0,0,0,0,0,0,0,0,0,0,0,0,0,0,0,0,0,0,0,0,0,0,0,0,0,0,0,0,0,0,0,0,0,0,0,0,0,0,0,0,0,0,0,0,0,0,0,0,0,0,0,0,0,0,0,0,0,0,0,0,0,0,0,0,0,0,0,0,0,0,0,0,0,0,0,0,0,0,0,0,0,0,0,0,0,0,0,0,0,0,0,0,0,0,0,0,0]","[0,0,0,0,0,0,0,0,0,0,0,0,0,0,0,0,0,0,0,0,0,0,0,0,0,0,0,0,0,0,0,0,0,0,0,0,0,0,0,0,0,0,0,0,0,0,0,0,0,0,0,0,0,0,0,0,0,0,0,0,0,0,0,0,0,0,0,0,0,0,0,0,0,0,0,0,0,0,0,0,0,0,0,0,0,0,0,0,0,0,0,0,0,0,0,0,0,0,0,0,0,0,0,0,0,0,0,0,0,0,0,0,0,0,0,0,0,0,0,0,0,0,0,0,0,0,0]","[0.0005000000000023874,0.015800000000744774,0.03260000000148722,0.04930000000074841,0.06730000000074199,0.08269999999925659,0.09939999999851068,0.11500000000000199,0.13180000000074443,0.14860000000149398,0.1651000000014875,0.1818999999985067,0.19810000000148875,0.21610000000148943,0.23419999999925523,0.24930000000074415,0.26710000000149137,0.28430000000074784,0.2998000000007437,0.31610000000149086,0.33280000000074494,0.34980000000074796,0.366899999998509,0.3825000000000003,0.39939999999850784,0.415699999999255,0.4314999999999998,0.44919999999925864,0.4651999999992569,0.4816999999992575,0.4983000000007465,0.5151000000014889,0.5316000000014895,0.5481000000014902,0.5649999999999977,0.5816000000014938,0.5985000000000014,0.615000000000002,0.6315000000000026,0.648699999999252,0.6651000000014875,0.6813999999985114,0.6981999999992539,0.7153000000007452,0.7325000000000017,0.7483000000007465,0.7648999999985122,0.7815000000000012,0.7984999999999971,0.8148999999985094,0.8316000000014938,0.8485000000000014,0.8656000000014927,0.8823000000007468,0.8983000000007451,0.9155000000000015,0.9316000000014881,0.9483000000007422,0.9653000000007452,0.9816999999992575,0.9984999999999999,1.0153999999985075,1.0320000000000036,1.0483000000007436,1.0648000000007443,1.0816999999992518,1.098300000000748,1.1154999999999973,1.1315000000000026,1.1484999999999985,1.165300000000748,1.1816000000014881,1.1988000000007446,1.2148000000007428,1.2316000000014924,1.2485,1.2653000000007424,1.2816000000014895,1.2983999999985087,1.3153999999985118,1.3316000000014938,1.3485000000000014,1.3651999999992555,1.3821000000014934,1.3981999999992567,1.4161000000014923,1.4338999999985091,1.4498999999985074,1.466000000000001,1.4826999999992552,1.4994999999999976,1.5163000000007472,1.5346000000014897,1.5495000000000019,1.565800000000742,1.58289999999851,1.5996999999992525,1.6171000000014928,1.6341000000014887,1.6506000000014893,1.6663000000007457,1.6828999999985115,1.7000000000000028,1.7169999999999987,1.734800000000746,1.7498000000007465,1.7661000000014937,1.7826000000014872,1.7998000000007437,1.816199999999256,1.8326000000014915,1.8493999999985107,1.8654999999999973,1.8825000000000003,1.9003000000007475,1.915300000000748,1.9320000000000022,1.9498999999985074,1.9658000000007476,1.9828999999985086,1.9998000000007465,2.0171000000014914,2.0341000000014873,2.0493999999985135,2.065899999998507,2.082800000000745,2.099800000000748]",,5,0,5,0,1,,,,
,,R223499753,2022-12-15_11h12.06.676,GoFitts,2022.2.4,Win32,59.21714929,,,,,,,,,,,,,,,,,,"[158.9185190102289,-176.49689605088108]","[-192.14153616405,139.5989974194624]",40.5,475,0,"[150.5,160.5,166.5,170.5,170.5,170.5,170.5,170.5,170.5,170.5,170.5,170.5,170.5,170.5,170.5,170.5,170.5,170.5,170.5,167.5,161.5,146.5,105.5,69.5,18.5,-28.5,-75.5,-106.5,-118.5,-128.5,-131.5,-133.5,-134.5,-136.5,-139.5,-140.5,-141.5,-142.5,-143.5,-143.5,-143.5,-143.5,-144.5,-148.5,-150.5,-167.5,-175.5,-182.5,-185.5]","[-179,-182,-184,-185,-185,-185,-185,-185,-185,-185,-185,-185,-185,-185,-185,-185,-185,-185,-185,-185,-182,-176,-153,-129,-87,-42,6,44,66,85,94,98,100,103,105,106,108,109,109,109,109,109,109,108,108,109,114,121,126]","[0,0,0,0,0,0,0,1,1,1,1,1,1,1,1,0,0,0,0,0,0,0,0,0,0,0,0,0,0,0,0,0,0,0,0,0,0,0,0,0,0,0,0,0,0,0,0,0,0]","[0,0,0,0,0,0,0,0,0,0,0,0,0,0,0,0,0,0,0,0,0,0,0,0,0,0,0,0,0,0,0,0,0,0,0,0,0,0,0,0,0,0,0,0,0,0,0,0,0]","[0,0,0,0,0,0,0,0,0,0,0,0,0,0,0,0,0,0,0,0,0,0,0,0,0,0,0,0,0,0,0,0,0,0,0,0,0,0,0,0,0,0,0,0,0,0,0,0,0]","[0.000399999998506928,0.01710000000148426,0.03219999999924994,0.050499999999999545,0.06480000000074426,0.0816000000014867,0.09799999999999898,0.11510000000148324,0.13139999999850716,0.14780000000074267,0.16469999999925022,0.18119999999925085,0.19789999999850494,0.21539999999850323,0.23130000000074347,0.2478000000007441,0.2644999999999982,0.2814999999999941,0.298600000001489,0.31630000000074787,0.3323000000007461,0.34830000000074435,0.36539999999851247,0.38330000000074804,0.39899999999999736,0.41539999999850963,0.43230000000074753,0.44969999999925747,0.4656000000014906,0.4839999999999982,0.5033000000007455,0.5206000000014903,0.5343000000007443,0.5498000000007472,0.565600000001492,0.5821000000014926,0.5988000000007467,0.6156999999992543,0.6341000000014922,0.6479999999999997,0.6648000000007421,0.6813999999985079,0.6990000000000016,0.7156000000014906,0.734600000001489,0.7506000000014872,0.7663000000007436,0.7823000000007418,0.7998999999985124]",,6,0,6,0,1,,,,
,,R223499753,2022-12-15_11h12.06.676,GoFitts,2022.2.4,Win32,59.21714929,,,,,,,,,,,,,,,,,,"[-192.14153616405,139.5989974194624]","[216.96704619011774,-96.59995273050254]",40.5,475,0,"[-185.5,-185.5,-185.5,-185.5,-185.5,-185.5,-185.5,-185.5,-185.5,-185.5,-185.5,-185.5,-185.5,-185.5,-185.5,-185.5,-185.5,-185.5,-184.5,-178.5,-162.5,-67.5,-67.5,-12.5,24.5,71.5,90.5,101.5,107.5,112.5,116.5,126.5,143.5,160.5,177.5,195.5,203.5]","[126,128,130,132,134,134,134,134,134,134,134,134,134,134,134,134,134,134,134,128,113,34,34,4,-11,-27,-33,-38,-41,-42,-43,-47,-53,-62,-72,-83,-91]","[0,0,0,0,0,0,0,1,1,1,1,1,1,0,0,0,0,0,0,0,0,0,0,0,0,0,0,0,0,0,0,0,0,0,0,0,0]","[0,0,0,0,0,0,0,0,0,0,0,0,0,0,0,0,0,0,0,0,0,0,0,0,0,0,0,0,0,0,0,0,0,0,0,0,0]","[0,0,0,0,0,0,0,0,0,0,0,0,0,0,0,0,0,0,0,0,0,0,0,0,0,0,0,0,0,0,0,0,0,0,0,0,0]","[0.0008999999985093154,0.015000000000000568,0.03330000000074307,0.04809999999776693,0.06439999999850698,0.08050000000000068,0.09700000000000131,0.11489999999851364,0.13030000000074438,0.1473000000007474,0.16400000000000148,0.1805000000000021,0.19759999999776312,0.21380000000074517,0.23049999999999926,0.24769999999925574,0.2648999999985122,0.28089999999851045,0.2984999999999971,0.3146999999992559,0.3340999999977683,0.3661999999992531,0.37030000000074637,0.3828000000007421,0.3981999999992567,0.4148000000007457,0.4315999999977649,0.4480999999977655,0.46489999999850795,0.48230000000074824,0.4978999999985092,0.5148999999985122,0.5315999999977663,0.5493000000007484,0.5653000000007466,0.5825000000000031,0.5985000000000014]",,7,0,7,0,1,,,,
,,R223499753,2022-12-15_11h12.06.676,GoFitts,2022.2.4,Win32,59.21714929,,,,,,,,,,,,,,,,,,"[216.96704619011774,-96.59995273050254]","[-232.31005517427886,49.379026569217835]",40.5,475,0,"[203.5,206.5,206.5,206.5,206.5,207.5,208.5,210.5,214.5,218.5,220.5,222.5,222.5,222.5,222.5,222.5,222.5,222.5,217.5,212.5,203.5,187.5,156.5,121.5,40.5,-14.5,-64.5,-99.5,-120.5,-136.5,-154.5,-166.5,-176.5,-183.5,-194.5,-200.5,-208.5,-210.5,-210.5,-210.5,-210.5,-210.5,-210.5,-210.5,-210.5,-211.5,-212.5,-212.5,-212.5,-212.5,-212.5,-213.5,-214.5,-216.5,-216.5,-217.5,-217.5,-218.5]","[-91,-95,-98,-100,-104,-108,-110,-112,-115,-117,-119,-119,-119,-119,-118,-118,-117,-116,-114,-111,-108,-104,-98,-91,-77,-61,-42,-27,-17,-10,-1,5,10,14,18,20,23,24,24,24,24,24,24,24,24,26,27,28,28,29,30,31,32,32,33,34,35,37]","[0,0,0,0,0,0,0,0,0,0,0,0,0,0,0,0,0,0,0,0,0,0,0,0,0,0,0,0,0,0,0,0,0,0,0,0,0,0,0,0,0,0,0,0,0,0,0,0,0,0,0,0,0,0,0,0,0,0]","[0,0,0,0,0,0,0,0,0,0,0,0,0,0,0,0,0,0,0,0,0,0,0,0,0,0,0,0,0,0,0,0,0,0,0,0,0,0,0,0,0,0,0,0,0,0,0,0,0,0,0,0,0,0,0,0,0,0]","[0,0,0,0,0,0,0,0,0,0,0,0,0,0,0,0,0,0,0,0,0,0,0,0,0,0,0,0,0,0,0,0,0,0,0,0,0,0,0,0,0,0,0,0,0,0,0,0,0,0,0,0,0,0,0,0,0,0]","[0.0006999999992558514,0.015199999999261138,0.031500000000001194,0.04919999999926006,0.06569999999926068,0.08189999999851238,0.09839999999851301,0.11500000000000199,0.13169999999925608,0.14980000000074511,0.1651000000014946,0.1818999999985138,0.19750000000000512,0.21400000000000574,0.2333000000007459,0.24750000000000227,0.2656000000014913,0.2833999999985153,0.29919999999926006,0.3151000000014932,0.33200000000000074,0.3486000000014897,0.3655000000000044,0.38180000000074443,0.3998000000007451,0.4153999999985132,0.4321000000014905,0.4488000000007446,0.46610000000148943,0.48360000000149483,0.4986000000014954,0.515100000001496,0.532199999999257,0.5488999999985111,0.5645000000000024,0.5833999999985124,0.5988999999985154,0.615000000000002,0.6310000000000002,0.6476999999992543,0.6641999999992549,0.6810000000000045,0.6973999999985097,0.7143000000007476,0.731500000000004,0.7486999999992605,0.765100000001496,0.7830000000000013,0.7989999999999995,0.8151999999992583,0.83139999999851,0.8493000000007456,0.8653000000007509,0.8828000000007492,0.8993000000007498,0.9149999999999991,0.9320000000000022,0.9486000000014911]",,8,0,8,0,1,,,,
,,R223499753,2022-12-15_11h12.06.676,GoFitts,2022.2.4,Win32,59.21714929,,,,,,,,,,,,,,,,,,"[-232.31005517427886,49.379026569217835]","[237.5,0]",40.5,475,0,"[-218.5,-219.5,-219.5,-219.5,-219.5,-219.5,-219.5,-219.5,-219.5,-219.5,-219.5,-219.5,-219.5,-219.5,-219.5,-219.5,-219.5,-219.5,-215.5,-203.5,-176.5,-103.5,-31.5,28.5,90.5,124.5,150.5,160.5,167.5,168.5,169.5,170.5,173.5,177.5,182.5,192.5,209.5,220.5]","[37,38,38,39,39,39,39,39,39,39,39,39,39,39,39,39,39,39,40,40,40,36,32,24,16,11,7,6,6,6,7,8,8,8,8,8,5,2]","[0,0,0,0,0,0,0,0,0,0,0,0,0,0,0,0,0,0,0,0,0,0,0,0,0,0,0,0,0,0,0,0,0,0,0,0,0,0]","[0,0,0,0,0,0,0,0,0,0,0,0,0,0,0,0,0,0,0,0,0,0,0,0,0,0,0,0,0,0,0,0,0,0,0,0,0,0]","[0,0,0,0,0,0,0,0,0,0,0,0,0,0,0,0,0,0,0,0,0,0,0,0,0,0,0,0,0,0,0,0,0,0,0,0,0,0]","[0.0008999999985093154,0.016099999997763348,0.031500000000001194,0.04939999999851352,0.06509999999776284,0.08159999999776346,0.0983000000007479,0.1150999999977671,0.13219999999925847,0.14849999999999852,0.16499999999999915,0.18200000000000216,0.1985999999977679,0.21539999999851034,0.23189999999851096,0.24859999999776505,0.26519999999925403,0.2820999999977687,0.29969999999925534,0.3164999999999978,0.33239999999850767,0.34959999999776414,0.3658000000007462,0.38239999999851193,0.3995999999977684,0.41609999999776903,0.43249999999999744,0.4501999999992563,0.4660999999977662,0.48450000000000415,0.4996999999992582,0.5158999999985099,0.5326999999992523,0.5498000000007437,0.5663999999985094,0.5835000000000008,0.5995999999977641,0.6161999999992531]",,9,0,9,0,1,,,,
,,R223499753,2022-12-15_11h12.06.676,GoFitts,2022.2.4,Win32,59.21714929,,,,,,,,,,,,,,,,,,"[237.5,0]","[-232.31005517427886,-49.37902656921778]",40.5,475,0,"[220.5,227.5,232.5,232.5,232.5,232.5,233.5,234.5,234.5,234.5,234.5,234.5,234.5,234.5,234.5,234.5,233.5,229.5,218.5,195.5,159.5,107.5,26.5,-35.5,-96.5,-124.5,-147.5,-160.5,-168.5,-172.5,-177.5,-183.5,-189.5,-194.5,-198.5,-198.5,-198.5,-198.5,-198.5,-198.5,-198.5,-198.5,-198.5,-198.5,-200.5,-207.5,-216.5]","[2,0,0,0,0,0,0,0,0,0,0,0,0,0,0,0,-1,-2,-4,-6,-10,-15,-27,-34,-37,-41,-45,-50,-55,-58,-62,-66,-69,-70,-71,-71,-71,-71,-71,-71,-71,-71,-71,-68,-63,-53,-46]","[0,0,0,0,0,0,0,0,0,0,0,0,0,0,0,0,0,0,0,0,0,0,0,0,0,0,0,0,0,0,0,0,0,0,0,0,0,0,0,0,0,0,0,0,0,0,0]","[0,0,0,0,0,0,0,0,0,0,0,0,0,0,0,0,0,0,0,0,0,0,0,0,0,0,0,0,0,0,0,0,0,0,0,0,0,0,0,0,0,0,0,0,0,0,0]","[0,0,0,0,0,0,0,0,0,0,0,0,0,0,0,0,0,0,0,0,0,0,0,0,0,0,0,0,0,0,0,0,0,0,0,0,0,0,0,0,0,0,0,0,0,0,0]","[0.0005999999977674975,0.017000000000003013,0.03300000000000125,0.04830000000075074,0.06450000000000244,0.08109999999776818,0.09939999999851068,0.11559999999776949,0.13159999999776772,0.14800000000000324,0.16500000000000625,0.1813000000007463,0.1980000000000004,0.2150000000000034,0.2316999999992575,0.24830000000074648,0.26550000000000296,0.2823999999985105,0.29889999999851113,0.31580000000074904,0.3335000000000008,0.3506999999992573,0.3655000000000044,0.3825000000000003,0.399099999997766,0.415699999999255,0.43330000000074875,0.45039999999850977,0.46539999999851034,0.48180000000074585,0.49939999999851636,0.5156999999992564,0.5326999999992594,0.5490999999977717,0.5655000000000001,0.5811999999992565,0.5983000000007479,0.6145000000000067,0.6311999999992608,0.6481999999992567,0.6653999999985132,0.6813999999985114,0.698199999999261,0.7155000000000058,0.7335999999977716,0.7488000000007489,0.765500000000003]",,10,0,10,0,1,,,,
,,R223499753,2022-12-15_11h12.06.676,GoFitts,2022.2.4,Win32,59.21714929,,,,,,,,,,,,,,,,,,"[-232.31005517427886,-49.37902656921778]","[216.9670461901177,96.59995273050254]",40.5,475,0,"[-216.5,-227.5,-230.5,-231.5,-231.5,-231.5,-231.5,-231.5,-231.5,-231.5,-231.5,-231.5,-231.5,-231.5,-231.5,-231.5,-229.5,-222.5,-208.5,-184.5,-142.5,-91.5,-38.5,20.5,83.5,132.5,181.5,202.5,222.5,231.5,234.5,234.5,235.5,235.5,235.5,235.5,235.5,235.5,235.5,235.5,235.5,235.5,233.5,230.5,226.5]","[-46,-37,-36,-36,-36,-36,-36,-36,-36,-36,-36,-36,-36,-36,-36,-36,-38,-41,-45,-46,-47,-38,-27,-10,10,32,57,64,69,69,70,70,71,71,71,71,71,71,71,71,71,73,76,79,84]","[0,0,0,0,0,0,0,0,0,0,0,0,0,0,0,0,0,0,0,0,0,0,0,0,0,0,0,0,0,0,0,0,0,0,0,0,0,0,0,0,0,0,0,0,0]","[0,0,0,0,0,0,0,0,0,0,0,0,0,0,0,0,0,0,0,0,0,0,0,0,0,0,0,0,0,0,0,0,0,0,0,0,0,0,0,0,0,0,0,0,0]","[0,0,0,0,0,0,0,0,0,0,0,0,0,0,0,0,0,0,0,0,0,0,0,0,0,0,0,0,0,0,0,0,0,0,0,0,0,0,0,0,0,0,0,0,0]","[0.0006000000014907414,0.015800000000744774,0.03180000000075012,0.04830000000074364,0.06439999999851409,0.08130000000074489,0.09980000000074796,0.11389999999850886,0.1306000000014933,0.14750000000000085,0.1643999999985084,0.1810000000000045,0.19730000000074455,0.2141999999992592,0.23100000000000165,0.2478999999985092,0.2653999999985146,0.2828999999985129,0.3003999999985112,0.3155000000000001,0.3323999999985148,0.34980000000074796,0.36469999999926017,0.38189999999850954,0.39839999999851017,0.4153999999985132,0.4318000000007487,0.44860000000149114,0.4654999999999987,0.4830000000000041,0.4986000000014954,0.5140000000000029,0.5318999999985152,0.5480000000000018,0.5645000000000024,0.5806999999992541,0.5976999999992572,0.6141000000014927,0.6310000000000002,0.6475000000000009,0.6646999999992573,0.6821999999992556,0.699300000000747,0.7151999999992569,0.731899999998511]",,11,0,11,0,1,,,,
,,R223499753,2022-12-15_11h12.06.676,GoFitts,2022.2.4,Win32,59.21714929,,,,,,,,,,,,,,,,,,"[216.9670461901177,96.59995273050254]","[-192.14153616405002,-139.59899741946234]",40.5,475,0,"[226.5,223.5,220.5,218.5,218.5,218.5,218.5,218.5,218.5,218.5,218.5,218.5,218.5,218.5,218.5,218.5,218.5,215.5,208.5,196.5,175.5,156.5,116.5,45.5,19.5,-66.5,-107.5,-129.5,-142.5,-148.5,-154.5,-157.5,-161.5,-164.5,-167.5,-170.5,-175.5,-179.5]","[84,88,93,95,97,97,97,97,97,97,97,97,97,97,97,97,97,97,96,93,90,86,70,17,-5,-90,-126,-142,-151,-156,-161,-162,-163,-163,-162,-160,-158,-155]","[0,0,0,0,0,0,0,0,0,0,0,0,0,0,0,0,0,0,0,0,0,0,0,0,0,0,0,0,0,0,0,0,0,0,0,0,0,0]","[0,0,0,0,0,0,0,0,0,0,0,0,0,0,0,0,0,0,0,0,0,0,0,0,0,0,0,0,0,0,0,0,0,0,0,0,0,0]","[0,0,0,0,0,0,0,0,0,0,0,0,0,0,0,0,0,0,0,0,0,0,0,0,0,0,0,0,0,0,0,0,0,0,0,0,0,0]","[0.000499999999995282,0.016399999998505166,0.031999999999996476,0.048699999999250565,0.06569999999925358,0.08119999999924943,0.09810000000148733,0.11439999999850414,0.13250000000000028,0.14799999999999613,0.16469999999925022,0.1813999999985043,0.19789999999850494,0.2146999999992545,0.23130000000074347,0.24769999999925574,0.26460000000148653,0.2828000000007407,0.298800000000746,0.31660000000148614,0.33339999999850534,0.34869999999925483,0.3656000000014856,0.38380000000073977,0.398699999999252,0.41549999999999443,0.4323999999985091,0.4488000000007446,0.4654999999999987,0.48399999999999466,0.4994999999999976,0.5153999999985075,0.5326999999992523,0.548800000000746,0.5656000000014885,0.5838000000007426,0.5988000000007432,0.6158000000007462]",,12,0,12,0,1,,,,
,,R223499753,2022-12-15_11h12.06.676,GoFitts,2022.2.4,Win32,59.21714929,,,,,,,,,,,,,,,,,,"[-192.14153616405002,-139.59899741946234]","[158.91851901022883,176.49689605088113]",40.5,475,0,"[-179.5,-184.5,-186.5,-187.5,-187.5,-187.5,-187.5,-187.5,-187.5,-187.5,-187.5,-186.5,-186.5,-186.5,-186.5,-185.5,-181.5,-174.5,-149.5,-117.5,-62.5,-14.5,34.5,79.5,137.5,159.5]","[-155,-151,-148,-147,-146,-144,-142,-140,-139,-138,-138,-138,-138,-138,-138,-137,-136,-135,-125,-107,-70,-28,26,82,155,182]","[0,0,0,0,0,0,0,0,0,0,0,0,0,0,0,0,0,0,0,0,0,0,0,0,0,0]","[0,0,0,0,0,0,0,0,0,0,0,0,0,0,0,0,0,0,0,0,0,0,0,0,0,0]","[0,0,0,0,0,0,0,0,0,0,0,0,0,0,0,0,0,0,0,0,0,0,0,0,0,0]","[0.0005000000000023874,0.015199999999254032,0.03189999999850812,0.04939999999851352,0.06580000000074904,0.08160000000149381,0.09869999999925483,0.11530000000074381,0.13139999999850716,0.14780000000074267,0.16469999999925733,0.1818000000007487,0.197499999999998,0.21430000000074756,0.23080000000074818,0.24849999999999994,0.26550000000000296,0.2831999999992547,0.29860000000149256,0.3156999999992536,0.3321999999992542,0.34869999999925483,0.36519999999925545,0.38210000000149336,0.39889999999851256,0.4151000000014875]",,13,0,13,0,1,,,,
,,R223499753,2022-12-15_11h12.06.676,GoFitts,2022.2.4,Win32,59.21714929,,,,,,,,,,,,,,,,,,"[158.91851901022883,176.49689605088113]","[-118.7500000000001,-205.68103339880415]",40.5,475,0,"[159.5,170.5,174.5,175.5,175.5,177.5,177.5,177.5,177.5,177.5,177.5,177.5,177.5,177.5,177.5,176.5,175.5,172.5,166.5,162.5,159.5,159.5,158.5,158.5,158.5,158.5,158.5,158.5,158.5,158.5,158.5,154.5,142.5,125.5,91.5,53.5,3.5,-35.5,-59.5,-78.5,-88.5,-97.5,-111.5]","[182,190,194,195,196,197,197,197,197,197,197,197,197,197,197,197,196,194,190,187,186,185,185,185,185,185,185,185,185,184,179,170,146,115,56,-8,-82,-125,-147,-161,-169,-178,-190]","[0,0,0,0,0,0,0,0,0,0,0,0,0,0,0,0,0,0,0,0,0,0,0,0,0,0,0,0,0,0,0,0,0,0,0,0,0,0,0,0,0,0,0]","[0,0,0,0,0,0,0,0,0,0,0,0,0,0,0,0,0,0,0,0,0,0,0,0,0,0,0,0,0,0,0,0,0,0,0,0,0,0,0,0,0,0,0]","[0,0,0,0,0,0,0,0,0,0,0,0,0,0,0,0,0,0,0,0,0,0,0,0,0,0,0,0,0,0,0,0,0,0,0,0,0,0,0,0,0,0,0]","[0.000499999999995282,0.015899999998509884,0.03269999999925233,0.04999999999999716,0.06660000000148614,0.08249999999999602,0.09819999999925244,0.11510000000148324,0.13219999999925136,0.14939999999850784,0.1651999999992526,0.18169999999925324,0.19819999999925386,0.2149999999999963,0.23149999999999693,0.24969999999925108,0.2674999999999983,0.2848000000007431,0.30139999999850886,0.3164999999999978,0.33530000000074267,0.3496999999992525,0.3658999999985042,0.38210000000148625,0.3993000000007427,0.41549999999999443,0.4326000000014858,0.44899999999999807,0.46560000000148705,0.4824999999999946,0.4994999999999976,0.5154999999999959,0.5341000000014873,0.5498000000007437,0.5658000000007419,0.5833999999985053,0.5993999999985036,0.6159999999999997,0.6339999999999932,0.6494999999999962,0.6661999999992503,0.6838999999985091,0.699399999998505]",,14,0,14,0,1,,,,
,,R223499753,2022-12-15_11h12.06.676,GoFitts,2022.2.4,Win32,59.21714929,,,,,,,,,,,,,,,,,,,,,,0,,,,,,,,,,,,,0,0,0,1
,,R223499753,2022-12-15_11h12.06.676,GoFitts,2022.2.4,Win32,59.21714929,,,,,,,,,,,,,,,,return,1.2515,"[-38.5,-4]","[61.80339887498949,190.2113032590307]",48,400,1,"[-38.5,-38.5,-38.5,-38.5,-38.5,-38.5,-38.5,-38.5,-38.5,-38.5,-38.5,-38.5,-38.5,-38.5,-38.5,-38.5,-38.5,-38.5,-38.5,-38.5,-38.5,-38.5,-38.5,-38.5,-38.5,-36.5,-33.5,-28.5,-13.5,-2.5,14.5,28.5,34.5,43.5]","[-4,-4,-4,-4,-4,-4,-4,-4,-4,-4,-4,-4,-4,-4,-4,-4,-4,-4,-4,-4,-4,-4,-4,-4,-4,-1,8,22,55,80,114,148,162,185]","[0,0,0,0,0,0,0,0,0,0,0,0,0,0,0,0,0,0,0,0,0,0,0,0,0,0,0,0,0,0,0,0,0,0]","[0,0,0,0,0,0,0,0,0,0,0,0,0,0,0,0,0,0,0,0,0,0,0,0,0,0,0,0,0,0,0,0,0,0]","[0,0,0,0,0,0,0,0,0,0,0,0,0,0,0,0,0,0,0,0,0,0,0,0,0,0,0,0,0,0,0,0,0,0]","[0.0016999999992606263,0.017000000000003013,0.031299999997024486,0.04769999999926,0.06429999999702574,0.08119999999925653,0.0975999999977688,0.11500000000000199,0.13159999999776772,0.14769999999926142,0.1643999999985155,0.1810000000000045,0.1980000000000004,0.21450000000000102,0.2311999999992551,0.24829999999702324,0.2645999999977704,0.28089999999851045,0.29789999999851347,0.3146999999992559,0.3310999999977682,0.348399999998513,0.3642999999970229,0.3812999999970259,0.3977999999970194,0.4165999999977643,0.4336999999992557,0.4488999999985097,0.4658999999985127,0.48209999999776443,0.5000999999977651,0.5182999999970193,0.5337999999970222,0.5492999999970252]",,0,0,0,0,1,,,,
,,R223499753,2022-12-15_11h12.06.676,GoFitts,2022.2.4,Win32,59.21714929,,,,,,,,,,,,,,,,,,"[61.80339887498949,190.2113032590307]","[-20.905692653530846,-198.90437907365467]",48,400,1,"[43.5,49.5,57.5,60.5,62.5,64.5,65.5,67.5,70.5,72.5,74.5,74.5,74.5,74.5,74.5,74.5,73.5,67.5,61.5,52.5,46.5,41.5,36.5,32.5,18.5,-6.5,-14.5,-19.5,-21.5,-22.5,-22.5,-22.5,-22.5,-23.5,-24.5,-25.5,-26.5,-26.5,-26.5,-26.5,-26.5,-25.5]","[185,201,215,222,227,230,232,235,237,239,240,241,241,241,241,241,237,223,211,193,182,167,152,134,84,-19,-71,-109,-128,-138,-144,-151,-156,-157,-159,-160,-161,-163,-168,-172,-175,-177]","[0,0,0,0,0,0,0,0,0,0,0,0,0,0,0,0,0,0,0,0,0,0,0,0,0,0,0,0,0,0,0,0,0,0,0,0,0,0,0,0,0,0]","[0,0,0,0,0,0,0,0,0,0,0,0,0,0,0,0,0,0,0,0,0,0,0,0,0,0,0,0,0,0,0,0,0,0,0,0,0,0,0,0,0,0]","[0,0,0,0,0,0,0,0,0,0,0,0,0,0,0,0,0,0,0,0,0,0,0,0,0,0,0,0,0,0,0,0,0,0,0,0,0,0,0,0,0,0]","[0.0006000000014907414,0.016100000001486592,0.0323000000007454,0.04899999999999949,0.06560000000148847,0.08440000000223336,0.09899999999999665,0.11549999999999727,0.1319999999999979,0.14849999999999852,0.16550000000000153,0.18190000000223705,0.19769999999925147,0.21450000000000102,0.2311999999992551,0.24790000000223245,0.26540000000223074,0.28240000000223375,0.2989000000022344,0.3151000000014861,0.3321999999992542,0.34980000000074085,0.366100000001488,0.38210000000148625,0.40010000000148693,0.41530000000074097,0.4334000000022371,0.44899999999999807,0.4658000000007405,0.4819000000022342,0.49960000000148597,0.5156000000014913,0.5330000000000013,0.5496999999992553,0.565400000002235,0.583900000002231,0.5989999999999966,0.6156000000014856,0.6319999999999979,0.6486000000014869,0.6651999999992526,0.6816999999992532]",,1,0,1,0,1,,,,
,,R223499753,2022-12-15_11h12.06.676,GoFitts,2022.2.4,Win32,59.21714929,,,,,,,,,,,,,,,,,,"[-20.905692653530846,-198.90437907365467]","[-20.905692653530668,198.90437907365467]",48,400,1,"[-25.5,-25.5,-23.5,-22.5,-20.5,-19.5,-17.5,-17.5,-17.5,-17.5,-17.5,-17.5,-17.5,-17.5,-17.5,-17.5,-19.5,-25.5,-37.5,-48.5,-61.5,-60.5,-55.5,-50.5,-42.5,-33.5,-23.5,-21.5,-20.5,-19.5]","[-177,-178,-181,-184,-187,-190,-191,-192,-192,-192,-192,-192,-192,-192,-188,-177,-158,-125,-74,-34,25,58,88,110,125,137,156,166,173,182]","[0,0,0,0,0,0,0,0,0,0,0,0,0,0,0,0,0,0,0,0,0,0,0,0,0,0,0,0,0,0]","[0,0,0,0,0,0,0,0,0,0,0,0,0,0,0,0,0,0,0,0,0,0,0,0,0,0,0,0,0,0]","[0,0,0,0,0,0,0,0,0,0,0,0,0,0,0,0,0,0,0,0,0,0,0,0,0,0,0,0,0,0]","[0.000499999999995282,0.015900000002233128,0.031999999999996476,0.048600000001485455,0.06649999999999778,0.08200000000000074,0.09960000000148739,0.11510000000149034,0.13080000000073966,0.14710000000148682,0.16449999999999676,0.18060000000149046,0.197499999999998,0.21450000000000102,0.23170000000298074,0.24820000000298137,0.26590000000223313,0.2822000000029803,0.29860000000148545,0.3157000000029768,0.3316000000014867,0.34810000000148733,0.3652000000029787,0.3814000000022304,0.39830000000074506,0.41499999999999915,0.4317000000029765,0.44899999999999807,0.46510000000148466,0.4819000000022342]",,2,0,2,0,1,,,,
,,R223499753,2022-12-15_11h12.06.676,GoFitts,2022.2.4,Win32,59.21714929,,,,,,,,,,,,,,,,,,"[-20.905692653530668,198.90437907365467]","[61.80339887498945,-190.21130325903073]",48,400,1,"[-19.5,-19.5,-19.5,-19.5,-20.5,-20.5,-20.5,-20.5,-20.5,-20.5,-20.5,-22.5,-25.5,-28.5,-37.5,-44.5,-55.5,-67.5,-72.5,-74.5,-73.5,-64.5,-50.5,4.5,67.5,126.5,168.5,188.5,199.5,200.5,198.5,196.5,192.5,190.5,185.5,174.5,162.5,149.5,139.5,134.5,131.5,130.5,128.5,127.5,124.5,116.5,112.5,110.5,106.5,104.5,101.5,96.5,89.5,82.5,69.5]","[182,189,192,196,197,197,197,197,197,197,197,197,196,194,190,188,183,171,160,143,111,83,47,-46,-148,-245,-305,-333,-349,-355,-357,-357,-353,-351,-346,-333,-317,-301,-290,-283,-281,-279,-276,-273,-269,-260,-257,-254,-249,-245,-240,-232,-221,-211,-199]","[0,0,0,0,0,0,0,0,0,0,0,0,0,0,0,0,0,0,0,0,0,0,0,0,0,0,0,0,0,0,0,0,0,0,0,0,0,0,0,0,0,0,0,0,0,0,0,0,0,0,0,0,0,0,0]","[0,0,0,0,0,0,0,0,0,0,0,0,0,0,0,0,0,0,0,0,0,0,0,0,0,0,0,0,0,0,0,0,0,0,0,0,0,0,0,0,0,0,0,0,0,0,0,0,0,0,0,0,0,0,0]","[0,0,0,0,0,0,0,0,0,0,0,0,0,0,0,0,0,0,0,0,0,0,0,0,0,0,0,0,0,0,0,0,0,0,0,0,0,0,0,0,0,0,0,0,0,0,0,0,0,0,0,0,0,0,0]","[0.0008999999985093154,0.015899999998509884,0.0336999999992571,0.05019999999925773,0.06609999999776761,0.08229999999701931,0.09929999999702233,0.1144999999999996,0.13139999999850716,0.14809999999776124,0.16479999999702244,0.182699999999258,0.19899999999999807,0.2168999999985104,0.23259999999776682,0.24959999999776272,0.26639999999851227,0.2823999999985105,0.2993999999985064,0.3156999999992536,0.33469999999925193,0.3491999999992572,0.3666999999992555,0.38229999999701647,0.3991999999992544,0.4167999999970178,0.43419999999925096,0.4485999999977679,0.46569999999925216,0.48269999999925517,0.4991999999992558,0.5157999999970215,0.5335999999977616,0.5505999999977647,0.5660999999977676,0.5837999999970194,0.5995999999977641,0.6174999999999997,0.6333999999985096,0.6491999999992544,0.6659999999999968,0.6825999999977626,0.6995999999977656,0.7157999999970173,0.7326999999992552,0.7494999999999976,0.7650999999977657,0.7824999999999989,0.7993999999985064,0.815899999998507,0.8326999999992566,0.85029999999702,0.8672999999970159,0.8832999999970212,0.898699999999252]",,3,0,3,0,1,,,,
,,R223499753,2022-12-15_11h12.06.676,GoFitts,2022.2.4,Win32,59.21714929,,,,,,,,,,,,,,,,,,"[61.80339887498945,-190.21130325903073]","[-99.99999999999996,173.20508075688775]",48,400,1,"[69.5,62.5,59.5,58.5,58.5,58.5,58.5,58.5,58.5,58.5,58.5,58.5,58.5,58.5,58.5,58.5,58.5,58.5,46.5,24.5,-13.5,-45.5,-67.5,-81.5,-88.5,-91.5,-93.5,-96.5,-98.5,-102.5,-104.5,-105.5,-106.5]","[-199,-190,-188,-186,-186,-186,-186,-186,-186,-186,-186,-186,-186,-186,-186,-186,-186,-186,-160,-121,-67,-20,18,46,73,86,99,109,116,135,140,147,153]","[0,0,0,0,0,0,0,0,0,0,0,0,0,0,0,0,0,0,0,0,0,0,0,0,0,0,0,0,0,0,0,0,0]","[0,0,0,0,0,0,0,0,0,0,0,0,0,0,0,0,0,0,0,0,0,0,0,0,0,0,0,0,0,0,0,0,0]","[0,0,0,0,0,0,0,0,0,0,0,0,0,0,0,0,0,0,0,0,0,0,0,0,0,0,0,0,0,0,0,0,0]","[0.00040000000223017196,0.015800000000744774,0.03270000000297557,0.049300000000741306,0.06520000000297443,0.0816000000014867,0.09880000000074318,0.11499999999999488,0.1314999999999955,0.14830000000074506,0.1651000000014875,0.18170000000297648,0.19840000000223057,0.21530000000074523,0.23199999999999932,0.24820000000297426,0.2651000000014889,0.2817000000029779,0.2993000000007413,0.3163000000007443,0.33310000000148676,0.34949999999999903,0.3671000000014857,0.38340000000223284,0.3993000000007427,0.41570000000297824,0.4339999999999975,0.44950000000000045,0.46560000000148705,0.4834999999999994,0.4997000000029743,0.5172000000029797,0.5328000000007407]",,4,0,4,0,1,,,,
,,R223499753,2022-12-15_11h12.06.676,GoFitts,2022.2.4,Win32,59.21714929,,,,,,,,,,,,,,,,,,"[-99.99999999999996,173.20508075688775]","[133.82612127177168,-148.6289650954788]",48,400,1,"[-106.5,-107.5,-108.5,-108.5,-108.5,-108.5,-108.5,-108.5,-108.5,-108.5,-107.5,-107.5,-107.5,-107.5,-107.5,-107.5,-101.5,-97.5,-87.5,-74.5,-56.5,-23.5,25.5,64.5,85.5,101.5,112.5,115.5]","[153,157,161,164,165,165,167,167,168,168,168,168,168,168,168,164,134,109,71,39,10,-30,-75,-102,-114,-125,-133,-137]","[0,0,0,0,0,0,0,0,0,0,0,0,0,0,0,0,0,0,0,0,0,0,0,0,0,0,0,0]","[0,0,0,0,0,0,0,0,0,0,0,0,0,0,0,0,0,0,0,0,0,0,0,0,0,0,0,0]","[0,0,0,0,0,0,0,0,0,0,0,0,0,0,0,0,0,0,0,0,0,0,0,0,0,0,0,0]","[0.000499999999995282,0.015999999999998238,0.03379999999701511,0.04959999999775988,0.0660999999977605,0.08189999999850528,0.10019999999925489,0.1144999999999996,0.13179999999701408,0.14789999999850778,0.16729999999702017,0.18159999999776488,0.1980999999977655,0.21489999999850795,0.23139999999850858,0.24939999999850926,0.2666999999992541,0.28349999999999653,0.29979999999702045,0.31749999999999545,0.3322999999970193,0.34989999999850596,0.36569999999925074,0.38319999999924903,0.3990999999977589,0.41549999999999443,0.4323999999985091,0.4496999999992539]",,5,0,5,0,1,,,,
,,R223499753,2022-12-15_11h12.06.676,GoFitts,2022.2.4,Win32,59.21714929,,,,,,,,,,,,,,,,,,"[133.82612127177168,-148.6289650954788]","[-161.80339887498945,117.55705045849464]",48,400,1,"[115.5,116.5,116.5,117.5,117.5,117.5,117.5,117.5,117.5,117.5,117.5,117.5,117.5,117.5,117.5,117.5,117.5,117.5,117.5,117.5,115.5,108.5,76.5,27.5,-45.5,-115.5,-154.5,-184.5,-186.5,-186.5,-184.5,-182.5]","[-137,-141,-144,-147,-148,-148,-148,-148,-148,-148,-148,-148,-148,-148,-148,-148,-148,-148,-148,-148,-146,-137,-107,-63,-10,34,59,83,93,98,105,109]","[0,0,0,0,0,0,0,0,0,0,0,0,0,0,0,0,0,0,0,0,0,0,0,0,0,0,0,0,0,0,0,0]","[0,0,0,0,0,0,0,0,0,0,0,0,0,0,0,0,0,0,0,0,0,0,0,0,0,0,0,0,0,0,0,0]","[0,0,0,0,0,0,0,0,0,0,0,0,0,0,0,0,0,0,0,0,0,0,0,0,0,0,0,0,0,0,0,0]","[0.00039999999851403345,0.015599999997768066,0.03239999999851051,0.04919999999926006,0.06550000000000011,0.08139999999851,0.09769999999925716,0.1150999999977671,0.13159999999776772,0.14859999999776363,0.16509999999776426,0.18119999999925795,0.1993999999985121,0.21459999999776613,0.23139999999850858,0.24809999999776977,0.26469999999925875,0.28139999999851284,0.29789999999851347,0.3152999999970234,0.33259999999776824,0.34900000000000375,0.36569999999925784,0.3825999999977654,0.4003999999985126,0.41639999999851085,0.43339999999851386,0.4493999999985121,0.4655999999977638,0.48239999999851335,0.4996999999992582,0.5170999999977681]",,6,0,6,0,1,,,,
,,R223499753,2022-12-15_11h12.06.676,GoFitts,2022.2.4,Win32,59.21714929,,,,,,,,,,,,,,,,,,"[-161.80339887498945,117.55705045849464]","[182.7090915285202,-81.34732861516002]",48,400,1,"[-182.5,-180.5,-180.5,-180.5,-180.5,-180.5,-180.5,-180.5,-180.5,-180.5,-180.5,-180.5,-180.5,-180.5,-180.5,-180.5,-180.5,-180.5,-180.5,-180.5,-169.5,-152.5,-111.5,-54.5,15.5,77.5,114.5,156.5,165.5,174.5,176.5,178.5,182.5]","[109,113,116,118,119,119,119,119,119,119,119,119,119,119,119,119,119,119,119,119,108,95,75,58,43,28,14,-15,-27,-40,-47,-50,-58]","[0,0,0,0,0,0,0,0,0,0,0,0,0,0,0,0,0,0,0,0,0,0,0,0,0,0,0,0,0,0,0,0,0]","[0,0,0,0,0,0,0,0,0,0,0,0,0,0,0,0,0,0,0,0,0,0,0,0,0,0,0,0,0,0,0,0,0]","[0,0,0,0,0,0,0,0,0,0,0,0,0,0,0,0,0,0,0,0,0,0,0,0,0,0,0,0,0,0,0,0,0]","[0.0005000000000023874,0.01630000000074716,0.03160000000148955,0.04830000000074364,0.06469999999925591,0.08050000000000068,0.09710000000148966,0.11389999999850886,0.1306999999992584,0.1473000000007474,0.16380000000074801,0.1818000000007487,0.19710000000149108,0.21460000000148938,0.2303999999985109,0.24739999999851392,0.26380000000074944,0.28089999999851045,0.2971000000014925,0.31450000000000244,0.3316999999992589,0.34869999999925483,0.3653999999985089,0.3825000000000003,0.3991999999992544,0.41639999999851085,0.4316000000014881,0.4488000000007446,0.46510000000149176,0.48230000000074824,0.49939999999850926,0.5161000000014937,0.5315000000000012]",,7,0,7,0,1,,,,
,,R223499753,2022-12-15_11h12.06.676,GoFitts,2022.2.4,Win32,59.21714929,,,,,,,,,,,,,,,,,,"[182.7090915285202,-81.34732861516002]","[-195.62952014676114,41.58233816355186]",48,400,1,"[182.5,183.5,184.5,184.5,184.5,184.5,184.5,184.5,184.5,183.5,182.5,182.5,182.5,182.5,182.5,182.5,182.5,182.5,182.5,178.5,163.5,135.5,74.5,8.5,-96.5,-138.5,-159.5,-171.5,-171.5,-171.5,-171.5,-174.5,-178.5]","[-58,-61,-64,-68,-69,-70,-70,-70,-71,-72,-72,-72,-72,-72,-72,-72,-72,-72,-72,-73,-71,-62,-39,-14,14,24,28,28,28,28,28,28,29]","[0,0,0,0,0,0,0,0,0,0,0,0,0,0,0,0,0,0,0,0,0,0,0,0,0,0,0,0,0,0,0,0,0]","[0,0,0,0,0,0,0,0,0,0,0,0,0,0,0,0,0,0,0,0,0,0,0,0,0,0,0,0,0,0,0,0,0]","[0,0,0,0,0,0,0,0,0,0,0,0,0,0,0,0,0,0,0,0,0,0,0,0,0,0,0,0,0,0,0,0,0]","[0.0007000000029790954,0.015700000002979664,0.03240000000223375,0.049400000002236766,0.06620000000297921,0.08280000000074494,0.09860000000148972,0.11500000000000199,0.13300000000000267,0.1494000000022382,0.1659000000022388,0.18170000000298359,0.1982000000029842,0.2150000000000034,0.23180000000074585,0.24840000000223483,0.2648000000007471,0.2817000000029779,0.2981000000014902,0.31610000000149086,0.33270000000297983,0.3500000000000014,0.366100000001488,0.3825000000000003,0.4002000000029824,0.41570000000297824,0.4329000000022347,0.44940000000223534,0.46510000000149176,0.4819999999999993,0.49980000000074654,0.5158000000007448,0.5329000000022361]",,8,0,8,0,1,,,,
,,R223499753,2022-12-15_11h12.06.676,GoFitts,2022.2.4,Win32,59.21714929,,,,,,,,,,,,,,,,,,"[-195.62952014676114,41.58233816355186]","[200,0]",48,400,1,"[-178.5,-184.5,-191.5,-194.5,-195.5,-195.5,-195.5,-195.5,-195.5,-195.5,-195.5,-195.5,-195.5,-195.5,-195.5,-195.5,-195.5,-192.5,-183.5,-165.5,-125.5,-11.5,27.5,118.5,147.5,166.5,172.5,172.5,172.5,173.5,176.5]","[29,31,35,37,38,38,38,38,38,38,38,38,38,38,38,38,38,40,41,41,41,33,28,16,11,6,3,3,3,3,3]","[0,0,0,0,0,0,0,0,0,0,0,0,0,0,0,0,0,0,0,0,0,0,0,0,0,0,0,0,0,0,0]","[0,0,0,0,0,0,0,0,0,0,0,0,0,0,0,0,0,0,0,0,0,0,0,0,0,0,0,0,0,0,0]","[0,0,0,0,0,0,0,0,0,0,0,0,0,0,0,0,0,0,0,0,0,0,0,0,0,0,0,0,0,0,0]","[0.0008000000007513108,0.016000000000005343,0.03269999999925943,0.050499999999999545,0.06630000000075142,0.08219999999926131,0.09840000000223625,0.11540000000223927,0.13169999999925608,0.14850000000000563,0.1651000000014946,0.18140000000223466,0.19840000000223768,0.21510000000149176,0.23150000000000404,0.2486000000014954,0.2648000000007471,0.28290000000223614,0.3009000000022368,0.3164000000022398,0.33500000000000085,0.35610000000149,0.3676999999992603,0.383100000001491,0.39969999999925676,0.4159000000022388,0.43250000000000455,0.44860000000149114,0.46569999999925926,0.48269999999925517,0.4995000000000047]",,9,0,9,0,1,,,,
,,R223499753,2022-12-15_11h12.06.676,GoFitts,2022.2.4,Win32,59.21714929,,,,,,,,,,,,,,,,,,"[200,0]","[-195.62952014676114,-41.58233816355181]",48,400,1,"[176.5,181.5,185.5,187.5,187.5,187.5,187.5,187.5,187.5,187.5,187.5,187.5,187.5,187.5,187.5,187.5,187.5,187.5,186.5,175.5,149.5,111.5,51.5,-32.5,-109.5,-182.5,-203.5,-208.5,-210.5,-211.5,-213.5,-216.5,-217.5,-218.5,-218.5,-218.5,-218.5,-218.5,-218.5,-218.5,-218.5,-218.5,-218.5,-217.5,-214.5,-213.5,-211.5]","[3,3,3,3,3,3,3,3,3,3,3,3,3,3,3,3,3,3,1,-4,-9,-10,-10,-12,-14,-14,-15,-17,-18,-19,-21,-23,-24,-24,-24,-24,-24,-24,-24,-24,-24,-24,-24,-24,-25,-25,-26]","[0,0,0,0,0,0,0,0,0,0,0,0,0,0,0,0,0,0,0,0,0,0,0,0,0,0,0,0,0,0,0,0,0,0,0,0,0,0,0,0,0,0,0,0,0,0,0]","[0,0,0,0,0,0,0,0,0,0,0,0,0,0,0,0,0,0,0,0,0,0,0,0,0,0,0,0,0,0,0,0,0,0,0,0,0,0,0,0,0,0,0,0,0,0,0]","[0,0,0,0,0,0,0,0,0,0,0,0,0,0,0,0,0,0,0,0,0,0,0,0,0,0,0,0,0,0,0,0,0,0,0,0,0,0,0,0,0,0,0,0,0,0,0]","[0.0005000000000023874,0.014800000000747104,0.0323000000007454,0.0484999999999971,0.06510000000149319,0.08130000000074489,0.09790000000223387,0.1144999999999996,0.13100000000000023,0.14780000000074267,0.16460000000149222,0.18119999999925795,0.19810000000148875,0.21480000000074284,0.2311999999992551,0.24760000000149063,0.26490000000223546,0.28130000000074773,0.29999999999999716,0.3155000000000001,0.33200000000000074,0.34890000000223864,0.36680000000074386,0.3819000000022328,0.398699999999252,0.4164000000022341,0.43200000000000216,0.4496999999992539,0.46650000000000347,0.482900000002239,0.5003000000007489,0.5156000000014913,0.531800000000743,0.5486999999992577,0.564300000000749,0.5813000000007449,0.597999999999999,0.6143000000007461,0.6326999999992537,0.6479000000022381,0.6649999999999991,0.6813000000007463,0.6981999999992539,0.715900000002236,0.7323000000007482,0.7491999999992558,0.7658000000007448]",,10,0,10,0,1,,,,
,,R223499753,2022-12-15_11h12.06.676,GoFitts,2022.2.4,Win32,59.21714929,,,,,,,,,,,,,,,,,,"[-195.62952014676114,-41.58233816355181]","[182.70909152852016,81.34732861516002]",48,400,1,"[-211.5,-209.5,-208.5,-206.5,-205.5,-205.5,-205.5,-205.5,-205.5,-202.5,-200.5,-198.5,-193.5,-188.5,-184.5,-180.5,-179.5,-178.5,-175.5,-167.5,-145.5,-105.5,-4.5,60.5,125.5,176.5,201.5,217.5,222.5,222.5,222.5,222.5,222.5,222.5,222.5,222.5,222.5,222.5,222.5,222.5,222.5,221.5,216.5,210.5,200.5,192.5]","[-26,-26,-27,-28,-28,-28,-28,-28,-28,-31,-31,-32,-33,-33,-34,-34,-34,-35,-35,-35,-33,-25,-6,13,32,45,46,46,46,46,46,46,46,46,46,46,46,46,46,46,46,47,50,54,60,65]","[0,0,0,0,0,0,0,0,0,0,0,0,0,0,0,0,0,0,0,0,0,0,0,0,0,0,0,0,0,0,0,0,0,0,0,0,0,0,0,0,0,0,0,0,0,0]","[0,0,0,0,0,0,0,0,0,0,0,0,0,0,0,0,0,0,0,0,0,0,0,0,0,0,0,0,0,0,0,0,0,0,0,0,0,0,0,0,0,0,0,0,0,0]","[0,0,0,0,0,0,0,0,0,0,0,0,0,0,0,0,0,0,0,0,0,0,0,0,0,0,0,0,0,0,0,0,0,0,0,0,0,0,0,0,0,0,0,0,0,0]","[0.0007000000029790954,0.015300000000749492,0.03300000000000125,0.05030000000074608,0.065400000002235,0.08160000000149381,0.09799999999999898,0.11460000000148796,0.13120000000298404,0.14930000000074983,0.16490000000223404,0.18200000000000216,0.19950000000000045,0.21590000000223597,0.23360000000149483,0.24930000000074415,0.26540000000223785,0.28210000000149194,0.2989999999999995,0.3159000000022374,0.33170000000298216,0.3491000000014921,0.3657000000029811,0.3822000000029817,0.39970000000298,0.41550000000000153,0.4331000000014882,0.44970000000298427,0.46610000000148943,0.4814000000022389,0.49840000000223483,0.5143000000007447,0.5309999999999988,0.5481000000014902,0.5646000000014908,0.5811000000014914,0.5987000000029781,0.614600000001488,0.6313000000007492,0.648600000001494,0.6649999999999991,0.6832000000029836,0.6991000000014935,0.7154999999999987,0.7323000000007482,0.7491000000014907]",,11,0,11,0,1,,,,
,,R223499753,2022-12-15_11h12.06.676,GoFitts,2022.2.4,Win32,59.21714929,,,,,,,,,,,,,,,,,,"[182.70909152852016,81.34732861516002]","[-161.80339887498948,-117.5570504584946]",48,400,1,"[192.5,190.5,189.5,189.5,189.5,189.5,189.5,189.5,189.5,189.5,189.5,189.5,189.5,189.5,189.5,189.5,189.5,187.5,178.5,152.5,118.5,55.5,3.5,-43.5,-65.5,-89.5,-97.5,-100.5,-102.5,-103.5,-106.5,-107.5,-107.5,-107.5,-107.5,-107.5,-107.5,-107.5,-108.5,-113.5,-120.5,-130.5,-142.5,-157.5]","[65,68,69,70,70,70,70,70,70,70,70,70,70,70,70,70,70,69,64,48,28,-5,-30,-48,-54,-61,-65,-67,-69,-70,-72,-73,-73,-73,-73,-73,-73,-73,-74,-79,-84,-91,-97,-102]","[0,0,0,0,0,0,0,0,0,0,0,0,0,0,0,0,0,0,0,0,0,0,0,0,0,0,0,0,0,0,0,0,0,0,0,0,0,0,0,0,0,0,0,0]","[0,0,0,0,0,0,0,0,0,0,0,0,0,0,0,0,0,0,0,0,0,0,0,0,0,0,0,0,0,0,0,0,0,0,0,0,0,0,0,0,0,0,0,0]","[0,0,0,0,0,0,0,0,0,0,0,0,0,0,0,0,0,0,0,0,0,0,0,0,0,0,0,0,0,0,0,0,0,0,0,0,0,0,0,0,0,0,0,0]","[0.0008000000007442054,0.016100000001486592,0.03280000000074068,0.049300000000741306,0.06519999999925119,0.08149999999999835,0.09819999999925244,0.11519999999925545,0.13180000000074443,0.14849999999999852,0.1651000000014875,0.1826000000014858,0.19860000000149114,0.21530000000074523,0.2316999999992504,0.24849999999999994,0.2651000000014889,0.2828999999985058,0.2998000000007437,0.31669999999925125,0.33280000000074494,0.34989999999850596,0.36599999999999966,0.38299999999999557,0.4006000000014893,0.4156000000014899,0.43380000000074403,0.4496000000014888,0.4658000000007405,0.482999999999997,0.49960000000148597,0.5158000000007448,0.5316000000014895,0.548800000000746,0.5651999999992512,0.5818000000007402,0.5988000000007432,0.6148000000007414,0.6333999999985096,0.6503000000007404,0.6661999999992503,0.6826999999992509,0.699399999998505,0.715600000001487]",,12,0,12,0,1,,,,
,,R223499753,2022-12-15_11h12.06.676,GoFitts,2022.2.4,Win32,59.21714929,,,,,,,,,,,,,,,,,,"[-161.80339887498948,-117.5570504584946]","[133.82612127177165,148.62896509547886]",48,400,1,"[-157.5,-173.5,-187.5,-193.5,-193.5,-193.5,-193.5,-193.5,-193.5,-193.5,-193.5,-193.5,-193.5,-193.5,-193.5,-191.5,-184.5,-170.5,-148.5,-103.5,-12.5,34.5,62.5,90.5,100.5,106.5,108.5,109.5,111.5]","[-102,-108,-114,-117,-117,-117,-117,-117,-117,-117,-117,-117,-117,-117,-117,-116,-111,-101,-86,-55,17,60,89,119,130,140,147,151,154]","[0,0,0,0,0,0,0,0,0,0,0,0,0,0,0,0,0,0,0,0,0,0,0,0,0,0,0,0,0]","[0,0,0,0,0,0,0,0,0,0,0,0,0,0,0,0,0,0,0,0,0,0,0,0,0,0,0,0,0]","[0,0,0,0,0,0,0,0,0,0,0,0,0,0,0,0,0,0,0,0,0,0,0,0,0,0,0,0,0]","[0.000399999998506928,0.01569999999925642,0.03189999999850812,0.04859999999776221,0.06419999999925352,0.08069999999925415,0.0975999999977617,0.11399999999999721,0.1314999999999955,0.14729999999701704,0.16389999999850602,0.18089999999850903,0.1980000000000004,0.21489999999850795,0.23100000000000165,0.24849999999999994,0.26529999999701914,0.28179999999701977,0.2981999999992553,0.31539999999851176,0.3317999999970169,0.3483999999985059,0.3653999999985089,0.38239999999851193,0.3990000000000009,0.41509999999776426,0.43259999999776255,0.4484999999999957,0.4651999999992569]",,13,0,13,0,1,,,,
,,R223499753,2022-12-15_11h12.06.676,GoFitts,2022.2.4,Win32,59.21714929,,,,,,,,,,,,,,,,,,"[133.82612127177165,148.62896509547886]","[-100.00000000000009,-173.2050807568877]",48,400,1,"[111.5,111.5,111.5,111.5,111.5,111.5,111.5,111.5,111.5,111.5,111.5,111.5,111.5,112.5,112.5,112.5,112.5,112.5,112.5,106.5,93.5,74.5,25.5,-7.5,-21.5,-33.5,-39.5,-45.5,-49.5,-56.5,-63.5,-67.5,-72.5,-75.5,-79.5,-79.5,-79.5,-79.5,-79.5,-79.5,-80.5,-82.5,-83.5,-85.5,-85.5,-85.5]","[154,154,154,154,154,154,154,154,154,154,154,154,154,154,155,155,155,155,155,147,118,79,-28,-98,-131,-160,-178,-191,-199,-215,-223,-227,-230,-233,-236,-236,-236,-236,-236,-236,-236,-226,-213,-201,-193,-189]","[0,0,0,0,0,0,0,0,0,0,0,0,0,0,0,0,0,0,0,0,0,0,0,0,0,0,0,0,0,0,0,0,0,0,0,0,0,0,0,0,0,0,0,0,0,0]","[0,0,0,0,0,0,0,0,0,0,0,0,0,0,0,0,0,0,0,0,0,0,0,0,0,0,0,0,0,0,0,0,0,0,0,0,0,0,0,0,0,0,0,0,0,0]","[0,0,0,0,0,0,0,0,0,0,0,0,0,0,0,0,0,0,0,0,0,0,0,0,0,0,0,0,0,0,0,0,0,0,0,0,0,0,0,0,0,0,0,0,0,0]","[0.000499999999995282,0.014899999998505109,0.03129999999701738,0.048099999997759824,0.06469999999925591,0.08129999999701454,0.09809999999776409,0.11509999999776,0.13169999999925608,0.1487999999970171,0.16529999999701772,0.18159999999776488,0.19819999999925386,0.2160999999977662,0.23269999999925517,0.24909999999776034,0.26479999999701676,0.2815000000000012,0.2984999999999971,0.31589999999850704,0.3322999999970193,0.3500000000000014,0.36629999999701823,0.3825000000000003,0.3998999999985102,0.4160999999977619,0.43259999999776255,0.44919999999925153,0.4658999999985056,0.48269999999925517,0.49939999999850926,0.5160999999977633,0.5328999999985058,0.5493999999985064,0.5664999999999978,0.5811999999992494,0.5980999999977641,0.61509999999776,0.6315999999977606,0.6481999999992496,0.6666999999992527,0.6824999999999974,0.6995000000000005,0.7164999999999964,0.7331999999992505,0.7488999999985069]",,14,0,14,0,1,,,,
,,R223499753,2022-12-15_11h12.06.676,GoFitts,2022.2.4,Win32,59.21714929,,,,,,,,,,,,,,,,,,,,,,1,,,,,,,,,,,,,1,0,0,1
,,R223499753,2022-12-15_11h12.06.676,GoFitts,2022.2.4,Win32,59.21714929,,,,,,,,,,,,,,,,return,1.172,"[-46.5,-66]","[15.450849718747362,-47.55282581475768]",80,100,2,"[-46.5,-46.5,-46.5,-46.5,-46.5,-46.5,-46.5,-46.5,-46.5,-46.5,-46.5,-46.5,-46.5,-46.5,-46.5,-46.5,-46.5,-46.5,-46.5,-46.5,-46.5,-46.5,-46.5,-46.5,-46.5,-46.5,-46.5,-46.5,-46.5,-46.5,-46.5,-46.5,-46.5,-46.5,-46.5,-46.5,-46.5,-46.5,-45.5,-38.5,-31.5,-22.5]","[-66,-66,-66,-66,-66,-66,-66,-66,-66,-66,-66,-66,-66,-66,-66,-66,-66,-66,-66,-66,-66,-66,-66,-66,-66,-66,-66,-66,-66,-66,-66,-66,-66,-66,-66,-66,-66,-66,-65,-60,-53,-46]","[0,0,0,0,0,0,0,0,0,0,0,0,0,0,0,0,0,0,0,0,0,0,0,0,0,0,0,0,0,0,0,0,0,0,0,0,0,0,0,0,0,0]","[0,0,0,0,0,0,0,0,0,0,0,0,0,0,0,0,0,0,0,0,0,0,0,0,0,0,0,0,0,0,0,0,0,0,0,0,0,0,0,0,0,0]","[0,0,0,0,0,0,0,0,0,0,0,0,0,0,0,0,0,0,0,0,0,0,0,0,0,0,0,0,0,0,0,0,0,0,0,0,0,0,0,0,0,0]","[0.0017000000029838702,0.014900000002235458,0.031400000002236084,0.048400000002239096,0.06470000000298626,0.08120000000297978,0.09820000000298279,0.11500000000000199,0.13130000000074915,0.14860000000149398,0.16490000000224114,0.18380000000075114,0.19810000000149586,0.2150000000000034,0.23130000000075057,0.24849999999999994,0.26490000000223546,0.2826000000014943,0.2985000000000042,0.31520000000298154,0.33170000000298216,0.34810000000149444,0.3649000000022369,0.3814000000022375,0.3981000000014916,0.41490000000224114,0.4317000000029836,0.44810000000149586,0.4646000000014894,0.48260000000149006,0.4983000000007465,0.5148000000007471,0.5318000000007501,0.5482000000029856,0.5650000000000048,0.5814000000022403,0.5983000000007479,0.6148000000007485,0.6328000000007492,0.6494000000022382,0.6656000000014899,0.6829000000022347]",,0,0,0,0,1,,,,
,,R223499753,2022-12-15_11h12.06.676,GoFitts,2022.2.4,Win32,59.21714929,,,,,,,,,,,,,,,,,,"[15.450849718747362,-47.55282581475768]","[-24.99999999999999,43.30127018922194]",80,100,2,"[-22.5,-6.5,3.5,9.5,14.5,19.5,19.5,20.5,20.5,20.5,20.5,20.5,20.5,20.5,19.5,17.5,14.5,9.5,8.5,6.5,6.5,5.5,5.5,5.5,3.5,1.5,-0.5,-4.5,-11.5]","[-46,-37,-30,-27,-24,-21,-20,-19,-19,-19,-19,-19,-19,-19,-19,-20,-22,-24,-26,-26,-26,-26,-26,-26,-26,-23,-15,-5,9]","[0,0,0,0,0,0,0,0,0,0,0,0,0,0,0,0,0,0,0,0,0,0,0,0,0,0,0,0,0]","[0,0,0,0,0,0,0,0,0,0,0,0,0,0,0,0,0,0,0,0,0,0,0,0,0,0,0,0,0]","[0,0,0,0,0,0,0,0,0,0,0,0,0,0,0,0,0,0,0,0,0,0,0,0,0,0,0,0,0]","[0.000799999997013856,0.016199999999251702,0.03219999999924994,0.0490999999977646,0.0660999999977605,0.08179999999701693,0.09999999999999432,0.11539999999850892,0.13139999999850716,0.14779999999701943,0.16429999999702005,0.18079999999701357,0.19759999999776312,0.21459999999775903,0.23189999999850386,0.24959999999776272,0.2669999999999959,0.28229999999701505,0.300699999999253,0.3155000000000001,0.33149999999999835,0.34879999999701994,0.3644999999999996,0.38109999999776534,0.3992999999970195,0.41549999999999443,0.43199999999999505,0.44899999999999807,0.4655999999977638]",,1,0,1,0,1,,,,
,,R223499753,2022-12-15_11h12.06.676,GoFitts,2022.2.4,Win32,59.21714929,,,,,,,,,,,,,,,,,,"[-24.99999999999999,43.30127018922194]","[33.45653031794292,-37.1572412738697]",80,100,2,"[-11.5,-18.5,-29.5,-36.5,-45.5,-53.5,-62.5,-64.5,-64.5,-62.5,-58.5,-55.5,-50.5,-43.5,-33.5,-15.5,-4.5,2.5,6.5,7.5,7.5,6.5,1.5,-1.5,-2.5,-3.5,-3.5,-3.5,-3.5,-1.5]","[9,19,31,38,49,61,80,94,106,111,113,114,114,112,106,87,71,56,44,33,25,14,1,-7,-10,-12,-13,-14,-16,-18]","[0,0,0,0,0,0,0,0,0,0,0,0,0,0,0,0,0,0,0,0,0,0,0,0,0,0,0,0,0,0]","[0,0,0,0,0,0,0,0,0,0,0,0,0,0,0,0,0,0,0,0,0,0,0,0,0,0,0,0,0,0]","[0,0,0,0,0,0,0,0,0,0,0,0,0,0,0,0,0,0,0,0,0,0,0,0,0,0,0,0,0,0]","[0.000399999998506928,0.016300000000740056,0.03119999999925227,0.04949999999999477,0.06519999999925119,0.08230000000074256,0.09899999999999665,0.11530000000074381,0.1328000000007421,0.14860000000148688,0.16530000000074097,0.18230000000074398,0.20039999999850977,0.21569999999925216,0.23210000000148767,0.24819999999925102,0.2653000000007424,0.28210000000148483,0.3001000000014855,0.3151000000014861,0.3321999999992542,0.3483999999985059,0.3656000000014856,0.38189999999850954,0.39839999999850306,0.41530000000074097,0.43169999999925324,0.4483000000007422,0.4653000000007381,0.48230000000074114]",,2,0,2,0,1,,,,
,,R223499753,2022-12-15_11h12.06.676,GoFitts,2022.2.4,Win32,59.21714929,,,,,,,,,,,,,,,,,,"[33.45653031794292,-37.1572412738697]","[-40.450849718747364,29.38926261462366]",80,100,2,"[-1.5,0.5,5.5,8.5,16.5,25.5,31.5,38.5,46.5,52.5,58.5,61.5,62.5,64.5,64.5,64.5,60.5,55.5,46.5,36.5,23.5,13.5,1.5,-15.5]","[-18,-21,-26,-30,-37,-42,-43,-44,-44,-44,-39,-36,-32,-28,-23,-18,-9,-2,6,14,21,25,29,31]","[0,0,0,0,0,0,0,0,0,0,0,0,0,0,0,0,0,0,0,0,0,0,0,0]","[0,0,0,0,0,0,0,0,0,0,0,0,0,0,0,0,0,0,0,0,0,0,0,0]","[0,0,0,0,0,0,0,0,0,0,0,0,0,0,0,0,0,0,0,0,0,0,0,0]","[0.0005000000000023874,0.017100000001491367,0.031999999999996476,0.050499999999999545,0.06649999999999778,0.08210000000148909,0.09919999999925722,0.1166000000014904,0.13210000000148625,0.14939999999850784,0.16610000000149228,0.18210000000149051,0.19910000000148642,0.21530000000074523,0.23199999999999932,0.2491999999992558,0.2653000000007424,0.2823000000007454,0.2995000000000019,0.31589999999850704,0.33360000000148915,0.3501999999992549,0.36650000000000205,0.3819999999999979]",,3,0,3,0,1,,,,
,,R223499753,2022-12-15_11h12.06.676,GoFitts,2022.2.4,Win32,59.21714929,,,,,,,,,,,,,,,,,,"[-40.450849718747364,29.38926261462366]","[45.67727288213005,-20.336832153790006]",80,100,2,"[-15.5,-25.5,-30.5,-33.5,-34.5,-35.5,-37.5,-38.5,-40.5,-41.5,-42.5,-42.5,-42.5,-43.5,-43.5,-43.5,-43.5,-43.5,-43.5,-39.5,-31.5,-21.5,-9.5,1.5,15.5,21.5,28.5,32.5]","[31,32,32,32,31,31,30,28,24,23,19,17,16,16,16,15,15,15,15,19,26,32,39,41,37,33,25,16]","[0,0,0,0,0,0,0,0,0,0,0,0,0,0,0,0,0,0,0,0,0,0,0,0,0,0,0,0]","[0,0,0,0,0,0,0,0,0,0,0,0,0,0,0,0,0,0,0,0,0,0,0,0,0,0,0,0]","[0,0,0,0,0,0,0,0,0,0,0,0,0,0,0,0,0,0,0,0,0,0,0,0,0,0,0,0]","[0.0005000000000023874,0.01630000000074716,0.03250000000000597,0.04930000000074841,0.06619999999925597,0.08289999999851005,0.09930000000074557,0.11619999999926023,0.13300000000000267,0.14939999999851494,0.16589999999851557,0.18439999999851153,0.19919999999925864,0.21580000000074762,0.23189999999851096,0.24930000000074415,0.26559999999776807,0.2820000000000036,0.2985000000000042,0.3165000000000049,0.3330000000000055,0.35009999999776653,0.36609999999776477,0.38319999999925614,0.3995000000000033,0.4166999999992598,0.43280000000074637,0.4498000000007494]",,4,0,4,0,1,,,,
,,R223499753,2022-12-15_11h12.06.676,GoFitts,2022.2.4,Win32,59.21714929,,,,,,,,,,,,,,,,,,"[45.67727288213005,-20.336832153790006]","[-48.907380036690284,10.395584540887965]",80,100,2,"[32.5,35.5,37.5,38.5,38.5,38.5,37.5,34.5,30.5,28.5,26.5,25.5,23.5,20.5,18.5,15.5,13.5,9.5,4.5,-1.5,-13.5,-30.5,-42.5,-47.5]","[16,5,-8,-23,-28,-32,-35,-38,-41,-43,-44,-45,-46,-47,-48,-48,-48,-48,-47,-46,-42,-36,-31,-29]","[0,0,0,0,0,0,0,0,0,0,0,0,0,0,0,0,0,0,0,0,0,0,0,0]","[0,0,0,0,0,0,0,0,0,0,0,0,0,0,0,0,0,0,0,0,0,0,0,0]","[0,0,0,0,0,0,0,0,0,0,0,0,0,0,0,0,0,0,0,0,0,0,0,0]","[0.0006000000014907414,0.015900000002240233,0.03350000000000364,0.048800000000746024,0.06630000000074432,0.08280000000074494,0.09900000000000375,0.11599999999999966,0.13300000000000267,0.1490000000000009,0.16600000000000392,0.18210000000149051,0.19919999999925864,0.21600000000000108,0.23340000000223426,0.2499000000022349,0.26630000000074716,0.2826000000014943,0.29940000000223677,0.317699999999256,0.3326999999992566,0.34900000000000375,0.3661000000014951,0.3828000000007492]",,5,0,5,0,1,,,,
,,R223499753,2022-12-15_11h12.06.676,GoFitts,2022.2.4,Win32,59.21714929,,,,,,,,,,,,,,,,,,"[-48.907380036690284,10.395584540887965]","[50,0]",80,100,2,"[-47.5,-52.5,-53.5,-55.5,-55.5,-55.5,-52.5,-49.5,-46.5,-42.5,-38.5,-35.5,-34.5,-34.5,-34.5,-34.5,-33.5,-31.5,-27.5,-21.5,-13.5,-4.5,3.5,15.5]","[-29,-25,-23,-18,-6,0,7,12,14,17,20,22,22,23,23,23,23,23,23,23,23,23,23,19]","[0,0,0,0,0,0,0,0,0,0,0,0,0,0,0,0,0,0,0,0,0,0,0,0]","[0,0,0,0,0,0,0,0,0,0,0,0,0,0,0,0,0,0,0,0,0,0,0,0]","[0,0,0,0,0,0,0,0,0,0,0,0,0,0,0,0,0,0,0,0,0,0,0,0]","[0.0005000000000023874,0.015800000000744774,0.03290000000223614,0.049500000000001876,0.06640000000223978,0.08280000000074494,0.10030000000074324,0.1158000000007462,0.13340000000223995,0.14980000000074511,0.16570000000297824,0.18290000000223472,0.19920000000298188,0.2157000000029825,0.23180000000074585,0.24840000000223483,0.26599999999999824,0.28300000000000125,0.2995000000000019,0.31580000000074904,0.3342000000029799,0.34920000000298046,0.3662000000029835,0.38300000000000267]",,6,0,6,0,1,,,,
,,R223499753,2022-12-15_11h12.06.676,GoFitts,2022.2.4,Win32,59.21714929,,,,,,,,,,,,,,,,,,"[50,0]","[-48.907380036690284,-10.395584540887953]",80,100,2,"[15.5,19.5,20.5,21.5,21.5,22.5,23.5,24.5,25.5,25.5,25.5,23.5,20.5,15.5,12.5,8.5,6.5,5.5,3.5,-5.5,-11.5]","[19,18,17,17,16,15,13,9,7,4,3,1,-1,-5,-7,-8,-9,-10,-10,-10,-9]","[0,0,0,0,0,0,0,0,0,0,0,0,0,0,0,0,0,0,0,0,0]","[0,0,0,0,0,0,0,0,0,0,0,0,0,0,0,0,0,0,0,0,0]","[0,0,0,0,0,0,0,0,0,0,0,0,0,0,0,0,0,0,0,0,0]","[0.0011000000014931288,0.01560000000149131,0.03180000000074301,0.04869999999925767,0.06530000000074665,0.08230000000074256,0.09990000000223631,0.11590000000223455,0.1319000000022328,0.14919999999925437,0.16530000000074807,0.18299999999999983,0.19890000000223296,0.21560000000148705,0.2319000000022342,0.24880000000074176,0.26519999999925403,0.28249999999999886,0.29960000000149023,0.3156999999992536,0.3321000000014891]",,7,0,7,0,1,,,,
,,R223499753,2022-12-15_11h12.06.676,GoFitts,2022.2.4,Win32,59.21714929,,,,,,,,,,,,,,,,,,"[-48.907380036690284,-10.395584540887953]","[45.67727288213004,20.336832153790006]",80,100,2,"[-11.5,-23.5,-35.5,-43.5,-47.5,-49.5,-49.5,-49.5,-49.5,-49.5,-48.5,-44.5,-35.5,-22.5,-13.5,-5.5,5.5,21.5]","[-9,-7,-4,-4,-3,-3,-3,-3,-3,-1,2,5,11,19,23,25,25,21]","[0,0,0,0,0,0,0,0,0,0,0,0,0,0,0,0,0,0]","[0,0,0,0,0,0,0,0,0,0,0,0,0,0,0,0,0,0]","[0,0,0,0,0,0,0,0,0,0,0,0,0,0,0,0,0,0]","[0.0005000000000023874,0.01630000000074716,0.03239999999851051,0.048899999998511134,0.06639999999850943,0.08310000000148676,0.09850000000000136,0.11489999999850653,0.13260000000148864,0.1503999999985126,0.16660000000148756,0.182699999999258,0.199300000000747,0.2171999999992522,0.23289999999850863,0.2491999999992558,0.2661999999992517,0.2828000000007478]",,8,0,8,0,1,,,,
,,R223499753,2022-12-15_11h12.06.676,GoFitts,2022.2.4,Win32,59.21714929,,,,,,,,,,,,,,,,,,"[45.67727288213004,20.336832153790006]","[-40.45084971874737,-29.38926261462365]",80,100,2,"[21.5,33.5,40.5,47.5,50.5,51.5,51.5,48.5,43.5,37.5,33.5,27.5,20.5,7.5,-1.5,-8.5]","[21,14,8,1,-5,-9,-16,-25,-30,-36,-39,-43,-43,-43,-40,-34]","[0,0,0,0,0,0,0,0,0,0,0,0,0,0,0,0]","[0,0,0,0,0,0,0,0,0,0,0,0,0,0,0,0]","[0,0,0,0,0,0,0,0,0,0,0,0,0,0,0,0]","[0.0005000000000023874,0.01620000000298205,0.03260000000149432,0.04910000000149495,0.0660000000000025,0.08299999999999841,0.10030000000074324,0.11590000000223455,0.13310000000149103,0.14970000000298,0.16580000000074335,0.18350000000000222,0.19899999999999807,0.2162000000029849,0.2327000000029784,0.24950000000000472]",,9,0,9,0,1,,,,
,,R223499753,2022-12-15_11h12.06.676,GoFitts,2022.2.4,Win32,59.21714929,,,,,,,,,,,,,,,,,,"[-40.45084971874737,-29.38926261462365]","[33.456530317942914,37.157241273869715]",80,100,2,"[-8.5,-15.5,-19.5,-19.5,-18.5,-14.5,-7.5,4.5]","[-34,-27,-17,-9,3,11,18,25]","[0,0,0,0,0,0,0,0]","[0,0,0,0,0,0,0,0]","[0,0,0,0,0,0,0,0]","[0.000599999997760392,0.015899999998509884,0.03399999999999892,0.04959999999775988,0.06539999999850465,0.08369999999925426,0.09959999999776414,0.11629999999701823]",,10,0,10,0,1,,,,
,,R223499753,2022-12-15_11h12.06.676,GoFitts,2022.2.4,Win32,59.21714929,,,,,,,,,,,,,,,,,,"[33.456530317942914,37.157241273869715]","[-25.00000000000002,-43.301270189221924]",80,100,2,"[4.5,12.5,19.5,24.5,26.5,27.5,27.5,26.5,19.5,13.5,6.5]","[25,28,29,27,23,18,8,2,-16,-24,-30]","[0,0,0,0,0,0,0,0,0,0,0]","[0,0,0,0,0,0,0,0,0,0,0]","[0,0,0,0,0,0,0,0,0,0,0]","[0.0008000000007442054,0.017100000001491367,0.03249999999999886,0.048699999999250565,0.0668000000007467,0.08260000000149148,0.09949999999999903,0.11610000000148801,0.1328999999985072,0.14869999999925199,0.16589999999850846]",,11,0,11,0,1,,,,
,,R223499753,2022-12-15_11h12.06.676,GoFitts,2022.2.4,Win32,59.21714929,,,,,,,,,,,,,,,,,,"[-25.00000000000002,-43.301270189221924]","[15.450849718747373,47.552825814757675]",80,100,2,"[6.5,-2.5,-11.5,-21.5,-29.5,-35.5,-37.5,-37.5,-36.5,-32.5,-24.5,-4.5]","[-30,-35,-38,-38,-36,-32,-28,-22,-11,-2,7,23]","[0,0,0,0,0,0,0,0,0,0,0,0]","[0,0,0,0,0,0,0,0,0,0,0,0]","[0,0,0,0,0,0,0,0,0,0,0,0]","[0.0008000000007442054,0.016199999999251702,0.03280000000074068,0.049300000000741306,0.0665999999977629,0.08259999999776113,0.09939999999851068,0.1158000000007462,0.13250000000000028,0.1494999999999962,0.16580000000074335,0.18230000000074398]",,12,0,12,0,1,,,,
,,R223499753,2022-12-15_11h12.06.676,GoFitts,2022.2.4,Win32,59.21714929,,,,,,,,,,,,,,,,,,"[15.450849718747373,47.552825814757675]","[-5.226423163382711,-49.72609476841367]",80,100,2,"[-4.5,9.5,21.5,30.5,33.5,35.5,36.5,36.5,35.5,32.5,25.5,17.5]","[23,32,38,39,38,34,28,20,8,-5,-17,-27]","[0,0,0,0,0,0,0,0,0,0,0,0]","[0,0,0,0,0,0,0,0,0,0,0,0]","[0,0,0,0,0,0,0,0,0,0,0,0]","[0.0006999999992558514,0.016500000000000625,0.03280000000074068,0.04959999999775988,0.06669999999925125,0.08309999999776352,0.09939999999851068,0.11639999999850659,0.13219999999925136,0.15080000000074278,0.16659999999776431,0.18519999999925574]",,13,0,13,0,1,,,,
,,R223499753,2022-12-15_11h12.06.676,GoFitts,2022.2.4,Win32,59.21714929,,,,,,,,,,,,,,,,,,"[-5.226423163382711,-49.72609476841367]","[-5.226423163382667,49.72609476841367]",80,100,2,"[17.5,6.5,0.5,-12.5,-21.5,-27.5,-35.5,-36.5,-36.5,-32.5,-23.5]","[-27,-33,-35,-34,-28,-21,-7,3,10,20,30]","[0,0,0,0,0,0,0,0,0,0,0]","[0,0,0,0,0,0,0,0,0,0,0]","[0,0,0,0,0,0,0,0,0,0,0]","[0.0005000000000023874,0.013400000002235402,0.030700000002980232,0.047100000001492504,0.06420000000298387,0.08260000000149148,0.10480000000074341,0.11749999999999972,0.1328000000007421,0.1476000000014892,0.16599999999999682]",,14,0,14,0,1,,,,
,,R223499753,2022-12-15_11h12.06.676,GoFitts,2022.2.4,Win32,59.21714929,,,,,,,,,,,,,,,,,,,,,,2,,,,,,,,,,,,,2,0,0,1
,,R223499753,2022-12-15_11h12.06.676,GoFitts,2022.2.4,Win32,59.21714929,,,,,,,,,,,,,,,,return,0.7717,"[-2.5,15]","[-131.46526158592897,-95.51510349752687]",60.5,325,3,"[-2.5,-2.5,-2.5,-2.5,-2.5,-2.5,-2.5,-2.5,-2.5,-2.5,-2.5,-2.5,-2.5,-2.5,-2.5,-2.5,-2.5,-2.5,-2.5,-2.5,-2.5,-2.5,-2.5,-4.5,-8.5,-12.5,-21.5,-27.5,-37.5,-47.5,-57.5,-63.5,-72.5,-75.5,-79.5,-83.5,-86.5,-89.5,-92.5,-94.5,-96.5,-98.5,-99.5,-99.5,-102.5,-103.5,-105.5,-105.5,-105.5,-105.5,-105.5,-105.5,-105.5,-105.5,-105.5,-105.5,-105.5,-103.5,-102.5,-102.5,-102.5,-102.5,-102.5,-102.5,-101.5,-106.5,-115.5]","[15,15,15,15,15,15,15,15,15,15,15,15,15,15,15,15,15,15,15,15,15,15,15,14,12,10,4,0,-8,-15,-26,-36,-43,-48,-51,-55,-58,-60,-64,-66,-69,-71,-72,-73,-75,-77,-78,-78,-78,-78,-78,-78,-78,-78,-78,-78,-78,-77,-77,-77,-77,-77,-76,-75,-75,-77,-81]","[0,0,0,0,0,0,0,0,0,0,0,0,0,0,0,0,0,0,0,0,0,0,0,0,0,0,0,0,0,0,0,0,0,0,0,0,0,0,0,0,0,0,0,0,0,0,0,0,0,0,0,0,0,0,0,0,0,0,0,0,0,0,0,0,0,0,0]","[0,0,0,0,0,0,0,0,0,0,0,0,0,0,0,0,0,0,0,0,0,0,0,0,0,0,0,0,0,0,0,0,0,0,0,0,0,0,0,0,0,0,0,0,0,0,0,0,0,0,0,0,0,0,0,0,0,0,0,0,0,0,0,0,0,0,0]","[0,0,0,0,0,0,0,0,0,0,0,0,0,0,0,0,0,0,0,0,0,0,0,0,0,0,0,0,0,0,0,0,0,0,0,0,0,0,0,0,0,0,0,0,0,0,0,0,0,0,0,0,0,0,0,0,0,0,0,0,0,0,0,0,0,0,0]","[0.0018000000007418748,0.01630000000074716,0.029699999999252213,0.04960000000149023,0.06669999999925835,0.08319999999925187,0.09589999999850818,0.1166000000014904,0.13260000000148864,0.14569999999925187,0.16599999999999682,0.1791999999992555,0.19989999999850738,0.216399999998508,0.22969999999925506,0.24939999999850926,0.2623000000007423,0.2826000000014872,0.29969999999925534,0.31669999999925835,0.33310000000149387,0.3501999999992549,0.3666999999992555,0.379800000000742,0.4021000000014894,0.41689999999851324,0.43410000000149296,0.4498000000007423,0.46650000000000347,0.48310000000149245,0.5011999999992582,0.5176000000014938,0.5331999999992547,0.5501999999992577,0.5666999999992584,0.5805000000000007,0.6008999999985107,0.616899999998509,0.6328999999985072,0.6491000000014893,0.6661999999992574,0.6831999999992533,0.6996000000014888,0.717800000000743,0.7333000000007459,0.7494999999999976,0.766600000001489,0.7828000000007478,0.795499999999997,0.8163000000007443,0.8323999999985077,0.8456000000014896,0.866500000000002,0.8791999999992584,0.8995000000000033,0.9123999999985131,0.9336000000014906,0.9496999999992539,0.9665000000000035,0.9828999999985086,0.9993000000007441,1.0126000000014912,1.033300000000743,1.0501999999992577,1.067300000000742,1.08289999999851,1.099899999998513]",,0,0,0,0,1,,,,
,,R223499753,2022-12-15_11h12.06.676,GoFitts,2022.2.4,Win32,59.21714929,,,,,,,,,,,,,,,,,,"[-131.46526158592897,-95.51510349752687]","[108.73372353331446,120.76103414007656]",60.5,325,3,"[-115.5,-124.5,-136.5,-137.5,-137.5,-137.5,-137.5,-137.5,-137.5,-135.5,-129.5,-121.5,-106.5,-84.5,-48.5,-18.5,5.5,27.5,54.5,70.5,80.5,81.5,82.5,82.5,82.5,82.5,83.5,85.5,85.5]","[-81,-82,-82,-81,-81,-81,-81,-81,-80,-79,-74,-69,-59,-43,-14,7,20,25,25,25,24,24,26,32,42,52,69,101,114]","[0,0,0,0,0,0,0,0,0,0,0,0,0,0,0,0,0,0,0,0,0,0,0,0,0,0,0,0,0]","[0,0,0,0,0,0,0,0,0,0,0,0,0,0,0,0,0,0,0,0,0,0,0,0,0,0,0,0,0]","[0,0,0,0,0,0,0,0,0,0,0,0,0,0,0,0,0,0,0,0,0,0,0,0,0,0,0,0,0]","[0.0005999999977674975,0.01569999999925642,0.032199999999257045,0.048599999997769316,0.06569999999926068,0.07779999999702625,0.09850000000000136,0.11579999999702295,0.1325999999977654,0.14809999999776835,0.16550000000000153,0.18179999999702545,0.1980000000000004,0.21579999999702437,0.23239999999851335,0.24879999999702562,0.26579999999702153,0.28229999999702216,0.29889999999851113,0.31509999999776994,0.3321999999992613,0.34879999999701994,0.3658999999985113,0.38219999999925847,0.3995000000000033,0.4162999999970225,0.43229999999702073,0.44879999999702136,0.46489999999851506]",,1,0,1,0,1,,,,
,,R223499753,2022-12-15_11h12.06.676,GoFitts,2022.2.4,Win32,59.21714929,,,,,,,,,,,,,,,,,,"[108.73372353331446,120.76103414007656]","[-81.25000000000007,-140.72912811497125]",60.5,325,3,"[85.5,85.5,85.5,85.5,86.5,87.5,88.5,88.5,88.5,88.5,91.5,97.5,100.5,101.5,102.5,102.5,102.5,96.5,82.5,65.5,39.5,14.5,-18.5,-42.5,-64.5,-81.5,-89.5,-101.5,-105.5,-106.5]","[114,119,121,122,122,124,124,124,125,125,125,121,118,117,117,113,110,98,80,61,35,11,-12,-24,-40,-55,-66,-87,-104,-131]","[0,0,0,0,0,0,0,0,0,0,0,0,0,0,0,0,0,0,0,0,0,0,0,0,0,0,0,0,0,0]","[0,0,0,0,0,0,0,0,0,0,0,0,0,0,0,0,0,0,0,0,0,0,0,0,0,0,0,0,0,0]","[0,0,0,0,0,0,0,0,0,0,0,0,0,0,0,0,0,0,0,0,0,0,0,0,0,0,0,0,0,0]","[0.0007000000029790954,0.016500000000000625,0.03280000000074068,0.048800000000746024,0.06740000000223034,0.0829000000022333,0.09649999999999892,0.11630000000074148,0.13040000000223273,0.1494999999999962,0.1638000000007409,0.1834000000022371,0.20040000000223301,0.2163000000007429,0.232999999999997,0.2494999999999976,0.26620000000298205,0.28380000000074546,0.29999999999999716,0.3167000000029816,0.3333000000007402,0.3512000000029758,0.3684000000022323,0.38430000000074216,0.40040000000223586,0.416800000000741,0.43320000000297654,0.45030000000074466,0.46649999999999636,0.48420000000297847]",,2,0,2,0,1,,,,
,,R223499753,2022-12-15_11h12.06.676,GoFitts,2022.2.4,Win32,59.21714929,,,,,,,,,,,,,,,,,,"[-81.25000000000007,-140.72912811497125]","[50.215261585928964,154.54668389796245]",60.5,325,3,"[-106.5,-105.5,-103.5,-101.5,-99.5,-99.5,-99.5,-99.5,-98.5,-98.5,-98.5,-98.5,-98.5,-94.5,-90.5,-87.5,-86.5,-84.5,-77.5,-67.5,-29.5,-4.5,21.5,32.5,38.5,39.5,41.5,42.5,45.5,47.5,50.5,52.5,55.5]","[-131,-143,-151,-154,-156,-156,-156,-156,-156,-156,-156,-156,-156,-158,-161,-161,-161,-160,-152,-137,-87,-53,-13,15,31,43,56,69,85,94,103,113,126]","[0,0,0,0,0,0,0,0,0,0,0,0,0,0,0,0,0,0,0,0,0,0,0,0,0,0,0,0,0,0,0,0,0]","[0,0,0,0,0,0,0,0,0,0,0,0,0,0,0,0,0,0,0,0,0,0,0,0,0,0,0,0,0,0,0,0,0]","[0,0,0,0,0,0,0,0,0,0,0,0,0,0,0,0,0,0,0,0,0,0,0,0,0,0,0,0,0,0,0,0,0]","[0.0006999999992558514,0.014800000000747104,0.033899999998510566,0.04830000000074364,0.06530000000074665,0.08169999999925182,0.09799999999999898,0.11459999999776471,0.1311999999992537,0.14780000000074267,0.16180000000074557,0.18099999999999739,0.19400000000000261,0.2168999999985104,0.2325000000000017,0.24809999999776267,0.2653999999985075,0.2828000000007478,0.2993999999985064,0.31509999999776284,0.3316999999992518,0.3478999999985106,0.3663000000007415,0.3815000000000026,0.39969999999925676,0.4160999999977619,0.4318999999985067,0.44919999999925153,0.4649999999999963,0.48239999999850625,0.49939999999850926,0.515599999997761,0.5315000000000012]",,3,0,3,0,1,,,,
,,R223499753,2022-12-15_11h12.06.676,GoFitts,2022.2.4,Win32,59.21714929,,,,,,,,,,,,,,,,,,"[50.215261585928964,154.54668389796245]","[-16.985875280993813,-161.6098079973444]",60.5,325,3,"[55.5,57.5,57.5,57.5,57.5,57.5,57.5,57.5,57.5,57.5,56.5,51.5,47.5,41.5,35.5,27.5,17.5,1.5,-24.5,-39.5,-50.5,-57.5,-61.5,-66.5,-68.5,-68.5,-68.5,-66.5,-62.5,-53.5,-50.5,-47.5,-46.5]","[126,131,132,132,132,132,132,132,132,132,133,136,138,139,139,139,139,139,139,137,132,125,116,95,53,16,-17,-55,-93,-138,-151,-161,-164]","[0,0,0,0,0,0,0,0,0,0,0,0,0,0,0,0,0,0,0,0,0,0,0,0,0,0,0,0,0,0,0,0,0]","[0,0,0,0,0,0,0,0,0,0,0,0,0,0,0,0,0,0,0,0,0,0,0,0,0,0,0,0,0,0,0,0,0]","[0,0,0,0,0,0,0,0,0,0,0,0,0,0,0,0,0,0,0,0,0,0,0,0,0,0,0,0,0,0,0,0,0]","[0.000499999999995282,0.01560000000149131,0.03280000000074068,0.04899999999999949,0.061699999999255795,0.08180000000074017,0.09490000000223375,0.11519999999925545,0.12830000000074193,0.1494999999999962,0.1629000000022316,0.1831999999992533,0.19980000000074227,0.21619999999925454,0.23269999999925517,0.24930000000074415,0.2669999999999959,0.283600000001492,0.2989999999999995,0.3163000000007443,0.3333000000007402,0.34930000000074557,0.36540000000223216,0.3838000000007469,0.3989000000022358,0.41550000000000153,0.43249999999999744,0.449300000000747,0.46640000000223125,0.48310000000148534,0.4989000000022372,0.5158000000007448,0.5329000000022361]",,4,0,4,0,1,,,,
,,R223499753,2022-12-15_11h12.06.676,GoFitts,2022.2.4,Win32,59.21714929,,,,,,,,,,,,,,,,,,"[-16.985875280993813,-161.6098079973444]","[-16.985875280993668,161.60980799734443]",60.5,325,3,"[-46.5,-46.5,-46.5,-46.5,-46.5,-46.5,-46.5,-46.5,-46.5,-44.5,-41.5,-39.5,-37.5,-36.5,-36.5,-35.5,-31.5,-28.5,-23.5,-20.5,-19.5,-19.5,-17.5,-15.5,-10.5,-8.5,-5.5,-2.5,-2.5]","[-164,-166,-166,-166,-166,-166,-166,-166,-166,-164,-159,-154,-152,-151,-150,-149,-139,-128,-106,-79,-54,-28,11,40,72,92,111,127,136]","[0,0,0,0,0,0,0,0,0,0,0,0,0,0,0,0,0,0,0,0,0,0,0,0,0,0,0,0,0]","[0,0,0,0,0,0,0,0,0,0,0,0,0,0,0,0,0,0,0,0,0,0,0,0,0,0,0,0,0]","[0,0,0,0,0,0,0,0,0,0,0,0,0,0,0,0,0,0,0,0,0,0,0,0,0,0,0,0,0]","[0.0005999999977674975,0.019099999997770567,0.03249999999999886,0.04489999999851335,0.0652999999970234,0.07879999999702392,0.09850000000000136,0.11149999999999949,0.132000000000005,0.14569999999925898,0.16550000000000153,0.18299999999999983,0.19900000000000517,0.2155999999977638,0.23239999999851335,0.24900000000000233,0.26559999999776807,0.2847999999970199,0.2993999999985135,0.3157999999970187,0.33200000000000074,0.3491999999992572,0.36619999999926023,0.38300000000000267,0.40019999999925915,0.4161999999992574,0.4331999999992604,0.44879999999702136,0.4655999999977638]",,5,0,5,0,1,,,,
,,R223499753,2022-12-15_11h12.06.676,GoFitts,2022.2.4,Win32,59.21714929,,,,,,,,,,,,,,,,,,"[-16.985875280993668,161.60980799734443]","[50.21526158592892,-154.54668389796245]",60.5,325,3,"[-2.5,-1.5,-1.5,-1.5,-1.5,-1.5,-1.5,-1.5,-1.5,-1.5,-1.5,-1.5,-2.5,-8.5,-13.5,-20.5,-30.5,-35.5,-42.5,-56.5,-69.5,-78.5,-83.5,-79.5,-55.5,-30.5,10.5,26.5,30.5,33.5,35.5,39.5,43.5,45.5,46.5,46.5,46.5,46.5,47.5,48.5,48.5,48.5,48.5,48.5,48.5,48.5]","[136,142,144,146,148,149,149,149,149,149,149,149,148,137,127,111,98,92,85,60,23,-21,-93,-147,-193,-214,-233,-236,-236,-232,-226,-216,-205,-201,-200,-199,-199,-199,-197,-193,-190,-188,-187,-186,-185,-183]","[0,0,0,0,0,0,0,0,0,0,0,0,0,0,0,0,0,0,0,0,0,0,0,0,0,0,0,0,0,0,0,0,0,0,0,0,0,0,0,0,0,0,0,0,0,0]","[0,0,0,0,0,0,0,0,0,0,0,0,0,0,0,0,0,0,0,0,0,0,0,0,0,0,0,0,0,0,0,0,0,0,0,0,0,0,0,0,0,0,0,0,0,0]","[0,0,0,0,0,0,0,0,0,0,0,0,0,0,0,0,0,0,0,0,0,0,0,0,0,0,0,0,0,0,0,0,0,0,0,0,0,0,0,0,0,0,0,0,0,0]","[0.0004000000022372774,0.015300000000749492,0.03280000000074779,0.0498000000007508,0.06480000000075137,0.08200000000000074,0.09810000000149444,0.1110000000000042,0.13100000000000023,0.14440000000223563,0.16540000000223642,0.17769999999925545,0.19850000000000279,0.21580000000074762,0.23200000000000642,0.24900000000000233,0.2656000000014913,0.28210000000149194,0.2984000000022391,0.3164000000022398,0.3321999999992542,0.34869999999926193,0.36590000000223455,0.3825000000000003,0.3984000000022334,0.4164000000022341,0.4321000000014905,0.44860000000149824,0.46510000000149176,0.4816999999992575,0.49880000000074887,0.5166000000014961,0.5323000000007525,0.5496000000014973,0.5659000000022374,0.5816999999992518,0.5986999999992619,0.615000000000002,0.6289999999999978,0.6496999999992639,0.6655000000000015,0.6826000000014929,0.6991999999992586,0.7158000000007476,0.7323000000007553,0.7486000000014954]",,6,0,6,0,1,,,,
,,R223499753,2022-12-15_11h12.06.676,GoFitts,2022.2.4,Win32,59.21714929,,,,,,,,,,,,,,,,,,"[50.21526158592892,-154.54668389796245]","[-81.24999999999996,140.7291281149713]",60.5,325,3,"[48.5,49.5,49.5,50.5,50.5,50.5,50.5,50.5,50.5,50.5,50.5,50.5,50.5,50.5,50.5,48.5,45.5,37.5,25.5,2.5,-16.5,-33.5,-47.5,-62.5,-74.5,-80.5,-82.5,-82.5,-82.5,-78.5,-72.5,-66.5,-64.5,-63.5,-63.5,-63.5,-65.5,-68.5]","[-183,-179,-177,-174,-171,-166,-164,-162,-160,-160,-160,-160,-160,-160,-160,-160,-158,-158,-155,-147,-141,-132,-124,-115,-102,-90,-77,-53,-11,18,48,66,77,89,99,107,114,117]","[0,0,0,0,0,0,0,0,0,0,0,0,0,0,0,0,0,0,0,0,0,0,0,0,0,0,0,0,0,0,0,0,0,0,0,0,0,0]","[0,0,0,0,0,0,0,0,0,0,0,0,0,0,0,0,0,0,0,0,0,0,0,0,0,0,0,0,0,0,0,0,0,0,0,0,0,0]","[0,0,0,0,0,0,0,0,0,0,0,0,0,0,0,0,0,0,0,0,0,0,0,0,0,0,0,0,0,0,0,0,0,0,0,0,0,0]","[0.0005000000000023874,0.017000000000010118,0.03259999999777108,0.04929999999703227,0.06679999999703057,0.08450000000000557,0.09900000000000375,0.11619999999926733,0.13269999999926085,0.1490000000000009,0.16519999999925972,0.17859999999777187,0.19529999999701886,0.2163999999985151,0.22859999999776903,0.2491999999992629,0.2672999999970216,0.2833999999985224,0.299500000000009,0.3160999999977747,0.3321999999992613,0.3496999999992596,0.36599999999999966,0.38379999999702363,0.39969999999925676,0.4156999999992621,0.43259999999777676,0.4493999999985192,0.4668999999985175,0.4835000000000065,0.49959999999776983,0.5155999999977752,0.5327999999970245,0.5496999999992624,0.5656999999992678,0.583599999997773,0.5992999999970294,0.6160999999977719]",,7,0,7,0,1,,,,
,,R223499753,2022-12-15_11h12.06.676,GoFitts,2022.2.4,Win32,59.21714929,,,,,,,,,,,,,,,,,,"[-81.24999999999996,140.7291281149713]","[108.7337235333145,-120.76103414007653]",60.5,325,3,"[-68.5,-71.5,-74.5,-80.5,-84.5,-89.5,-93.5,-96.5,-97.5,-100.5,-101.5,-102.5,-103.5,-103.5,-103.5,-103.5,-103.5,-103.5,-103.5,-103.5,-105.5,-108.5,-108.5,-99.5,-75.5,-40.5,-2.5,51.5,72.5,89.5]","[117,121,125,129,132,135,136,136,137,137,138,138,138,138,138,138,138,138,138,138,125,103,78,22,-15,-46,-71,-102,-118,-134]","[0,0,0,0,0,0,0,0,0,0,0,0,0,0,0,0,0,0,0,0,0,0,0,0,0,0,0,0,0,0]","[0,0,0,0,0,0,0,0,0,0,0,0,0,0,0,0,0,0,0,0,0,0,0,0,0,0,0,0,0,0]","[0,0,0,0,0,0,0,0,0,0,0,0,0,0,0,0,0,0,0,0,0,0,0,0,0,0,0,0,0,0]","[0.000599999997760392,0.015799999997014424,0.03249999999999886,0.04919999999926006,0.0660999999977605,0.08239999999851477,0.09900000000000375,0.11579999999702295,0.132099999997763,0.1492999999970266,0.16669999999925267,0.1831999999992604,0.19929999999702375,0.21539999999851034,0.2282999999970201,0.24500000000000455,0.26550000000000296,0.2793999999985175,0.2990000000000066,0.3114999999999952,0.3326999999992495,0.34959999999776414,0.36599999999999966,0.3830999999977678,0.39889999999850545,0.41559999999776664,0.4328999999985115,0.449399999998505,0.4660000000000082,0.48239999999850625]",,8,0,8,0,1,,,,
,,R223499753,2022-12-15_11h12.06.676,GoFitts,2022.2.4,Win32,59.21714929,,,,,,,,,,,,,,,,,,"[108.7337235333145,-120.76103414007653]","[-131.46526158592894,95.51510349752691]",60.5,325,3,"[89.5,90.5,90.5,90.5,90.5,90.5,90.5,90.5,90.5,90.5,90.5,90.5,90.5,88.5,87.5,86.5,86.5,86.5,86.5,86.5,86.5,86.5,78.5,69.5,46.5,14.5,-46.5,-75.5,-91.5,-107.5]","[-134,-137,-137,-137,-137,-137,-137,-137,-137,-137,-134,-130,-128,-119,-116,-113,-113,-113,-113,-113,-113,-113,-107,-98,-74,-36,33,63,78,92]","[0,0,0,0,0,0,0,0,0,0,0,0,0,0,0,0,0,0,0,0,0,0,0,0,0,0,0,0,0,0]","[0,0,0,0,0,0,0,0,0,0,0,0,0,0,0,0,0,0,0,0,0,0,0,0,0,0,0,0,0,0]","[0,0,0,0,0,0,0,0,0,0,0,0,0,0,0,0,0,0,0,0,0,0,0,0,0,0,0,0,0,0]","[0.000599999997760392,0.016300000000740056,0.03249999999999886,0.0490999999977646,0.06559999999775812,0.0821999999992471,0.0948000000007454,0.1158999999985042,0.12839999999850704,0.14880000000074745,0.1629999999999967,0.1823999999985091,0.19950000000000045,0.21589999999851273,0.2325000000000017,0.24909999999776744,0.2653000000007495,0.278499999999994,0.2985999999977622,0.3116999999992487,0.33209999999776585,0.3453999999985058,0.36569999999925074,0.3828999999985143,0.4006999999992473,0.41689999999850613,0.43250000000000455,0.4490999999977703,0.4660999999977662,0.48269999999925517]",,9,0,9,0,1,,,,
,,R223499753,2022-12-15_11h12.06.676,GoFitts,2022.2.4,Win32,59.21714929,,,,,,,,,,,,,,,,,,"[-131.46526158592894,95.51510349752691]","[148.45113686692267,-66.09470449981752]",60.5,325,3,"[-107.5,-118.5,-124.5,-127.5,-127.5,-127.5,-127.5,-127.5,-127.5,-127.5,-127.5,-127.5,-127.5,-127.5,-129.5,-130.5,-130.5,-131.5,-132.5,-136.5,-139.5,-146.5,-151.5,-154.5,-158.5,-158.5,-155.5,-149.5,-125.5,-98.5,-57.5,11.5,72.5,120.5,151.5]","[92,103,109,112,112,113,113,113,113,113,113,113,113,113,110,101,83,66,49,31,13,-7,-21,-33,-49,-58,-62,-63,-63,-59,-59,-62,-71,-83,-94]","[0,0,0,0,0,0,0,0,0,0,0,0,0,0,0,0,0,0,0,0,0,0,0,0,0,0,0,0,0,0,0,0,0,0,0]","[0,0,0,0,0,0,0,0,0,0,0,0,0,0,0,0,0,0,0,0,0,0,0,0,0,0,0,0,0,0,0,0,0,0,0]","[0,0,0,0,0,0,0,0,0,0,0,0,0,0,0,0,0,0,0,0,0,0,0,0,0,0,0,0,0,0,0,0,0,0,0]","[0.0008000000007371,0.015600000001484204,0.033999999999991815,0.049699999999248234,0.06569999999925358,0.08269999999924948,0.09890000000223154,0.11219999999924823,0.13210000000148625,0.1454999999999984,0.16580000000074335,0.1783000000007462,0.19899999999999807,0.21560000000148705,0.23000000000000398,0.2491999999992487,0.2661000000014866,0.28249999999999886,0.29919999999924585,0.3155000000000001,0.3335000000000008,0.34930000000073846,0.36510000000149034,0.38219999999925847,0.39960000000148455,0.4170000000000016,0.43360000000149057,0.45000000000000284,0.46560000000148705,0.48260000000148295,0.4991999999992487,0.5154000000022307,0.5335000000000036,0.5499999999999972,0.5656999999992536]",,10,0,10,0,1,,,,
,,R223499753,2022-12-15_11h12.06.676,GoFitts,2022.2.4,Win32,59.21714929,,,,,,,,,,,,,,,,,,"[148.45113686692267,-66.09470449981752]","[-158.94898511924342,33.78564975788589]",60.5,325,3,"[151.5,156.5,156.5,156.5,156.5,156.5,156.5,156.5,156.5,157.5,157.5,157.5,157.5,157.5,157.5,157.5,157.5,157.5,155.5,152.5,145.5,136.5,124.5,98.5,54.5,21.5,-3.5,-43.5,-75.5,-104.5,-129.5,-139.5]","[-94,-94,-94,-94,-94,-94,-93,-93,-92,-90,-90,-89,-87,-87,-87,-86,-85,-84,-83,-83,-83,-82,-80,-74,-62,-54,-45,-23,-2,22,41,48]","[0,0,0,0,0,0,0,0,0,0,0,0,0,0,0,0,0,0,0,0,0,0,0,0,0,0,0,0,0,0,0,0]","[0,0,0,0,0,0,0,0,0,0,0,0,0,0,0,0,0,0,0,0,0,0,0,0,0,0,0,0,0,0,0,0]","[0,0,0,0,0,0,0,0,0,0,0,0,0,0,0,0,0,0,0,0,0,0,0,0,0,0,0,0,0,0,0,0]","[0.0006999999992558514,0.01580000000075188,0.03180000000074301,0.044899999998506246,0.06559999999777233,0.08280000000074494,0.09880000000075029,0.11559999999776949,0.13030000000074438,0.1495999999977613,0.16609999999776903,0.18339999999851386,0.19969999999925392,0.2163000000007429,0.22830000000074335,0.24909999999776744,0.2656999999992564,0.28309999999777347,0.29889999999851113,0.31530000000074665,0.3330999999977706,0.3496999999992596,0.36650000000000205,0.38439999999850727,0.3995999999977613,0.41609999999776903,0.4331999999992604,0.44899999999999807,0.4668999999985175,0.4835000000000065,0.49959999999776983,0.5168000000007424]",,11,0,11,0,1,,,,
,,R223499753,2022-12-15_11h12.06.676,GoFitts,2022.2.4,Win32,59.21714929,,,,,,,,,,,,,,,,,,"[-158.94898511924342,33.78564975788589]","[162.5,0]",60.5,325,3,"[-139.5,-147.5,-149.5,-149.5,-149.5,-149.5,-149.5,-149.5,-149.5,-149.5,-149.5,-149.5,-149.5,-149.5,-149.5,-149.5,-145.5,-115.5,-87.5,-29.5,36.5,101.5,139.5,168.5,184.5,186.5,188.5,189.5,189.5,189.5,187.5]","[48,52,53,53,53,53,53,53,53,53,53,53,53,53,53,54,56,65,71,81,93,100,99,91,78,70,53,40,30,25,17]","[0,0,0,0,0,0,0,0,0,0,0,0,0,0,0,0,0,0,0,0,0,0,0,0,0,0,0,0,0,0,0]","[0,0,0,0,0,0,0,0,0,0,0,0,0,0,0,0,0,0,0,0,0,0,0,0,0,0,0,0,0,0,0]","[0,0,0,0,0,0,0,0,0,0,0,0,0,0,0,0,0,0,0,0,0,0,0,0,0,0,0,0,0,0,0]","[0.0007000000029790954,0.015000000000000568,0.031700000002970796,0.04810000000148307,0.06430000000074187,0.07750000000000057,0.099100000001485,0.11340000000222972,0.130900000002228,0.14430000000074017,0.16360000000148034,0.1813000000007463,0.19760000000148636,0.21220000000298,0.2281000000014899,0.2486000000014883,0.26540000000223074,0.28240000000222665,0.2980000000000018,0.3159000000022303,0.33180000000074017,0.3482000000029757,0.3652000000029716,0.3819999999999908,0.39860000000147977,0.41530000000074097,0.43200000000000216,0.44810000000148875,0.46560000000148705,0.48180000000074585,0.49820000000298137]",,12,0,12,0,1,,,,
,,R223499753,2022-12-15_11h12.06.676,GoFitts,2022.2.4,Win32,59.21714929,,,,,,,,,,,,,,,,,,"[162.5,0]","[-158.94898511924342,-33.78564975788585]",60.5,325,3,"[187.5,184.5,181.5,177.5,174.5,171.5,167.5,166.5,166.5,166.5,166.5,166.5,166.5,166.5,166.5,163.5,155.5,137.5,107.5,40.5,-20.5,-64.5,-109.5,-136.5,-150.5,-156.5,-157.5,-159.5,-160.5,-160.5,-161.5,-161.5,-161.5,-161.5,-161.5,-161.5,-161.5,-161.5]","[17,13,10,6,3,1,-1,-1,-1,-1,-1,-1,-1,-1,-1,-2,-3,-3,-3,0,4,6,8,8,8,6,5,4,3,2,2,2,2,2,2,2,0,-10]","[0,0,0,0,0,0,0,0,0,0,0,0,0,0,0,0,0,0,0,0,0,0,0,0,0,0,0,0,0,0,0,0,0,0,0,0,0,0]","[0,0,0,0,0,0,0,0,0,0,0,0,0,0,0,0,0,0,0,0,0,0,0,0,0,0,0,0,0,0,0,0,0,0,0,0,0,0]","[0,0,0,0,0,0,0,0,0,0,0,0,0,0,0,0,0,0,0,0,0,0,0,0,0,0,0,0,0,0,0,0,0,0,0,0,0,0]","[0.0005000000000023874,0.017100000001491367,0.03269999999925233,0.04899999999999238,0.06610000000148375,0.08289999999850295,0.099100000001485,0.11650000000000205,0.13219999999924426,0.14830000000074506,0.16619999999925028,0.18230000000073687,0.19499999999999318,0.21569999999924505,0.22839999999850136,0.24989999999850454,0.26599999999999113,0.2823999999985034,0.29889999999851113,0.3160000000000025,0.33239999999850056,0.3493999999985107,0.3658000000007462,0.3828999999985001,0.4024999999999892,0.41639999999850374,0.4331999999992462,0.4496999999992539,0.4658000000007405,0.4828000000007364,0.49980000000074654,0.5156000000014842,0.5324999999999989,0.54849999999999,0.5618000000007441,0.5818999999985124,0.5963000000007384,0.6163000000007344]",,13,0,13,0,1,,,,
