身分證字號,date,expName,psychopyVersion,OS,frameRate,from,to,w,a,id,sequence_loop.thisN,enter_time,mouse.x,mouse.y,mouse.leftButton,mouse.midButton,mouse.rightButton,mouse.time,trial_loop.thisRepN,trial_loop.thisTrialN,trial_loop.thisN,trial_loop.thisIndex,trial_loop.ran,leave_time,sequence_loop.thisRepN,sequence_loop.thisTrialN,sequence_loop.thisIndex,sequence_loop.ran
S111111111,2024-11-27_18h08.23.739,GoFitts,2023.2.3,Win32,30.03003003,,,,,,,,,,,,,,,,,,,,,,,
S111111111,2024-11-27_18h08.23.739,GoFitts,2023.2.3,Win32,30.03003003,,,,,,,,,,,,,,,,,,,,,,,
S111111111,2024-11-27_18h08.23.739,GoFitts,2023.2.3,Win32,30.03003003,"[21.20361328125,-181.4814453125]","[-27.479424841121944,-261.4492629308498]",27,525.7787971,5.32,0,0.8013,"[21.20361328125,21.20361328125,21.20361328125,21.20361328125,21.20361328125,21.20361328125,21.20361328125,21.20361328125,21.20361328125,21.20361328125,22.6851806640625,22.6851806640625,20.4627685546875,18.9814453125,16.7591552734375,11.573974609375,-3.2408447265625,-14.3519287109375,-21.0185546875,-41.0185546875,-41.75927734375,-41.75927734375,-35.8333740234375,-35.8333740234375,-34.3519287109375,-23.2408447265625,-21.0185546875,-21.0185546875,-21.0185546875,-21.0185546875,-21.0185546875,-21.0185546875,-21.0185546875,-21.0185546875,-21.0185546875,-21.0185546875,-21.0185546875,-21.0185546875]","[-181.4814453125,-181.4814453125,-181.4814453125,-181.4814453125,-181.4814453125,-181.4814453125,-181.4814453125,-181.4814453125,-181.4814453125,-180.74072265625,-167.4073486328125,-137.77777099609375,-96.2962646484375,-85.9259033203125,-87.4073486328125,-135.5555419921875,-168.88885498046875,-188.14813232421875,-200.74072265625,-229.629638671875,-237.7777099609375,-242.22216796875,-261.4814453125,-262.22216796875,-261.4814453125,-251.111083984375,-249.629638671875,-249.629638671875,-251.111083984375,-252.592529296875,-252.592529296875,-252.592529296875,-252.592529296875,-252.592529296875,-252.592529296875,-252.592529296875,-252.592529296875,-252.592529296875]","[0,0,0,0,0,0,0,0,0,0,0,0,0,0,0,0,0,0,0,0,0,0,0,0,0,0,0,0,0,0,0,0,0,0,0,0,0,0]","[0,0,0,0,0,0,0,0,0,0,0,0,0,0,0,0,0,0,0,0,0,0,0,0,0,0,0,0,0,0,0,0,0,0,0,0,0,0]","[0,0,0,0,0,0,0,0,0,0,0,0,0,0,0,0,0,0,0,0,0,0,0,0,0,0,0,0,0,0,0,0,0,0,0,0,0,0]","[0.0005999999940407008,0.026799999997020763,0.0587000000029807,0.0952000000029809,0.13209999999403976,0.14339999999105935,0.20839999999106062,0.24829999999701968,0.2870999999940409,0.31400000000000006,0.35059999999404035,0.3873999999910591,0.42609999999404025,0.4652999999970202,0.5017000000029803,0.5368999999910606,0.5715000000000003,0.6085000000000012,0.64539999999106,0.6840999999940394,0.7347000000029809,0.7642999999970197,0.8012999999970205,0.8297999999970198,0.8577000000029802,0.894700000002981,0.9212999999970197,0.97239999999106,0.9992999999970209,1.0453999999910604,1.0810000000000013,1.0925999999940395,1.1483999999910601,1.185500000000001,1.22529999999702,1.230500000000001,1.2975999999940395,1.3345000000000002]",0,0,0,0,1,,,,,
S111111111,2024-11-27_18h08.23.739,GoFitts,2023.2.3,Win32,30.03003003,"[-27.479424841121944,-261.4492629308498]","[-27.479424841121705,261.44926293084984]",27,525.7787971,5.32,0,1.2506,"[-21.0185546875,-21.0185546875,-21.0185546875,-21.0185546875,-21.0185546875,-21.0185546875,-21.0185546875,-21.0185546875,-21.0185546875,-21.0185546875,-21.0185546875,-21.0185546875,-19.5372314453125,-17.3148193359375,-28.426025390625,-47.6851806640625,-58.0555419921875,-66.2037353515625,-67.6851806640625,-69.166748046875,-70.648193359375,-70.648193359375,-69.907470703125,-61.75927734375,-43.9815673828125,-43.2408447265625,-43.2408447265625,-43.2408447265625,-43.2408447265625,-43.2408447265625,-43.2408447265625,-43.2408447265625,-43.2408447265625,-43.2408447265625,-42.5,-37.3148193359375,-37.3148193359375,-35.8333740234375,-35.8333740234375,-35.8333740234375,-35.8333740234375,-35.8333740234375,-35.8333740234375,-35.8333740234375,-35.8333740234375,-35.8333740234375,-35.8333740234375,-35.8333740234375,-35.8333740234375,-35.8333740234375,-35.8333740234375]","[-252.592529296875,-252.592529296875,-252.592529296875,-252.592529296875,-252.592529296875,-252.592529296875,-252.592529296875,-252.592529296875,-252.592529296875,-252.592529296875,-252.592529296875,-253.333251953125,-228.888916015625,-136.2962646484375,-6.6666259765625,99.25927734375,150.370361328125,185.92596435546875,191.85186767578125,211.1112060546875,242.22222900390625,250.370361328125,252.59259033203125,255.55560302734375,262.22222900390625,262.96295166015625,262.96295166015625,262.96295166015625,262.96295166015625,262.96295166015625,262.96295166015625,262.96295166015625,262.96295166015625,262.96295166015625,263.7037353515625,263.7037353515625,263.7037353515625,263.7037353515625,263.7037353515625,263.7037353515625,263.7037353515625,263.7037353515625,263.7037353515625,263.7037353515625,263.7037353515625,263.7037353515625,263.7037353515625,263.7037353515625,263.7037353515625,263.7037353515625,263.7037353515625]","[0,0,0,0,0,0,0,0,0,0,0,0,0,0,0,0,0,0,0,0,0,0,0,0,0,0,0,0,0,0,0,0,0,0,0,0,0,0,0,0,0,0,0,0,0,0,0,0,0,0,0]","[0,0,0,0,0,0,0,0,0,0,0,0,0,0,0,0,0,0,0,0,0,0,0,0,0,0,0,0,0,0,0,0,0,0,0,0,0,0,0,0,0,0,0,0,0,0,0,0,0,0,0]","[0,0,0,0,0,0,0,0,0,0,0,0,0,0,0,0,0,0,0,0,0,0,0,0,0,0,0,0,0,0,0,0,0,0,0,0,0,0,0,0,0,0,0,0,0,0,0,0,0,0,0]","[0.00009999999403831339,0.03339999999105814,0.03879999999701944,0.10609999999403819,0.14499999999999957,0.18019999998807812,0.21639999999105797,0.251299999997018,0.2872999999970194,0.32329999999701897,0.3582999999970191,0.39089999999105807,0.42879999999701823,0.4618999999910578,0.49099999999999966,0.5208999999910588,0.5473999999910593,0.5800999999940384,0.6082999999970191,0.659099999994039,0.7039999999999988,0.7300999999940387,0.7669999999999995,0.8032999999970194,0.850199999988078,0.8877999999970196,0.9239999999999995,0.9599999999999991,0.9954999999999998,1.0329999999999995,1.069599999994038,1.106799999997019,1.1464999999999996,1.1548999999910592,1.222299999997018,1.250699999988079,1.2858999999910576,1.3251999999880777,1.3738999999910586,1.413499999999999,1.439699999988079,1.4790999999940393,1.5080999999940392,1.5363999999910583,1.5724999999999998,1.6100999999940395,1.6472999999970188,1.6820999999940387,1.7107999999970183,1.7209999999999983,1.7654999999999994]",1,0,1,0,1,0.4286,,,,
S111111111,2024-11-27_18h08.23.739,GoFitts,2023.2.3,Win32,30.03003003,"[-27.479424841121705,261.44926293084984]","[81.23729179689803,-250.0226755680155]",27,525.7787971,5.32,0,0.8196,"[-35.8333740234375,-35.8333740234375,-35.8333740234375,-35.8333740234375,-35.8333740234375,-35.8333740234375,-35.8333740234375,-35.8333740234375,-35.8333740234375,-34.3519287109375,-15.8333740234375,23.4259033203125,51.573974609375,70.833251953125,70.092529296875,69.351806640625,69.351806640625,69.351806640625,72.3148193359375,73.7962646484375,73.7962646484375,73.7962646484375,74.5369873046875,76.0184326171875,76.7591552734375,77.5,77.5,77.5,77.5,77.5,77.5,77.5,77.5,77.5,77.5,77.5,77.5,77.5,77.5,77.5]","[263.7037353515625,263.7037353515625,263.7037353515625,263.7037353515625,263.7037353515625,263.7037353515625,263.7037353515625,263.7037353515625,263.7037353515625,262.96295166015625,243.7037353515625,160,39.25927734375,-92.59259033203125,-107.4073486328125,-137.77777099609375,-151.111083984375,-172.59259033203125,-198.51849365234375,-205.9259033203125,-208.14813232421875,-215.5555419921875,-221.4814453125,-239.25927734375,-245.1851806640625,-248.1480712890625,-248.1480712890625,-248.1480712890625,-248.1480712890625,-248.1480712890625,-248.1480712890625,-248.1480712890625,-248.1480712890625,-248.1480712890625,-248.1480712890625,-248.1480712890625,-248.1480712890625,-248.1480712890625,-248.1480712890625,-248.1480712890625]","[0,0,0,0,0,0,0,0,0,0,0,0,0,0,0,0,0,0,0,0,0,0,0,0,0,0,0,0,0,0,0,0,0,0,0,0,0,0,0,0]","[0,0,0,0,0,0,0,0,0,0,0,0,0,0,0,0,0,0,0,0,0,0,0,0,0,0,0,0,0,0,0,0,0,0,0,0,0,0,0,0]","[0,0,0,0,0,0,0,0,0,0,0,0,0,0,0,0,0,0,0,0,0,0,0,0,0,0,0,0,0,0,0,0,0,0,0,0,0,0,0,0]","[0,0.0432000000029813,0.07890000000596054,0.1120000000000001,0.14920000000298117,0.18720000000297965,0.20240000000596048,0.2609000000059609,0.29790000000595995,0.32529999999701964,0.365600000008941,0.40249999999999986,0.4382999999970192,0.48460000000894077,0.5050000000000008,0.5495000000000001,0.5707999999970195,0.6070000000000011,0.6594999999999995,0.6857999999970197,0.7227999999970205,0.7542000000029798,0.7810000000000006,0.8196000000089416,0.8606000000089402,0.896100000008941,0.9419000000059601,0.9747999999970194,0.9849999999999994,1.0062999999970206,1.042900000005961,1.1197000000029806,1.157,1.1939000000059607,1.2287000000029806,1.2347000000029809,1.2699000000059613,1.285600000008941,1.301700000002981,1.3594000000059605]",2,0,2,0,1,0.3655,,,,
S111111111,2024-11-27_18h08.23.739,GoFitts,2023.2.3,Win32,30.03003003,"[81.23729179689803,-250.0226755680155]","[-131.44469928137406,227.6688975409523]",27,525.7787971,5.32,0,0.9882,"[77.5,77.5,77.5,77.5,77.5,77.5,77.5,77.5,77.5,77.5,77.5,53.7962646484375,31.573974609375,-10.648193359375,-25.4630126953125,-37.3148193359375,-39.5372314453125,-47.6851806640625,-55.0926513671875,-75.0926513671875,-106.2037353515625,-107.6851806640625,-110.648193359375,-115.8333740234375,-118.79638671875,-118.79638671875,-119.537109375,-123.9815673828125,-123.9815673828125,-123.9815673828125,-123.9815673828125,-123.9815673828125,-123.9815673828125,-123.9815673828125,-123.9815673828125,-123.9815673828125,-123.9815673828125,-123.9815673828125,-123.9815673828125,-123.9815673828125,-124.7222900390625,-124.7222900390625,-126.2037353515625]","[-248.1480712890625,-248.1480712890625,-248.1480712890625,-248.1480712890625,-248.1480712890625,-248.1480712890625,-248.1480712890625,-248.1480712890625,-248.1480712890625,-245.9259033203125,-236.2962646484375,-124.44439697265625,-68.88885498046875,34.8148193359375,79.25927734375,105.92596435546875,108.148193359375,122.9630126953125,133.3333740234375,150.370361328125,169.629638671875,176.29632568359375,182.9630126953125,190.370361328125,197.03704833984375,208.888916015625,215.55560302734375,221.48150634765625,222.22222900390625,222.22222900390625,222.22222900390625,222.22222900390625,222.22222900390625,222.22222900390625,222.22222900390625,222.22222900390625,222.22222900390625,222.22222900390625,222.22222900390625,224.4444580078125,229.629638671875,233.3333740234375,237.03704833984375]","[0,0,0,0,0,0,0,0,0,0,0,0,0,0,0,0,0,0,0,0,0,0,0,0,0,0,0,0,0,0,0,0,0,0,0,0,0,0,0,0,0,0,0]","[0,0,0,0,0,0,0,0,0,0,0,0,0,0,0,0,0,0,0,0,0,0,0,0,0,0,0,0,0,0,0,0,0,0,0,0,0,0,0,0,0,0,0]","[0,0,0,0,0,0,0,0,0,0,0,0,0,0,0,0,0,0,0,0,0,0,0,0,0,0,0,0,0,0,0,0,0,0,0,0,0,0,0,0,0,0,0]","[0.00010000000894194727,0.03530000001192235,0.07160000000894229,0.07690000000596164,0.14440000000596065,0.18020000000298175,0.21620000000298134,0.25210000000894084,0.29170000000298124,0.32750000000000057,0.36020000000298147,0.3896000000089419,0.4069000000059617,0.44520000000298054,0.4827000000029802,0.5268000000119208,0.5625,0.6023000000119225,0.6389999999999993,0.6782000000029811,0.7187000000029826,0.7602000000029818,0.7958000000119227,0.8317000000029822,0.8724000000059604,0.9115000000000002,0.9469000000059609,0.9882000000029798,1.0264000000059603,1.07260000000894,1.1086000000089413,1.1438000000119217,1.1718000000119204,1.1990000000000016,1.226100000008941,1.26160000000894,1.2950000000000017,1.3064000000059615,1.367800000011922,1.399000000000001,1.4269000000059613,1.44760000000894,1.4959000000059604]",3,0,3,0,1,0.3601,,,,
S111111111,2024-11-27_18h08.23.739,GoFitts,2023.2.3,Win32,30.03003003,"[-131.44469928137406,227.6688975409523]","[175.90734266560733,-195.3648962147706]",27,525.7787971,5.32,0,1.049,"[-126.2037353515625,-126.2037353515625,-126.2037353515625,-126.2037353515625,-126.2037353515625,-126.2037353515625,-126.2037353515625,-126.2037353515625,-126.2037353515625,-126.2037353515625,-124.7222900390625,-118.0555419921875,-46.9444580078125,126.3887939453125,198.9814453125,201.9443359375,201.9443359375,201.9443359375,203.4259033203125,203.4259033203125,198.9814453125,194.5369873046875,190.833251953125,190.833251953125,190.833251953125,190.833251953125,190.833251953125,190.833251953125,188.611083984375,185.6480712890625,184.1666259765625,184.1666259765625,184.1666259765625,184.1666259765625,184.1666259765625,184.1666259765625,184.1666259765625,184.1666259765625,184.1666259765625,184.1666259765625,184.1666259765625,184.1666259765625,184.1666259765625,184.1666259765625]","[237.03704833984375,237.03704833984375,237.03704833984375,237.03704833984375,237.03704833984375,237.03704833984375,237.03704833984375,237.03704833984375,237.03704833984375,237.03704833984375,237.77777099609375,231.85186767578125,176.29632568359375,21.48150634765625,-72.59259033203125,-86.6666259765625,-98.51849365234375,-115.5555419921875,-145.1851806640625,-151.111083984375,-162.22216796875,-171.111083984375,-181.4814453125,-181.4814453125,-181.4814453125,-181.4814453125,-181.4814453125,-181.4814453125,-185.1851806640625,-189.62957763671875,-191.111083984375,-191.111083984375,-191.111083984375,-191.111083984375,-191.111083984375,-191.111083984375,-191.111083984375,-191.111083984375,-191.111083984375,-191.111083984375,-191.111083984375,-191.111083984375,-191.111083984375,-191.111083984375]","[0,0,0,0,0,0,0,0,0,0,0,0,0,0,0,0,0,0,0,0,0,0,0,0,0,0,0,0,0,0,0,0,0,0,0,0,0,0,0,0,0,0,0,0]","[0,0,0,0,0,0,0,0,0,0,0,0,0,0,0,0,0,0,0,0,0,0,0,0,0,0,0,0,0,0,0,0,0,0,0,0,0,0,0,0,0,0,0,0]","[0,0,0,0,0,0,0,0,0,0,0,0,0,0,0,0,0,0,0,0,0,0,0,0,0,0,0,0,0,0,0,0,0,0,0,0,0,0,0,0,0,0,0,0]","[0,0.03629999999701994,0.041700000002979465,0.10829999999701911,0.1442000000029786,0.17979999999701946,0.21759999999403945,0.2530000000000001,0.2579999999999991,0.3292999999970192,0.36759999999403803,0.3944999999999972,0.4307999999970171,0.46770000000297784,0.5187000000029798,0.5452999999970167,0.586399999991059,0.6137000000029786,0.6597999999970199,0.6869999999999976,0.7232999999970176,0.7644999999999982,0.8009999999999984,0.8487999999970199,0.8880999999940364,0.9167000000029795,0.9442999999970176,0.9787000000029771,1.010700000002977,1.0490999999940378,1.0864999999999974,1.1317000000029793,1.1687000000029784,1.2052999999970169,1.24270000000298,1.2808999999910569,1.3155999999940384,1.3447000000029803,1.3574999999999982,1.4163999999910573,1.453299999997018,1.489599999994038,1.5275999999940382,1.5630999999940371]",4,0,4,0,1,0.3944,,,,
S111111111,2024-11-27_18h08.23.739,GoFitts,2023.2.3,Win32,30.03003003,"[175.90734266560733,-195.3648962147706]","[-212.68199107827218,154.52251145922153]",27,525.7787971,5.32,0,0.8008,"[184.1666259765625,184.1666259765625,184.1666259765625,184.1666259765625,184.1666259765625,184.1666259765625,184.1666259765625,184.1666259765625,181.20361328125,170.833251953125,57.5,-39.5372314453125,-78.79638671875,-89.907470703125,-102.5,-106.9444580078125,-117.3148193359375,-133.6112060546875,-142.5,-152.129638671875,-169.907470703125,-179.537109375,-208.426025390625,-221.0185546875,-221.0185546875,-221.0185546875,-221.0185546875,-221.0185546875,-221.0185546875,-221.0185546875,-221.0185546875,-221.0185546875,-221.0185546875,-221.0185546875,-221.0185546875,-221.0185546875,-221.0185546875,-221.0185546875]","[-191.111083984375,-191.111083984375,-191.111083984375,-191.111083984375,-191.111083984375,-191.111083984375,-191.111083984375,-191.111083984375,-190.370361328125,-182.96295166015625,-102.96295166015625,-16.2962646484375,26.66668701171875,44.4444580078125,65.1851806640625,73.3333740234375,88.888916015625,104.4444580078125,111.11114501953125,118.51861572265625,131.85186767578125,137.03704833984375,147.40740966796875,151.85186767578125,151.85186767578125,151.85186767578125,151.85186767578125,151.85186767578125,151.85186767578125,151.85186767578125,151.85186767578125,151.85186767578125,151.85186767578125,151.85186767578125,151.85186767578125,151.85186767578125,151.85186767578125,151.85186767578125]","[0,0,0,0,0,0,0,0,0,0,0,0,0,0,0,0,0,0,0,0,0,0,0,0,0,0,0,0,0,0,0,0,0,0,0,0,0,0]","[0,0,0,0,0,0,0,0,0,0,0,0,0,0,0,0,0,0,0,0,0,0,0,0,0,0,0,0,0,0,0,0,0,0,0,0,0,0]","[0,0,0,0,0,0,0,0,0,0,0,0,0,0,0,0,0,0,0,0,0,0,0,0,0,0,0,0,0,0,0,0,0,0,0,0,0,0]","[0,0.03529999999702227,0.04259999999403874,0.10900000000000176,0.1460999999940391,0.18299999999999983,0.22320000000297924,0.26000000000000156,0.29729999999701917,0.32409999999403993,0.36890000000596146,0.39920000000298117,0.4312999999970195,0.4604999999999997,0.4982999999970197,0.5365000000000002,0.5727999999970201,0.6095000000000006,0.6465999999940415,0.6870999999940395,0.7357000000029821,0.7627999999970214,0.8007999999970217,0.8362999999970206,0.88229999999702,0.9185000000000016,0.9594000000059602,0.9755999999940386,1.0327000000029827,1.071799999997019,1.1057999999970214,1.1432999999970193,1.1587999999970222,1.2185000000000024,1.2552999999970211,1.2905000000000015,1.2955000000000005,1.3624000000059624]",5,0,5,0,1,0.3688,,,,
S111111111,2024-11-27_18h08.23.739,GoFitts,2023.2.3,Win32,30.03003003,"[-212.68199107827218,154.52251145922153]","[240.16141591939396,-106.9267514716283]",27,525.7787971,5.32,0,0.8796,"[-221.0185546875,-221.0185546875,-221.0185546875,-221.0185546875,-221.0185546875,-221.0185546875,-221.0185546875,-221.0185546875,-221.0185546875,-221.0185546875,-219.537109375,-205.4630126953125,-116.5740966796875,-65.4630126953125,42.6851806640625,85.64794921875,96.0184326171875,104.9073486328125,116.7591552734375,155.2777099609375,203.4259033203125,210.092529296875,210.092529296875,210.092529296875,211.573974609375,216.0184326171875,225.6480712890625,227.1295166015625,228.611083984375,230.833251953125,231.573974609375,231.573974609375,231.573974609375,231.573974609375,231.573974609375,231.573974609375,231.573974609375,231.573974609375,231.573974609375,231.573974609375,231.573974609375,231.573974609375,231.573974609375]","[151.85186767578125,151.85186767578125,151.85186767578125,151.85186767578125,151.85186767578125,151.85186767578125,151.85186767578125,151.85186767578125,151.85186767578125,151.85186767578125,150.370361328125,140,85.1851806640625,57.77783203125,2.22222900390625,-15.5555419921875,-21.4814453125,-27.40740966796875,-36.2962646484375,-57.0369873046875,-74.07403564453125,-76.2962646484375,-76.2962646484375,-77.0369873046875,-81.4814453125,-91.851806640625,-108.14813232421875,-109.62957763671875,-109.62957763671875,-110.370361328125,-110.370361328125,-110.370361328125,-110.370361328125,-110.370361328125,-110.370361328125,-110.370361328125,-110.370361328125,-110.370361328125,-110.370361328125,-110.370361328125,-110.370361328125,-110.370361328125,-110.370361328125]","[0,0,0,0,0,0,0,0,0,0,0,0,0,0,0,0,0,0,0,0,0,0,0,0,0,0,0,0,0,0,0,0,0,0,0,0,0,0,0,0,0,0,0]","[0,0,0,0,0,0,0,0,0,0,0,0,0,0,0,0,0,0,0,0,0,0,0,0,0,0,0,0,0,0,0,0,0,0,0,0,0,0,0,0,0,0,0]","[0,0,0,0,0,0,0,0,0,0,0,0,0,0,0,0,0,0,0,0,0,0,0,0,0,0,0,0,0,0,0,0,0,0,0,0,0,0,0,0,0,0,0]","[0.00010000000894194727,0.031900000005961715,0.04720000000298086,0.0625,0.10070000000298052,0.13610000000894118,0.1693000000119227,0.19620000000298177,0.21120000000298234,0.2487000000029802,0.2658000000119216,0.3030000000000008,0.3493000000119224,0.3749000000059617,0.41160000000894215,0.4559000000059612,0.4864999999999995,0.5118000000119238,0.5482000000029821,0.5986000000089433,0.6346000000089411,0.6626000000089434,0.7068000000119206,0.7432000000029824,0.7762000000029801,0.802500000000002,0.8522000000029806,0.8796000000089421,0.915200000002983,0.9592000000029799,0.9911000000089416,1.027100000008943,1.0562000000029812,1.0866000000089429,1.1146000000089415,1.1452000000029798,1.160600000008941,1.2178000000119233,1.2568000000119213,1.293700000002982,1.2986000000089426,1.332200000002981,1.403300000011921]",6,0,6,0,1,0.303,,,,
S111111111,2024-11-27_18h08.23.739,GoFitts,2023.2.3,Win32,30.03003003,"[240.16141591939396,-106.9267514716283]","[-257.14463446250534,54.65777935324481]",27,525.7787971,5.32,0,0.9568,"[231.573974609375,231.573974609375,231.573974609375,231.573974609375,231.573974609375,231.573974609375,231.573974609375,231.573974609375,229.351806640625,218.24072265625,144.1666259765625,44.1666259765625,-49.166748046875,-116.5740966796875,-152.870361328125,-164.722412109375,-172.129638671875,-184.722412109375,-186.9444580078125,-195.8333740234375,-205.4630126953125,-215.0926513671875,-221.0185546875,-233.6112060546875,-235.8333740234375,-236.5740966796875,-236.5740966796875,-236.5740966796875,-254.3519287109375,-256.5740966796875,-256.5740966796875,-256.5740966796875,-256.5740966796875,-256.5740966796875,-256.5740966796875,-256.5740966796875,-256.5740966796875,-256.5740966796875,-256.5740966796875,-256.5740966796875,-256.5740966796875,-256.5740966796875,-256.5740966796875,-256.5740966796875]","[-110.370361328125,-110.370361328125,-110.370361328125,-110.370361328125,-110.370361328125,-110.370361328125,-110.370361328125,-110.370361328125,-110.370361328125,-103.70367431640625,-62.96295166015625,-25.1851806640625,2.9630126953125,18.5185546875,25.1851806640625,28.148193359375,29.629638671875,32.59259033203125,32.59259033203125,32.59259033203125,35.55560302734375,40,40.74078369140625,45.926025390625,48.148193359375,49.629638671875,49.629638671875,49.629638671875,56.29632568359375,57.03704833984375,57.03704833984375,57.03704833984375,57.03704833984375,57.03704833984375,57.03704833984375,57.03704833984375,57.03704833984375,57.03704833984375,57.03704833984375,57.03704833984375,57.03704833984375,57.03704833984375,57.03704833984375,57.03704833984375]","[0,0,0,0,0,0,0,0,0,0,0,0,0,0,0,0,0,0,0,0,0,0,0,0,0,0,0,0,0,0,0,0,0,0,0,0,0,0,0,0,0,0,0,0]","[0,0,0,0,0,0,0,0,0,0,0,0,0,0,0,0,0,0,0,0,0,0,0,0,0,0,0,0,0,0,0,0,0,0,0,0,0,0,0,0,0,0,0,0]","[0,0,0,0,0,0,0,0,0,0,0,0,0,0,0,0,0,0,0,0,0,0,0,0,0,0,0,0,0,0,0,0,0,0,0,0,0,0,0,0,0,0,0,0]","[0.00009999999403831339,0.034499999999997755,0.06349999999999767,0.07179999999701892,0.11889999999105783,0.1227999999970173,0.17709999999403792,0.21339999999105785,0.24859999999403826,0.2717000000029799,0.3082999999970184,0.34070000000297895,0.37779999999701985,0.4177000000029807,0.46339999999105785,0.4938999999910578,0.5203999999910565,0.5667999999970199,0.5939999999999976,0.6303999999910594,0.676299999997017,0.704799999997018,0.7327999999970203,0.7688999999910564,0.8059999999999974,0.8503999999910583,0.88079999999702,0.8882000000029784,0.9568999999910588,0.9764999999999979,1.0107000000029807,1.0577000000029777,1.094200000002978,1.1050999999940387,1.1547999999970173,1.1870999999940395,1.192399999991057,1.2474999999999987,1.296999999999997,1.3338999999910577,1.3722999999970185,1.408200000002978,1.4214999999999982,1.4838999999910598]",7,0,7,0,1,0.2715,,,,
S111111111,2024-11-27_18h08.23.739,GoFitts,2023.2.3,Win32,30.03003003,"[-257.14463446250534,54.65777935324481]","[262.8893985627482,0]",27,525.7787971,5.32,0,0.8359,"[-256.5740966796875,-256.5740966796875,-256.5740966796875,-256.5740966796875,-256.5740966796875,-256.5740966796875,-256.5740966796875,-256.5740966796875,-256.5740966796875,-256.5740966796875,-249.907470703125,-114.3519287109375,8.611083984375,96.7591552734375,118.9814453125,122.6851806640625,125.6480712890625,144.9073486328125,168.611083984375,200.462890625,227.1295166015625,231.573974609375,235.2777099609375,247.1295166015625,251.573974609375,253.0555419921875,258.24072265625,259.72216796875,259.72216796875,259.72216796875,259.72216796875,259.72216796875,259.72216796875,261.20361328125,261.20361328125,261.20361328125,261.20361328125,261.20361328125,261.20361328125,261.20361328125,261.20361328125]","[57.03704833984375,57.03704833984375,57.03704833984375,57.03704833984375,57.03704833984375,57.03704833984375,57.03704833984375,57.03704833984375,57.03704833984375,57.03704833984375,57.03704833984375,44.4444580078125,23.7037353515625,11.85186767578125,8.148193359375,5.92596435546875,3.7037353515625,0,-0.74072265625,2.9630126953125,6.66668701171875,6.66668701171875,6.66668701171875,4.4444580078125,3.7037353515625,3.7037353515625,3.7037353515625,5.18524169921875,5.18524169921875,5.18524169921875,5.18524169921875,5.18524169921875,5.18524169921875,5.18524169921875,5.18524169921875,5.18524169921875,5.18524169921875,5.18524169921875,5.18524169921875,5.18524169921875,5.18524169921875]","[0,0,0,0,0,0,0,0,0,0,0,0,0,0,0,0,0,0,0,0,0,0,0,0,0,0,0,0,0,0,0,0,0,0,0,0,0,0,0,0,0]","[0,0,0,0,0,0,0,0,0,0,0,0,0,0,0,0,0,0,0,0,0,0,0,0,0,0,0,0,0,0,0,0,0,0,0,0,0,0,0,0,0]","[0,0,0,0,0,0,0,0,0,0,0,0,0,0,0,0,0,0,0,0,0,0,0,0,0,0,0,0,0,0,0,0,0,0,0,0,0,0,0,0,0]","[0,0.035600000008940924,0.07240000000596325,0.0857000000029835,0.14610000000894274,0.18510000000894422,0.20610000000894146,0.2437000000029812,0.26920000000298216,0.2802000000029814,0.307500000000001,0.39079999999702153,0.42020000000298197,0.44950000000000045,0.49610000000894416,0.529400000005964,0.5551000000089417,0.5942000000029815,0.6275000000000013,0.6572999999970222,0.6880000000000024,0.7251000000089434,0.7614000000059633,0.7985000000000007,0.8360000000000021,0.881600000008941,0.9084000000059618,0.9476000000089435,0.9936000000089429,1.0302999999970233,1.0660000000000025,1.06979999999702,1.0950000000000024,1.1282999999970222,1.2036000000089437,1.2330000000000005,1.2592999999970225,1.2925000000000004,1.31679999999702,1.3285000000000018,1.362700000002981]",8,0,8,0,1,0.3907,,,,
S111111111,2024-11-27_18h08.23.739,GoFitts,2023.2.3,Win32,30.03003003,"[262.8893985627482,0]","[-257.14463446250534,-54.65777935324474]",27,525.7787971,5.32,0,0.9057,"[261.20361328125,261.20361328125,261.20361328125,261.20361328125,261.20361328125,261.20361328125,261.20361328125,261.20361328125,261.20361328125,261.20361328125,261.20361328125,261.20361328125,253.7962646484375,244.1666259765625,180.462890625,137.5,53.0555419921875,-40.27783203125,-115.0926513671875,-146.9444580078125,-188.426025390625,-214.3519287109375,-233.6112060546875,-238.79638671875,-241.75927734375,-247.6851806640625,-256.5740966796875,-259.537109375,-263.24072265625,-263.24072265625,-263.24072265625,-263.24072265625,-263.24072265625,-263.24072265625,-263.24072265625,-263.24072265625,-263.24072265625,-263.24072265625,-263.24072265625,-263.24072265625,-263.24072265625,-263.24072265625]","[5.18524169921875,5.18524169921875,5.18524169921875,5.18524169921875,5.18524169921875,5.18524169921875,5.18524169921875,5.18524169921875,5.18524169921875,5.18524169921875,5.18524169921875,5.18524169921875,3.7037353515625,2.22222900390625,-12.59259033203125,-22.96295166015625,-35.5555419921875,-51.111083984375,-67.4073486328125,-73.33331298828125,-78.51849365234375,-79.25921630859375,-79.25921630859375,-78.51849365234375,-77.77777099609375,-74.07403564453125,-69.62957763671875,-65.9259033203125,-61.4814453125,-61.4814453125,-61.4814453125,-61.4814453125,-61.4814453125,-61.4814453125,-61.4814453125,-61.4814453125,-61.4814453125,-61.4814453125,-61.4814453125,-61.4814453125,-61.4814453125,-61.4814453125]","[0,0,0,0,0,0,0,0,0,0,0,0,0,0,0,0,0,0,0,0,0,0,0,0,0,0,0,0,0,0,0,0,0,0,0,0,0,0,0,0,0,0]","[0,0,0,0,0,0,0,0,0,0,0,0,0,0,0,0,0,0,0,0,0,0,0,0,0,0,0,0,0,0,0,0,0,0,0,0,0,0,0,0,0,0]","[0,0,0,0,0,0,0,0,0,0,0,0,0,0,0,0,0,0,0,0,0,0,0,0,0,0,0,0,0,0,0,0,0,0,0,0,0,0,0,0,0,0]","[0,0.04160000000894115,0.05540000000596024,0.07160000000894229,0.12150000000000105,0.15490000000596282,0.17110000000894132,0.21199999999999974,0.2381000000089415,0.26630000001192045,0.2920000000000016,0.3045000000000009,0.3612000000029809,0.3880000000000017,0.4331000000089418,0.4576000000089415,0.49380000001192315,0.5306000000089419,0.582200000002981,0.6197000000029824,0.6562000000029826,0.68170000000298,0.7182000000029802,0.7553000000119212,0.7924000000059621,0.8349000000059625,0.8746000000089431,0.9057000000029802,0.9396000000089408,0.9751000000089434,1.012400000005961,1.048200000002982,1.0539000000059602,1.1229000000059628,1.1588000000119223,1.1952000000029805,1.2302000000029807,1.2487000000029802,1.2617000000029819,1.2974999999999994,1.3727000000029825,1.4097000000029816]",9,0,9,0,1,0.3879,,,,
S111111111,2024-11-27_18h08.23.739,GoFitts,2023.2.3,Win32,30.03003003,"[-257.14463446250534,-54.65777935324474]","[240.16141591939393,106.9267514716283]",27,525.7787971,5.32,0,0.832,"[-263.24072265625,-263.24072265625,-263.24072265625,-263.24072265625,-263.24072265625,-263.24072265625,-263.24072265625,-257.3148193359375,-178.0555419921875,-77.3148193359375,87.870361328125,141.20361328125,160.462890625,161.9443359375,163.4259033203125,164.9073486328125,174.5369873046875,182.6851806640625,194.5369873046875,210.092529296875,216.7591552734375,216.7591552734375,216.7591552734375,218.24072265625,229.351806640625,234.5369873046875,236.0184326171875,236.0184326171875,236.0184326171875,236.0184326171875,236.0184326171875,236.0184326171875,236.0184326171875,236.0184326171875,236.0184326171875,236.0184326171875,236.0184326171875,236.0184326171875,236.0184326171875,236.0184326171875,236.0184326171875]","[-61.4814453125,-61.4814453125,-61.4814453125,-61.4814453125,-61.4814453125,-61.4814453125,-61.4814453125,-59.25921630859375,-29.62957763671875,5.92596435546875,64.4444580078125,80.74078369140625,86.66668701171875,87.40740966796875,87.40740966796875,88.148193359375,88.888916015625,91.85186767578125,95.55560302734375,100.74078369140625,102.9630126953125,102.9630126953125,102.9630126953125,102.9630126953125,108.148193359375,111.11114501953125,111.85186767578125,111.85186767578125,111.85186767578125,111.85186767578125,111.85186767578125,111.85186767578125,111.85186767578125,111.85186767578125,111.85186767578125,111.85186767578125,111.85186767578125,111.85186767578125,111.85186767578125,111.85186767578125,111.85186767578125]","[0,0,0,0,0,0,0,0,0,0,0,0,0,0,0,0,0,0,0,0,0,0,0,0,0,0,0,0,0,0,0,0,0,0,0,0,0,0,0,0,0]","[0,0,0,0,0,0,0,0,0,0,0,0,0,0,0,0,0,0,0,0,0,0,0,0,0,0,0,0,0,0,0,0,0,0,0,0,0,0,0,0,0]","[0,0,0,0,0,0,0,0,0,0,0,0,0,0,0,0,0,0,0,0,0,0,0,0,0,0,0,0,0,0,0,0,0,0,0,0,0,0,0,0,0]","[0.00010000000894194727,0.03420000000298273,0.06690000000596186,0.07520000000297955,0.1242999999970209,0.1645000000000003,0.2017000000029796,0.22810000000893993,0.2665000000000006,0.29420000000298074,0.3324999999999996,0.3692999999970219,0.40570000000298023,0.4472999999970213,0.4855000000000018,0.5036000000089409,0.5391000000089399,0.577200000002982,0.6129000000059612,0.6475000000000009,0.683299999997022,0.7297000000029819,0.7665000000000006,0.7935000000000016,0.8320000000000007,0.8670000000000009,0.9055,0.952200000002982,0.9892999999970193,1.0246000000089417,1.028600000008943,1.0519000000059613,1.0796000000089414,1.0947999999970222,1.1419999999999995,1.1819000000059603,1.2054000000059624,1.2405000000000008,1.2521000000089408,1.2891000000089399,1.3512999999970212]",10,0,10,0,1,0.2664,,,,
S111111111,2024-11-27_18h08.23.739,GoFitts,2023.2.3,Win32,30.03003003,"[240.16141591939393,106.9267514716283]","[-212.68199107827223,-154.52251145922145]",27,525.7787971,5.32,0,0.8244,"[236.0184326171875,236.0184326171875,236.0184326171875,236.0184326171875,236.0184326171875,236.0184326171875,236.0184326171875,236.0184326171875,236.0184326171875,236.0184326171875,227.870361328125,203.4259033203125,104.9073486328125,-65.4630126953125,-128.426025390625,-154.3519287109375,-161.0185546875,-161.75927734375,-172.870361328125,-186.9444580078125,-196.5740966796875,-196.5740966796875,-200.27783203125,-201.75927734375,-202.5,-202.5,-202.5,-202.5,-202.5,-202.5,-202.5,-202.5,-202.5,-202.5,-202.5,-202.5,-202.5,-202.5,-202.5,-202.5]","[111.85186767578125,111.85186767578125,111.85186767578125,111.85186767578125,111.85186767578125,111.85186767578125,111.85186767578125,111.85186767578125,111.85186767578125,111.85186767578125,105.92596435546875,88.148193359375,17.77783203125,-102.22216796875,-142.22216796875,-155.5555419921875,-157.77777099609375,-159.25921630859375,-162.96295166015625,-167.4073486328125,-170.370361328125,-170.370361328125,-166.6666259765625,-157.77777099609375,-154.81475830078125,-154.81475830078125,-154.81475830078125,-154.81475830078125,-154.81475830078125,-154.81475830078125,-154.81475830078125,-154.81475830078125,-154.81475830078125,-154.81475830078125,-154.81475830078125,-154.81475830078125,-154.81475830078125,-154.81475830078125,-154.81475830078125,-154.81475830078125]","[0,0,0,0,0,0,0,0,0,0,0,0,0,0,0,0,0,0,0,0,0,0,0,0,0,0,0,0,0,0,0,0,0,0,0,0,0,0,0,0]","[0,0,0,0,0,0,0,0,0,0,0,0,0,0,0,0,0,0,0,0,0,0,0,0,0,0,0,0,0,0,0,0,0,0,0,0,0,0,0,0]","[0,0,0,0,0,0,0,0,0,0,0,0,0,0,0,0,0,0,0,0,0,0,0,0,0,0,0,0,0,0,0,0,0,0,0,0,0,0,0,0]","[0.00010000000894194727,0.04200000000000159,0.07700000000000173,0.08770000000298239,0.10479999999702017,0.1615000000000002,0.19870000000298305,0.2354000000059635,0.24020000000298225,0.27370000000298234,0.3487000000029816,0.3754000000059605,0.41220000000298285,0.4502999999970214,0.4867999999970216,0.5212000000029811,0.563299999997021,0.5994000000059607,0.6367000000029819,0.6742999999970216,0.7106000000089416,0.7445000000000022,0.784400000005963,0.8244000000059621,0.8522000000029806,0.886200000002983,0.9342000000029813,0.9697000000029803,1.003900000005963,1.0204000000059636,1.0707999999970212,1.1067000000029807,1.1386000000089425,1.163700000002983,1.1917000000029816,1.2287999999970225,1.2644000000059634,1.3007000000029834,1.3054000000059638,1.341000000000001]",11,0,11,0,1,0.3753,,,,
S111111111,2024-11-27_18h08.23.739,GoFitts,2023.2.3,Win32,30.03003003,"[-212.68199107827223,-154.52251145922145]","[175.90734266560727,195.36489621477068]",27,525.7787971,5.32,0,1.0087,"[-202.5,-202.5,-202.5,-202.5,-202.5,-201.0185546875,-171.388916015625,-112.870361328125,15.2777099609375,85.64794921875,87.870361328125,89.351806640625,89.351806640625,91.573974609375,105.6480712890625,111.573974609375,137.5,156.7591552734375,184.9073486328125,188.611083984375,188.611083984375,188.611083984375,188.611083984375,190.092529296875,191.573974609375,191.573974609375,190.092529296875,184.1666259765625,184.1666259765625,184.1666259765625,184.1666259765625,184.1666259765625,184.1666259765625,184.1666259765625,184.1666259765625,184.1666259765625,184.1666259765625,184.1666259765625,184.1666259765625,184.1666259765625,184.1666259765625,184.1666259765625,184.1666259765625]","[-154.81475830078125,-154.81475830078125,-154.81475830078125,-154.81475830078125,-154.81475830078125,-151.111083984375,-114.81475830078125,-57.0369873046875,65.1851806640625,108.888916015625,110.37042236328125,114.0740966796875,115.55560302734375,117.77777099609375,132.59259033203125,140.74078369140625,173.3333740234375,193.3333740234375,214.0740966796875,217.03704833984375,218.5185546875,218.5185546875,218.5185546875,220,220,220,213.3333740234375,199.25927734375,199.25927734375,199.25927734375,199.25927734375,199.25927734375,199.25927734375,199.25927734375,199.25927734375,199.25927734375,199.25927734375,199.25927734375,199.25927734375,199.25927734375,199.25927734375,199.25927734375,199.25927734375]","[0,0,0,0,0,0,0,0,0,0,0,0,0,0,0,0,0,0,0,0,0,0,0,0,0,0,0,0,0,0,0,0,0,0,0,0,0,0,0,0,0,0,0]","[0,0,0,0,0,0,0,0,0,0,0,0,0,0,0,0,0,0,0,0,0,0,0,0,0,0,0,0,0,0,0,0,0,0,0,0,0,0,0,0,0,0,0]","[0,0,0,0,0,0,0,0,0,0,0,0,0,0,0,0,0,0,0,0,0,0,0,0,0,0,0,0,0,0,0,0,0,0,0,0,0,0,0,0,0,0,0]","[0.00009999999403831339,0.06929999999701764,0.105299999997019,0.14159999999403894,0.17779999999702056,0.19459999999403976,0.24589999999106027,0.28139999999105925,0.3204999999999991,0.3695999999940405,0.4055999999940383,0.4312999999970195,0.48179999999701906,0.518099999994039,0.5519999999999996,0.5762999999970191,0.6230999999940394,0.6498999999910602,0.6865999999940371,0.7368999999910599,0.7626999999880795,0.8049999999999997,0.8102999999970173,0.8483999999910594,0.8960000000000008,0.932399999991059,0.9616999999880775,1.0086999999880781,1.034199999988079,1.081299999997018,1.1174999999999997,1.1547999999970173,1.1920999999940385,1.1972999999970177,1.2313999999910585,1.2936999999880783,1.3424999999999976,1.3788999999910594,1.3935999999940378,1.4480999999940387,1.4672999999970173,1.5043999999910582,1.5519999999999996]",12,0,12,0,1,0.2457,,,,
S111111111,2024-11-27_18h08.23.739,GoFitts,2023.2.3,Win32,30.03003003,"[175.90734266560727,195.36489621477068]","[-131.44469928137423,-227.66889754095217]",27,525.7787971,5.32,0,0.9167,"[184.1666259765625,184.1666259765625,184.1666259765625,184.1666259765625,184.1666259765625,184.1666259765625,184.1666259765625,184.1666259765625,184.1666259765625,184.1666259765625,184.1666259765625,164.1666259765625,104.1666259765625,-16.5740966796875,-72.870361328125,-100.27783203125,-106.9444580078125,-112.870361328125,-118.0555419921875,-120.27783203125,-120.27783203125,-120.27783203125,-125.4630126953125,-125.4630126953125,-125.4630126953125,-126.9444580078125,-126.9444580078125,-126.9444580078125,-126.9444580078125,-126.9444580078125,-126.9444580078125,-124.7222900390625,-124.7222900390625,-124.7222900390625,-124.7222900390625,-124.7222900390625,-124.7222900390625,-124.7222900390625,-124.7222900390625,-124.7222900390625]","[199.25927734375,199.25927734375,199.25927734375,199.25927734375,199.25927734375,199.25927734375,199.25927734375,199.25927734375,199.25927734375,199.25927734375,199.25927734375,162.9630126953125,65.926025390625,-128.88885498046875,-201.4814453125,-225.9259033203125,-233.333251953125,-242.962890625,-248.8887939453125,-251.851806640625,-251.851806640625,-251.851806640625,-240.74072265625,-240.74072265625,-240.74072265625,-238.5184326171875,-238.5184326171875,-238.5184326171875,-238.5184326171875,-238.5184326171875,-237.7777099609375,-232.592529296875,-232.592529296875,-232.592529296875,-232.592529296875,-232.592529296875,-232.592529296875,-232.592529296875,-232.592529296875,-232.592529296875]","[0,0,0,0,0,0,0,0,0,0,0,0,0,0,0,0,0,0,0,0,0,0,0,0,0,0,0,0,0,0,0,0,0,0,0,0,0,0,0,0]","[0,0,0,0,0,0,0,0,0,0,0,0,0,0,0,0,0,0,0,0,0,0,0,0,0,0,0,0,0,0,0,0,0,0,0,0,0,0,0,0]","[0,0,0,0,0,0,0,0,0,0,0,0,0,0,0,0,0,0,0,0,0,0,0,0,0,0,0,0,0,0,0,0,0,0,0,0,0,0,0,0]","[0.00010000000894194727,0.02710000000894297,0.07349999999999923,0.10120000000297935,0.11279999999701928,0.15079999999701954,0.2289000000059609,0.2611000000089412,0.29129999999701894,0.3192000000029793,0.32390000000595975,0.38560000000894235,0.42600000000000193,0.4615000000000009,0.49879999999702207,0.5359000000059595,0.5736000000089412,0.6136000000089403,0.652799999997022,0.6887000000029815,0.7474000000059604,0.7615000000000016,0.8079000000059615,0.8267000000029796,0.8397000000029813,0.9167000000029795,0.9567999999970205,0.9912999999970218,1.0292000000029802,1.0534000000059613,1.066100000008941,1.138900000005961,1.1781000000089428,1.2147999999970196,1.2537000000029828,1.2585000000000015,1.29210000000894,1.3386000000089417,1.3564000000059622,1.4427000000029793]",13,0,13,0,1,0.3854,,,,
S111111111,2024-11-27_18h08.23.739,GoFitts,2023.2.3,Win32,30.03003003,"[-131.44469928137423,-227.66889754095217]","[81.23729179689809,250.02267556801547]",27,525.7787971,5.32,0,1.7563,"[-124.7222900390625,-124.7222900390625,-124.7222900390625,-124.7222900390625,-124.7222900390625,-124.7222900390625,-124.7222900390625,-124.7222900390625,-124.7222900390625,-124.7222900390625,-124.7222900390625,-112.129638671875,-38.79638671875,14.5369873046875,23.4259033203125,23.4259033203125,23.4259033203125,23.4259033203125,27.129638671875,34.5369873046875,58.24072265625,61.9443359375,61.9443359375,62.6851806640625,62.6851806640625,62.6851806640625,62.6851806640625,62.6851806640625,64.1666259765625,78.9814453125,87.870361328125,87.870361328125,87.870361328125,87.870361328125,87.870361328125,87.870361328125,87.870361328125,87.870361328125,87.870361328125,87.870361328125,87.870361328125,87.870361328125,87.870361328125,87.870361328125,87.870361328125,87.870361328125,87.870361328125,87.870361328125,87.870361328125,87.870361328125,87.870361328125,87.870361328125,87.129638671875,86.3887939453125,86.3887939453125,86.3887939453125,86.3887939453125,86.3887939453125,86.3887939453125,86.3887939453125,86.3887939453125,86.3887939453125,86.3887939453125,86.3887939453125,86.3887939453125,86.3887939453125,86.3887939453125,86.3887939453125,86.3887939453125]","[-232.592529296875,-232.592529296875,-232.592529296875,-232.592529296875,-232.592529296875,-232.592529296875,-232.592529296875,-232.592529296875,-232.592529296875,-232.592529296875,-231.111083984375,-216.2962646484375,49.629638671875,230.370361328125,251.11114501953125,251.11114501953125,251.11114501953125,251.11114501953125,249.629638671875,243.7037353515625,238.5185546875,238.5185546875,238.5185546875,239.25927734375,239.25927734375,239.25927734375,239.25927734375,239.25927734375,240.74078369140625,254.0740966796875,261.48150634765625,261.48150634765625,261.48150634765625,262.96295166015625,262.96295166015625,262.96295166015625,262.96295166015625,262.96295166015625,262.96295166015625,262.96295166015625,262.96295166015625,262.96295166015625,262.96295166015625,262.96295166015625,262.96295166015625,262.96295166015625,262.96295166015625,262.96295166015625,262.96295166015625,262.96295166015625,262.96295166015625,262.96295166015625,256.29632568359375,252.59259033203125,252.59259033203125,252.59259033203125,252.59259033203125,252.59259033203125,252.59259033203125,252.59259033203125,252.59259033203125,252.59259033203125,252.59259033203125,252.59259033203125,252.59259033203125,252.59259033203125,252.59259033203125,252.59259033203125,252.59259033203125]","[0,0,0,0,0,0,0,0,0,0,0,0,0,0,0,0,0,0,0,0,0,0,0,0,0,0,0,0,0,0,0,0,0,0,0,0,0,0,0,0,0,0,0,0,0,0,0,0,0,0,0,0,0,0,0,0,0,0,0,0,0,0,0,0,0,0,0,0,0]","[0,0,0,0,0,0,0,0,0,0,0,0,0,0,0,0,0,0,0,0,0,0,0,0,0,0,0,0,0,0,0,0,0,0,0,0,0,0,0,0,0,0,0,0,0,0,0,0,0,0,0,0,0,0,0,0,0,0,0,0,0,0,0,0,0,0,0,0,0]","[0,0,0,0,0,0,0,0,0,0,0,0,0,0,0,0,0,0,0,0,0,0,0,0,0,0,0,0,0,0,0,0,0,0,0,0,0,0,0,0,0,0,0,0,0,0,0,0,0,0,0,0,0,0,0,0,0,0,0,0,0,0,0,0,0,0,0,0,0]","[0,0.02180000001192184,0.05870000000298248,0.06400000000000006,0.09670000000297918,0.16820000000297952,0.19500000000000028,0.2444000000059603,0.24930000001192099,0.28110000000894075,0.34530000001192107,0.3842000000029806,0.4237000000029809,0.46300000000000097,0.4997000000029814,0.5455000000000005,0.5609000000059616,0.6182000000029824,0.6452000000029798,0.6836000000089406,0.7235000000000014,0.7594999999999992,0.8048000000119195,0.8383000000119232,0.8655000000000008,0.8774000000059594,0.9214000000059634,0.9273000000119218,0.9629999999999974,1.0259999999999998,1.0616000000089407,1.0995000000000026,1.1289000000059595,1.1592000000029792,1.183300000011922,1.23260000000894,1.262700000002983,1.2773000000119232,1.3273000000119204,1.3497000000029793,1.396300000011923,1.4274999999999984,1.4443000000119248,1.460300000011923,1.51740000000596,1.551400000005959,1.5601000000089407,1.6047000000029819,1.6321000000089434,1.6594999999999978,1.6901000000089432,1.7165,1.7564000000059643,1.7910000000000004,1.837600000008944,1.8670000000000009,1.8769000000059641,1.9126000000089398,1.9273000000119218,1.9438000000119224,1.9976000000089407,2.034400000005963,2.070700000002983,2.106900000005961,2.142300000011918,2.1473000000119207,2.2162000000029813,2.2518000000119223,2.288200000002984]",14,0,14,0,1,0.3841,,,,
S111111111,2024-11-27_18h08.23.739,GoFitts,2023.2.3,Win32,30.03003003,,,,,,0,,,,,,,,,,,,,,0,0,0,1
S111111111,2024-11-27_18h08.23.739,GoFitts,2023.2.3,Win32,30.03003003,"[-22.5,-137.77777099609375]","[-424.430327224415,-90.21545102330391]",22,867.8247064,6.32,1,1.5723,"[-22.5,-22.5,-22.5,-22.5,-22.5,-22.5,-22.5,-22.5,-22.5,-22.5,-22.5,-22.5,-22.5,-22.5,-22.5,-22.5,-22.5,-22.5,-22.5,-22.5,-22.5,-22.5,-22.5,-22.5,-22.5,-109.907470703125,-135.8333740234375,-161.75927734375,-195.8333740234375,-213.6112060546875,-246.9444580078125,-275.0926513671875,-284.7222900390625,-287.6851806640625,-303.9815673828125,-343.9815673828125,-370.648193359375,-376.5740966796875,-376.5740966796875,-379.537109375,-381.75927734375,-383.9815673828125,-394.3519287109375,-403.98150634765625,-416.5740966796875,-419.53704833984375,-421.75927734375,-422.50006103515625,-422.50006103515625,-422.50006103515625,-422.50006103515625,-422.50006103515625,-422.50006103515625,-422.50006103515625,-422.50006103515625,-422.50006103515625,-422.50006103515625,-422.50006103515625,-422.50006103515625]","[-137.77777099609375,-137.77777099609375,-137.77777099609375,-137.77777099609375,-137.77777099609375,-137.77777099609375,-137.77777099609375,-137.77777099609375,-137.77777099609375,-137.77777099609375,-137.77777099609375,-137.77777099609375,-137.77777099609375,-137.77777099609375,-137.77777099609375,-137.77777099609375,-137.77777099609375,-137.77777099609375,-137.77777099609375,-137.77777099609375,-137.77777099609375,-137.77777099609375,-137.77777099609375,-137.77777099609375,-137.77777099609375,-115.5555419921875,-115.5555419921875,-119.25921630859375,-122.22216796875,-117.77777099609375,-109.62957763671875,-103.70367431640625,-95.5555419921875,-94.07403564453125,-97.77777099609375,-111.851806640625,-114.07403564453125,-107.4073486328125,-102.96295166015625,-100.74072265625,-97.77777099609375,-97.77777099609375,-95.5555419921875,-95.5555419921875,-95.5555419921875,-94.81475830078125,-94.07403564453125,-94.07403564453125,-94.07403564453125,-94.07403564453125,-94.07403564453125,-94.07403564453125,-94.07403564453125,-94.07403564453125,-94.07403564453125,-94.07403564453125,-94.07403564453125,-94.07403564453125,-94.07403564453125]","[0,0,0,0,0,0,0,0,0,0,0,0,0,0,0,0,0,0,0,0,0,0,0,0,0,0,0,0,0,0,0,0,0,0,0,0,0,0,0,0,0,0,0,0,0,0,0,0,0,0,0,0,0,0,0,0,0,0,0]","[0,0,0,0,0,0,0,0,0,0,0,0,0,0,0,0,0,0,0,0,0,0,0,0,0,0,0,0,0,0,0,0,0,0,0,0,0,0,0,0,0,0,0,0,0,0,0,0,0,0,0,0,0,0,0,0,0,0,0]","[0,0,0,0,0,0,0,0,0,0,0,0,0,0,0,0,0,0,0,0,0,0,0,0,0,0,0,0,0,0,0,0,0,0,0,0,0,0,0,0,0,0,0,0,0,0,0,0,0,0,0,0,0,0,0,0,0,0,0]","[0.0000999999940418661,0.06069999998808129,0.09779999999702227,0.13450000000000273,0.17139999999105981,0.20829999999701698,0.2131999999880776,0.24600000000000222,0.2821999999880802,0.3227999999970166,0.39379999999702164,0.43069999998807873,0.44389999999106067,0.46489999999106146,0.5307999999970221,0.560899999991058,0.5972999999970199,0.6106999999880784,0.6679999999999993,0.6847999999970185,0.7193999999910616,0.7463999999910627,0.7608999999910608,0.7773999999910615,0.7955999999940389,0.8708999999910603,0.8966999999880798,0.9339999999999975,0.9816999999880807,1.0090999999940422,1.0497999999970204,1.0858999999910566,1.1255000000000024,1.1638999999910595,1.2022999999970168,1.2388999999910624,1.275500000000001,1.3183999999910583,1.3645999999940415,1.391199999988082,1.4268999999910577,1.46369999998808,1.5105999999940423,1.5401999999880758,1.572399999991056,1.6022999999970224,1.6286999999880791,1.6637999999970177,1.7093999999910565,1.7150000000000034,1.7809999999999988,1.7933999999910597,1.8551999999880806,1.8916999999880773,1.8966999999880798,1.9279999999999973,1.999299999997021,2.0352999999970223,2.073899999991056]",0,0,0,0,1,0.8708,,,,
S111111111,2024-11-27_18h08.23.739,GoFitts,2023.2.3,Win32,30.03003003,"[-424.430327224415,-90.21545102330391]","[396.39865929308365,176.48805393512598]",22,867.8247064,6.32,1,1.109,"[-422.50006103515625,-422.50006103515625,-422.50006103515625,-422.50006103515625,-422.50006103515625,-422.50006103515625,-422.50006103515625,-422.50006103515625,-422.50006103515625,-422.50006103515625,-420.27783203125,-408.42596435546875,-283.9815673828125,-63.2408447265625,158.24072265625,347.870361328125,468.611083984375,516.7591552734375,547.1295166015625,571.573974609375,573.7962646484375,571.573974609375,555.2777099609375,518.9814453125,481.9443359375,456.0184326171875,435.2777099609375,426.3887939453125,424.1666259765625,421.9443359375,409.351806640625,398.24072265625,398.24072265625,398.24072265625,398.24072265625,398.24072265625,398.24072265625,398.24072265625,398.24072265625,398.24072265625,398.24072265625,398.24072265625,398.24072265625,398.24072265625,398.24072265625,398.24072265625,398.24072265625]","[-94.07403564453125,-94.07403564453125,-94.07403564453125,-94.07403564453125,-94.07403564453125,-94.07403564453125,-94.07403564453125,-94.07403564453125,-94.07403564453125,-93.33331298828125,-91.851806640625,-91.111083984375,-65.9259033203125,19.25927734375,128.148193359375,187.40740966796875,206.66668701171875,211.85186767578125,210.370361328125,204.4444580078125,203.7037353515625,203.7037353515625,201.48150634765625,195.55560302734375,193.3333740234375,189.629638671875,185.92596435546875,184.4444580078125,184.4444580078125,184.4444580078125,182.22222900390625,178.5185546875,178.5185546875,178.5185546875,178.5185546875,178.5185546875,178.5185546875,178.5185546875,178.5185546875,178.5185546875,178.5185546875,178.5185546875,178.5185546875,178.5185546875,178.5185546875,178.5185546875,178.5185546875]","[0,0,0,0,0,0,0,0,0,0,0,0,0,0,0,0,0,0,0,0,0,0,0,0,0,0,0,0,0,0,0,0,0,0,0,0,0,0,0,0,0,0,0,0,0,0,0]","[0,0,0,0,0,0,0,0,0,0,0,0,0,0,0,0,0,0,0,0,0,0,0,0,0,0,0,0,0,0,0,0,0,0,0,0,0,0,0,0,0,0,0,0,0,0,0]","[0,0,0,0,0,0,0,0,0,0,0,0,0,0,0,0,0,0,0,0,0,0,0,0,0,0,0,0,0,0,0,0,0,0,0,0,0,0,0,0,0,0,0,0,0,0,0]","[0,0.03529999999702227,0.07120000000298177,0.08429999999702176,0.14300000000000068,0.17949999999999733,0.21490000000596154,0.21949999999999648,0.27809999999404056,0.32559999999404,0.3517000000029782,0.39009999999404243,0.4295999999940392,0.46070000000297995,0.49409999999404164,0.5232999999970218,0.5550999999940416,0.5925999999940359,0.6182000000029788,0.6655000000000015,0.691400000005963,0.7305999999940411,0.7677000000029821,0.8034999999999997,0.8414000000059616,0.8792000000029816,0.9154000000059597,0.9517999999970215,1.0017999999970186,1.0282000000029825,1.0659000000059606,1.1090000000000018,1.137299999997019,1.1664000000059573,1.1709999999999994,1.2042000000029773,1.2794999999999987,1.316299999997021,1.3335000000000008,1.3545999999940364,1.4277999999970206,1.4650999999940382,1.5020999999940372,1.520900000005959,1.5334999999999965,1.604099999994041,1.640400000005961]",1,0,1,0,1,0.3897,,,,
S111111111,2024-11-27_18h08.23.739,GoFitts,2023.2.3,Win32,30.03003003,"[396.39865929308365,176.48805393512598]","[-351.04246781883916,-255.04728200633986]",22,867.8247064,6.32,1,0.7626,"[398.24072265625,398.24072265625,398.24072265625,398.24072265625,398.24072265625,398.24072265625,398.24072265625,398.24072265625,392.314697265625,387.1295166015625,333.0555419921875,164.9073486328125,-61.0185546875,-264.7222900390625,-314.3519287109375,-317.3148193359375,-322.5,-332.129638671875,-338.0555419921875,-338.0555419921875,-345.4630126953125,-352.129638671875,-352.870361328125,-352.870361328125,-352.870361328125,-352.870361328125,-352.870361328125,-352.870361328125,-352.870361328125,-352.870361328125,-352.870361328125,-352.870361328125,-352.870361328125,-352.870361328125,-352.870361328125,-352.870361328125,-352.870361328125]","[178.5185546875,178.5185546875,178.5185546875,178.5185546875,178.5185546875,178.5185546875,178.5185546875,178.5185546875,175.55560302734375,172.59259033203125,144.4444580078125,42.9630126953125,-100,-193.33331298828125,-209.62957763671875,-210.370361328125,-213.33331298828125,-217.0369873046875,-222.22216796875,-226.6666259765625,-240,-249.629638671875,-252.592529296875,-252.592529296875,-252.592529296875,-252.592529296875,-252.592529296875,-252.592529296875,-252.592529296875,-252.592529296875,-252.592529296875,-252.592529296875,-252.592529296875,-252.592529296875,-252.592529296875,-252.592529296875,-252.592529296875]","[0,0,0,0,0,0,0,0,0,0,0,0,0,0,0,0,0,0,0,0,0,0,0,0,0,0,0,0,0,0,0,0,0,0,0,0,0]","[0,0,0,0,0,0,0,0,0,0,0,0,0,0,0,0,0,0,0,0,0,0,0,0,0,0,0,0,0,0,0,0,0,0,0,0,0]","[0,0,0,0,0,0,0,0,0,0,0,0,0,0,0,0,0,0,0,0,0,0,0,0,0,0,0,0,0,0,0,0,0,0,0,0,0]","[0.0000999999940418661,0.03390000000596416,0.05879999999702079,0.10940000000596228,0.1450999999940379,0.15749999999999886,0.21609999999404295,0.253099999994042,0.28950000000000387,0.31659999999403965,0.3552000000029807,0.392000000000003,0.4280000000000044,0.46370000000298006,0.5005999999940443,0.5369000000059643,0.5790999999940425,0.6147999999970182,0.6510999999940381,0.6880999999940443,0.7245999999940409,0.7627000000029796,0.8064999999999998,0.8432000000029802,0.8707999999970184,0.8970999999940403,0.9072000000029803,0.9727000000029804,1.0102999999970237,1.038700000002983,1.0790000000000006,1.090299999997022,1.15120000000298,1.1570000000000036,1.2147999999970196,1.2397000000029834,1.2657999999970215]",2,0,2,0,1,0.3552,,,,
S111111111,2024-11-27_18h08.23.739,GoFitts,2023.2.3,Win32,30.03003003,"[-351.04246781883916,-255.04728200633986]","[290.3440360122596,322.4597200012334]",22,867.8247064,6.32,1,0.8891,"[-352.870361328125,-352.870361328125,-352.870361328125,-352.870361328125,-352.870361328125,-352.870361328125,-352.870361328125,-352.870361328125,-341.75927734375,-321.75927734375,-303.9815673828125,-179.537109375,50.833251953125,198.24072265625,238.9814453125,238.9814453125,240.462890625,246.3887939453125,252.3148193359375,253.7962646484375,254.5369873046875,260.462890625,264.9073486328125,265.6480712890625,271.573974609375,278.9814453125,281.20361328125,281.20361328125,281.20361328125,281.20361328125,281.20361328125,281.20361328125,281.20361328125,281.20361328125,281.20361328125,281.20361328125,281.20361328125,281.20361328125,281.20361328125,281.20361328125,281.20361328125,281.20361328125]","[-252.592529296875,-252.592529296875,-252.592529296875,-252.592529296875,-252.592529296875,-252.592529296875,-252.592529296875,-252.592529296875,-246.6666259765625,-239.25927734375,-231.111083984375,-127.4073486328125,138.51861572265625,291.1111145019531,317.7778015136719,317.7778015136719,317.7778015136719,308.888916015625,308.1481628417969,308.1481628417969,308.1481628417969,315.5555725097656,319.25927734375,320.0000305175781,323.7037048339844,326.66668701171875,327.40740966796875,327.40740966796875,327.40740966796875,327.40740966796875,327.40740966796875,327.40740966796875,327.40740966796875,327.40740966796875,327.40740966796875,327.40740966796875,327.40740966796875,327.40740966796875,327.40740966796875,327.40740966796875,327.40740966796875,327.40740966796875]","[0,0,0,0,0,0,0,0,0,0,0,0,0,0,0,0,0,0,0,0,0,0,0,0,0,0,0,0,0,0,0,0,0,0,0,0,0,0,0,0,0,0]","[0,0,0,0,0,0,0,0,0,0,0,0,0,0,0,0,0,0,0,0,0,0,0,0,0,0,0,0,0,0,0,0,0,0,0,0,0,0,0,0,0,0]","[0,0,0,0,0,0,0,0,0,0,0,0,0,0,0,0,0,0,0,0,0,0,0,0,0,0,0,0,0,0,0,0,0,0,0,0,0,0,0,0,0,0]","[0,0.027399999991061463,0.059899999991060326,0.07339999999106084,0.12100000000000222,0.16550000000000153,0.19559999999403743,0.20679999999701693,0.2583999999910631,0.2858999999910594,0.31119999998807657,0.3493999999910571,0.38539999999105845,0.42289999999105987,0.4607999999970218,0.5071999999880816,0.5437999999970202,0.5822999999970193,0.6131999999880833,0.6415000000000006,0.6786999999880763,0.7046999999880796,0.7416999999880787,0.7781999999880824,0.8167999999970235,0.8523999999910572,0.8890999999940377,0.9361999999880766,0.9723999999910617,1.0085999999940398,1.044699999988083,1.0843999999910565,1.0898999999910615,1.1572999999970222,1.1932999999970235,1.2292999999970178,1.2393999999910577,1.2999999999999972,1.334799999997017,1.339500000000001,1.3716999999880812,1.4083999999910617]",3,0,3,0,1,0.2584,,,,
S111111111,2024-11-27_18h08.23.739,GoFitts,2023.2.3,Win32,30.03003003,"[290.3440360122596,322.4597200012334]","[-216.95617660668393,-375.77912089866237]",22,867.8247064,6.32,1,1.1626,"[281.20361328125,281.20361328125,281.20361328125,281.20361328125,281.20361328125,281.20361328125,281.20361328125,281.20361328125,280.462890625,247.1295166015625,143.4259033203125,-64.7222900390625,-177.3148193359375,-215.0926513671875,-216.5740966796875,-216.5740966796875,-216.5740966796875,-217.3148193359375,-207.6851806640625,-195.8333740234375,-185.4630126953125,-183.24072265625,-188.426025390625,-194.3519287109375,-199.537109375,-205.4630126953125,-205.4630126953125,-206.9444580078125,-210.648193359375,-214.3519287109375,-214.3519287109375,-216.5740966796875,-216.5740966796875,-216.5740966796875,-216.5740966796875,-216.5740966796875,-216.5740966796875,-216.5740966796875,-216.5740966796875,-216.5740966796875,-216.5740966796875,-216.5740966796875,-216.5740966796875,-216.5740966796875,-216.5740966796875,-216.5740966796875,-216.5740966796875]","[327.40740966796875,327.40740966796875,327.40740966796875,327.40740966796875,327.40740966796875,327.40740966796875,327.40740966796875,327.40740966796875,326.66668701171875,285.1851806640625,157.03704833984375,-92.59259033203125,-207.4073486328125,-238.5184326171875,-240.74072265625,-244.4444580078125,-248.1480712890625,-261.4814453125,-296.2962646484375,-311.111083984375,-328.1480712890625,-347.4073486328125,-371.111083984375,-387.4073486328125,-400.74072265625,-410.370361328125,-410.370361328125,-407.4073486328125,-395.5555419921875,-388.8887939453125,-386.6666259765625,-381.4814453125,-381.4814453125,-381.4814453125,-381.4814453125,-381.4814453125,-381.4814453125,-381.4814453125,-381.4814453125,-381.4814453125,-381.4814453125,-381.4814453125,-381.4814453125,-381.4814453125,-381.4814453125,-381.4814453125,-381.4814453125]","[0,0,0,0,0,0,0,0,0,0,0,0,0,0,0,0,0,0,0,0,0,0,0,0,0,0,0,0,0,0,0,0,0,0,0,0,0,0,0,0,0,0,0,0,0,0,0]","[0,0,0,0,0,0,0,0,0,0,0,0,0,0,0,0,0,0,0,0,0,0,0,0,0,0,0,0,0,0,0,0,0,0,0,0,0,0,0,0,0,0,0,0,0,0,0]","[0,0,0,0,0,0,0,0,0,0,0,0,0,0,0,0,0,0,0,0,0,0,0,0,0,0,0,0,0,0,0,0,0,0,0,0,0,0,0,0,0,0,0,0,0,0,0]","[0,0.06919999998807924,0.1051999999880735,0.11269999998807378,0.17499999999999716,0.2103999999910542,0.23799999999999955,0.24589999999105316,0.3010999999940367,0.33759999999403334,0.3647999999970182,0.4062999999970174,0.4416999999880744,0.4780999999940363,0.5140999999940377,0.5505999999940343,0.5872999999970148,0.6231999999880742,0.6738999999910575,0.7013999999910538,0.7390999999940391,0.7766999999880753,0.8136999999880743,0.8523999999910572,0.8888999999910538,0.9307999999970136,0.9643999999910591,1.0010999999940395,1.0401999999880758,1.0763999999910538,1.1127999999970157,1.1625999999940362,1.1805999999940369,1.2248999999910595,1.2532999999970187,1.262199999988077,1.3250999999940376,1.3622999999970133,1.4001999999880752,1.411899999991057,1.4376999999880766,1.4994999999999976,1.547099999994039,1.5833999999910588,1.5952999999970174,1.6220999999940346,1.6983999999910537]",4,0,4,0,1,0.3375,,,,
S111111111,2024-11-27_18h08.23.739,GoFitts,2023.2.3,Win32,30.03003003,"[-216.95617660668393,-375.77912089866237]","[134.08629121215537,412.6751710245374]",22,867.8247064,6.32,1,1.1846,"[-216.5740966796875,-218.0555419921875,-218.0555419921875,-218.0555419921875,-218.0555419921875,-218.0555419921875,-218.0555419921875,-218.79638671875,-221.0185546875,-221.0185546875,-221.0185546875,-221.0185546875,-221.0185546875,-221.0185546875,-221.0185546875,-214.3519287109375,-179.537109375,-123.9815673828125,-66.2037353515625,-34.3519287109375,20.4627685546875,32.3148193359375,41.9443359375,68.611083984375,101.20361328125,125.6480712890625,130.092529296875,130.092529296875,131.573974609375,139.72216796875,143.4259033203125,143.4259033203125,143.4259033203125,141.9443359375,138.24072265625,135.2777099609375,135.2777099609375,135.2777099609375,135.2777099609375,135.2777099609375,135.2777099609375,135.2777099609375,135.2777099609375,135.2777099609375,135.2777099609375,135.2777099609375,135.2777099609375,135.2777099609375,135.2777099609375]","[-381.4814453125,-382.22216796875,-382.22216796875,-382.22216796875,-382.22216796875,-382.22216796875,-382.22216796875,-382.962890625,-383.70361328125,-383.70361328125,-383.70361328125,-383.70361328125,-383.70361328125,-383.70361328125,-382.22216796875,-362.22216796875,-271.851806640625,-49.62957763671875,174.8148193359375,244.4444580078125,292.5926208496094,296.29632568359375,300.7407531738281,322.9629821777344,351.85186767578125,377.7778015136719,385.9259338378906,385.9259338378906,386.66668701171875,394.8148193359375,399.25927734375,399.25927734375,399.25927734375,402.9629821777344,408.1481628417969,411.85186767578125,411.85186767578125,411.85186767578125,411.85186767578125,411.85186767578125,411.85186767578125,411.85186767578125,411.85186767578125,411.85186767578125,411.85186767578125,411.85186767578125,411.85186767578125,411.85186767578125,411.85186767578125]","[0,0,0,0,0,0,0,0,0,0,0,0,0,0,0,0,0,0,0,0,0,0,0,0,0,0,0,0,0,0,0,0,0,0,0,0,0,0,0,0,0,0,0,0,0,0,0,0,0]","[0,0,0,0,0,0,0,0,0,0,0,0,0,0,0,0,0,0,0,0,0,0,0,0,0,0,0,0,0,0,0,0,0,0,0,0,0,0,0,0,0,0,0,0,0,0,0,0,0]","[0,0,0,0,0,0,0,0,0,0,0,0,0,0,0,0,0,0,0,0,0,0,0,0,0,0,0,0,0,0,0,0,0,0,0,0,0,0,0,0,0,0,0,0,0,0,0,0,0]","[0.00010000000894194727,0.03710000000894098,0.061700000002986144,0.0744000000059657,0.1096000000089461,0.1467000000029799,0.18229999999702073,0.24200000000000443,0.27879999999701965,0.314100000008942,0.3612000000029809,0.3930000000000007,0.39679999999702176,0.42060000000894604,0.4519000000059634,0.514700000002982,0.5330000000000013,0.5709000000059632,0.6002000000029852,0.6277000000029815,0.6634000000059643,0.7035000000000053,0.7391000000089463,0.7752999999970243,0.8114000000059605,0.8489000000059619,0.8855000000000004,0.9312999999970231,0.96220000000298,0.9994000000059629,1.0367999999970223,1.0822000000029846,1.118799999997023,1.1469000000059637,1.1846000000089418,1.2280000000000015,1.2726000000089428,1.3085000000000022,1.3447999999970222,1.361200000002981,1.382000000000005,1.4187000000029855,1.493000000000002,1.5297999999970244,1.560200000002986,1.5862000000029823,1.5941000000089431,1.6496000000089452,1.6857000000029814]",5,0,5,0,1,0.5146,,,,
S111111111,2024-11-27_18h08.23.739,GoFitts,2023.2.3,Win32,30.03003003,"[134.08629121215537,412.6751710245374]","[-45.35619147424489,-431.53533594146586]",22,867.8247064,6.32,1,0.9276,"[135.2777099609375,135.2777099609375,135.2777099609375,135.2777099609375,135.2777099609375,135.2777099609375,135.2777099609375,135.2777099609375,125.6480712890625,7.870361328125,-29.166748046875,-79.5372314453125,-81.75927734375,-80.27783203125,-78.79638671875,-77.3148193359375,-77.3148193359375,-72.129638671875,-58.79638671875,-57.3148193359375,-54.3519287109375,-50.648193359375,-50.648193359375,-50.648193359375,-50.648193359375,-50.648193359375,-51.388916015625,-52.129638671875,-52.129638671875,-52.129638671875,-52.129638671875,-52.129638671875,-52.129638671875,-52.129638671875,-52.129638671875,-52.129638671875,-52.129638671875,-52.129638671875,-52.129638671875,-52.129638671875,-52.129638671875]","[411.85186767578125,411.85186767578125,411.85186767578125,411.85186767578125,411.85186767578125,411.85186767578125,411.85186767578125,411.85186767578125,389.629638671875,41.48150634765625,-78.51849365234375,-260.74072265625,-271.851806640625,-273.333251953125,-275.5555419921875,-290.370361328125,-312.592529296875,-349.629638671875,-377.777587890625,-380,-383.70361328125,-392.592529296875,-406.6666259765625,-408.1480712890625,-409.629638671875,-419.25927734375,-425.1851806640625,-431.111083984375,-433.333251953125,-433.333251953125,-433.333251953125,-433.333251953125,-433.333251953125,-433.333251953125,-433.333251953125,-433.333251953125,-433.333251953125,-433.333251953125,-433.333251953125,-433.333251953125,-433.333251953125]","[0,0,0,0,0,0,0,0,0,0,0,0,0,0,0,0,0,0,0,0,0,0,0,0,0,0,0,0,0,0,0,0,0,0,0,0,0,0,0,0,0]","[0,0,0,0,0,0,0,0,0,0,0,0,0,0,0,0,0,0,0,0,0,0,0,0,0,0,0,0,0,0,0,0,0,0,0,0,0,0,0,0,0]","[0,0,0,0,0,0,0,0,0,0,0,0,0,0,0,0,0,0,0,0,0,0,0,0,0,0,0,0,0,0,0,0,0,0,0,0,0,0,0,0,0]","[0,0.036499999999996646,0.0732000000029771,0.10999999999999943,0.12340000000595808,0.14699999999999847,0.18249999999999744,0.21790000000595455,0.2856000000089338,0.33080000001191934,0.3561000000089365,0.3929999999999936,0.4391000000089349,0.466800000011915,0.5053000000119141,0.5559000000059555,0.5934000000059569,0.618800000011916,0.6554999999999964,0.6917000000029745,0.7309000000059598,0.7694999999999936,0.813300000011921,0.8349999999999937,0.8712000000029789,0.9094999999999942,0.9276000000089368,0.9634999999999962,0.999300000011921,1.0491000000089343,1.0848000000119171,1.1214999999999975,1.1264000000059582,1.158999999999999,1.2204000000059594,1.2703000000119147,1.3074999999999974,1.3447000000029803,1.3791000000089397,1.3889999999999958,1.4346000000089347]",6,0,6,0,1,0.2854,,,,
S111111111,2024-11-27_18h08.23.739,GoFitts,2023.2.3,Win32,30.03003003,"[-45.35619147424489,-431.53533594146586]","[-45.3561914742445,431.5353359414659]",22,867.8247064,6.32,1,1.4284,"[-52.129638671875,-52.129638671875,-52.129638671875,-52.129638671875,-52.129638671875,-52.129638671875,-52.129638671875,-52.129638671875,-52.129638671875,-52.129638671875,-52.129638671875,-52.129638671875,-53.6112060546875,-77.3148193359375,-99.5372314453125,-99.5372314453125,-99.5372314453125,-99.5372314453125,-98.79638671875,-98.79638671875,-96.5740966796875,-86.2037353515625,-81.0185546875,-72.870361328125,-62.5,-60.27783203125,-56.5740966796875,-56.5740966796875,-56.5740966796875,-55.0926513671875,-55.0926513671875,-55.0926513671875,-55.0926513671875,-55.0926513671875,-55.0926513671875,-55.0926513671875,-55.0926513671875,-55.0926513671875,-55.0926513671875,-55.0926513671875,-51.388916015625,-50.648193359375,-50.648193359375,-50.648193359375,-50.648193359375,-50.648193359375,-50.648193359375,-50.648193359375,-50.648193359375,-50.648193359375,-50.648193359375,-50.648193359375,-50.648193359375,-50.648193359375,-50.648193359375,-50.648193359375,-50.648193359375]","[-433.333251953125,-433.333251953125,-433.333251953125,-433.333251953125,-433.333251953125,-433.333251953125,-433.333251953125,-433.333251953125,-433.333251953125,-433.333251953125,-433.333251953125,-310.370361328125,-217.77777099609375,-11.111083984375,208.148193359375,279.25927734375,299.25927734375,329.629638671875,340.7407531738281,350.3703918457031,376.2962951660156,396.2962951660156,401.48150634765625,408.1481628417969,422.9630126953125,428.1481628417969,434.0740966796875,434.0740966796875,437.03704833984375,439.2593078613281,439.2593078613281,439.2593078613281,439.2593078613281,439.2593078613281,439.2593078613281,439.2593078613281,439.2593078613281,439.2593078613281,439.2593078613281,439.2593078613281,438.5185241699219,437.7778015136719,437.7778015136719,437.7778015136719,437.7778015136719,437.7778015136719,437.7778015136719,437.7778015136719,437.7778015136719,437.7778015136719,437.7778015136719,437.7778015136719,437.7778015136719,437.7778015136719,437.7778015136719,437.7778015136719,437.7778015136719]","[0,0,0,0,0,0,0,0,0,0,0,0,0,0,0,0,0,0,0,0,0,0,0,0,0,0,0,0,0,0,0,0,0,0,0,0,0,0,0,0,0,0,0,0,0,0,0,0,0,0,0,0,0,0,0,0,0]","[0,0,0,0,0,0,0,0,0,0,0,0,0,0,0,0,0,0,0,0,0,0,0,0,0,0,0,0,0,0,0,0,0,0,0,0,0,0,0,0,0,0,0,0,0,0,0,0,0,0,0,0,0,0,0,0,0]","[0,0,0,0,0,0,0,0,0,0,0,0,0,0,0,0,0,0,0,0,0,0,0,0,0,0,0,0,0,0,0,0,0,0,0,0,0,0,0,0,0,0,0,0,0,0,0,0,0,0,0,0,0,0,0,0,0]","[0,0.02770000000298012,0.036999999999999034,0.10420000000297591,0.14120000000297495,0.17759999999403675,0.18689999999105567,0.24189999999105538,0.27809999999404056,0.31429999999701863,0.32009999999403504,0.3887999999970191,0.40800000000000125,0.44459999999403976,0.48289999999105504,0.5118999999910585,0.5367999999970152,0.5775000000000006,0.6137000000029786,0.6499999999999986,0.6864999999999952,0.7239999999999966,0.7597999999970142,0.795399999991055,0.8365000000000009,0.872599999994037,0.9183999999910597,0.9498999999910538,0.9785999999940387,1.0159999999999982,1.0625999999940348,1.1020999999940386,1.1393999999910562,1.17589999999106,1.1863999999910604,1.2512999999970162,1.2882999999970153,1.3247000000029772,1.336299999997017,1.4005999999940357,1.4283999999910577,1.463000000000001,1.4882999999970181,1.5027000000029815,1.5320999999940383,1.5688999999910536,1.5737999999970143,1.6084999999999994,1.644200000002975,1.6977999999970166,1.702899999991054,1.734499999999997,1.7702999999970146,1.8055999999940369,1.8743999999910557,1.911200000002978,1.9355999999940394]",7,0,7,0,1,0.3888,,,,
S111111111,2024-11-27_18h08.23.739,GoFitts,2023.2.3,Win32,30.03003003,"[-45.3561914742445,431.5353359414659]","[134.0862912121553,-412.67517102453746]",22,867.8247064,6.32,1,1.7065,"[-50.648193359375,-50.648193359375,-50.648193359375,-50.648193359375,-50.648193359375,-50.648193359375,-49.166748046875,-39.5372314453125,-4.7222900390625,22.6851806640625,36.7591552734375,47.129638671875,61.9443359375,63.4259033203125,63.4259033203125,64.9073486328125,64.9073486328125,64.9073486328125,67.870361328125,70.092529296875,81.9443359375,93.7962646484375,104.1666259765625,107.129638671875,113.0555419921875,131.573974609375,134.5369873046875,134.5369873046875,134.5369873046875,134.5369873046875,139.72216796875,141.20361328125,145.6480712890625,145.6480712890625,145.6480712890625,145.6480712890625,145.6480712890625,145.6480712890625,145.6480712890625,145.6480712890625,145.6480712890625,145.6480712890625,145.6480712890625,145.6480712890625,145.6480712890625,145.6480712890625,145.6480712890625,145.6480712890625,144.1666259765625,144.1666259765625,144.1666259765625,144.1666259765625,144.1666259765625,144.1666259765625,140.462890625,138.24072265625,138.24072265625,138.24072265625,138.24072265625,138.24072265625,138.24072265625,138.24072265625,138.24072265625,138.24072265625]","[437.7778015136719,437.7778015136719,437.7778015136719,437.7778015136719,437.7778015136719,437.7778015136719,431.1111145019531,366.66668701171875,211.1112060546875,-50.370361328125,-256.2962646484375,-330.370361328125,-368.8887939453125,-370.370361328125,-370.370361328125,-370.370361328125,-360,-357.7777099609375,-355.5555419921875,-355.5555419921875,-369.629638671875,-384.4444580078125,-391.851806640625,-392.592529296875,-392.592529296875,-397.777587890625,-399.25927734375,-399.25927734375,-399.25927734375,-399.25927734375,-405.1851806640625,-408.8887939453125,-417.0369873046875,-417.0369873046875,-417.0369873046875,-417.0369873046875,-417.0369873046875,-417.0369873046875,-417.0369873046875,-417.0369873046875,-417.0369873046875,-417.0369873046875,-417.0369873046875,-417.0369873046875,-417.0369873046875,-417.0369873046875,-417.0369873046875,-417.0369873046875,-417.0369873046875,-417.0369873046875,-417.0369873046875,-417.0369873046875,-417.0369873046875,-417.0369873046875,-413.333251953125,-411.851806640625,-411.851806640625,-411.851806640625,-411.851806640625,-411.851806640625,-411.851806640625,-411.851806640625,-411.851806640625,-411.851806640625]","[0,0,0,0,0,0,0,0,0,0,0,0,0,0,0,0,0,0,0,0,0,0,0,0,0,0,0,0,0,0,0,0,0,0,0,0,0,0,0,0,0,0,0,0,0,0,0,0,0,0,0,0,0,0,0,0,0,0,0,0,0,0,0,0]","[0,0,0,0,0,0,0,0,0,0,0,0,0,0,0,0,0,0,0,0,0,0,0,0,0,0,0,0,0,0,0,0,0,0,0,0,0,0,0,0,0,0,0,0,0,0,0,0,0,0,0,0,0,0,0,0,0,0,0,0,0,0,0,0]","[0,0,0,0,0,0,0,0,0,0,0,0,0,0,0,0,0,0,0,0,0,0,0,0,0,0,0,0,0,0,0,0,0,0,0,0,0,0,0,0,0,0,0,0,0,0,0,0,0,0,0,0,0,0,0,0,0,0,0,0,0,0,0,0]","[0.0000999999940418661,0.03450000000000131,0.0785999999940401,0.11469999998808333,0.15350000000000108,0.16339999999105714,0.21539999999106385,0.2515999999940419,0.2884999999999991,0.3250999999940376,0.36279999999702284,0.40289999999106385,0.43859999999403954,0.48049999999999926,0.5125000000000028,0.5380999999940386,0.5762999999970191,0.5955000000000013,0.6424999999999983,0.669000000000004,0.7168999999910639,0.7427999999970183,0.7797999999970244,0.8157999999970187,0.8518999999910619,0.9016999999880824,0.9378999999910604,0.9635999999940381,1.010799999997019,1.047099999994039,1.079399999991061,1.0965999999940408,1.1460999999940427,1.1813999999910578,1.2180000000000035,1.253799999997021,1.2628999999910633,1.291599999994041,1.3275999999940424,1.3643999999910577,1.4377999999970186,1.4747999999970176,1.5108999999910608,1.5156999999880796,1.5467999999970203,1.577199999988082,1.6420999999940378,1.6678999999910573,1.7064999999999984,1.7525999999940396,1.7895999999940386,1.8256999999880819,1.8306999999880773,1.8645999999940415,1.9295999999940392,1.9671999999880825,2.013699999988077,2.04939999999106,2.075699999988082,2.1197999999970207,2.1515999999940405,2.183,2.1961999999880817,2.2350999999940413]",8,0,8,0,1,0.2516,,,,
S111111111,2024-11-27_18h08.23.739,GoFitts,2023.2.3,Win32,30.03003003,"[134.0862912121553,-412.67517102453746]","[-216.95617660668364,375.77912089866254]",22,867.8247064,6.32,1,1.1793,"[138.24072265625,138.24072265625,138.24072265625,138.24072265625,138.24072265625,138.24072265625,138.24072265625,138.24072265625,138.24072265625,138.24072265625,138.24072265625,138.24072265625,138.24072265625,134.5369873046875,81.20361328125,-32.129638671875,-79.5372314453125,-88.426025390625,-89.907470703125,-94.3519287109375,-100.27783203125,-106.2037353515625,-129.907470703125,-161.0185546875,-164.722412109375,-164.722412109375,-169.907470703125,-180.27783203125,-189.907470703125,-195.8333740234375,-201.0185546875,-204.722412109375,-206.9444580078125,-207.6851806640625,-207.6851806640625,-207.6851806640625,-207.6851806640625,-207.6851806640625,-207.6851806640625,-207.6851806640625,-207.6851806640625,-207.6851806640625,-207.6851806640625,-207.6851806640625,-207.6851806640625,-207.6851806640625,-207.6851806640625,-207.6851806640625,-207.6851806640625,-207.6851806640625]","[-411.851806640625,-411.851806640625,-411.851806640625,-411.851806640625,-411.851806640625,-411.851806640625,-411.851806640625,-411.851806640625,-411.851806640625,-411.851806640625,-411.851806640625,-411.851806640625,-411.851806640625,-394.073974609375,-211.851806640625,87.40740966796875,179.25927734375,191.85186767578125,191.85186767578125,194.8148193359375,204.4444580078125,234.8148193359375,279.25927734375,313.3333435058594,314.0740966796875,314.0740966796875,321.48150634765625,334.8148193359375,346.66668701171875,357.03704833984375,365.1852111816406,366.66668701171875,367.40740966796875,372.5926208496094,374.0740966796875,374.0740966796875,374.0740966796875,374.0740966796875,374.0740966796875,374.0740966796875,374.0740966796875,374.0740966796875,374.0740966796875,374.0740966796875,374.0740966796875,374.0740966796875,374.0740966796875,374.0740966796875,374.0740966796875,374.0740966796875]","[0,0,0,0,0,0,0,0,0,0,0,0,0,0,0,0,0,0,0,0,0,0,0,0,0,0,0,0,0,0,0,0,0,0,0,0,0,0,0,0,0,0,0,0,0,0,0,0,0,0]","[0,0,0,0,0,0,0,0,0,0,0,0,0,0,0,0,0,0,0,0,0,0,0,0,0,0,0,0,0,0,0,0,0,0,0,0,0,0,0,0,0,0,0,0,0,0,0,0,0,0]","[0,0,0,0,0,0,0,0,0,0,0,0,0,0,0,0,0,0,0,0,0,0,0,0,0,0,0,0,0,0,0,0,0,0,0,0,0,0,0,0,0,0,0,0,0,0,0,0,0,0]","[0,0.04529999999702028,0.0799999999999983,0.11679999999702062,0.12479999999702329,0.19229999999701874,0.227599999994041,0.25779999999701886,0.2749000000059638,0.3135000000000048,0.32429999999702375,0.34670000000298273,0.37559999999404425,0.44229999999701874,0.4777999999970248,0.5227999999970194,0.5547000000029811,0.5869000000059614,0.6129000000059648,0.6532999999970244,0.6907999999970187,0.7280000000000015,0.7659999999999982,0.801700000002981,0.8380999999940428,0.8850999999940399,0.9164999999999992,0.9534000000059635,0.9902000000029787,1.026299999997022,1.0627999999970186,1.0985999999940432,1.1502000000029824,1.1792999999970206,1.2154999999999987,1.2612000000029795,1.2977000000029832,1.3342999999970218,1.365900000005965,1.3827999999970189,1.3954999999999984,1.4270999999940415,1.496099999994044,1.5244000000059614,1.551799999997023,1.5570000000000022,1.616599999994044,1.6559999999999988,1.6612000000029852,1.726099999994041]",9,0,9,0,1,0.4422,,,,
S111111111,2024-11-27_18h08.23.739,GoFitts,2023.2.3,Win32,30.03003003,"[-216.95617660668364,375.77912089866254]","[290.3440360122597,-322.4597200012333]",22,867.8247064,6.32,1,1.1864,"[-207.6851806640625,-207.6851806640625,-207.6851806640625,-207.6851806640625,-207.6851806640625,-207.6851806640625,-193.6112060546875,-137.3148193359375,-52.129638671875,58.9814453125,129.351806640625,151.573974609375,174.5369873046875,179.72216796875,184.9073486328125,190.833251953125,201.20361328125,209.351806640625,237.5,270.092529296875,310.092529296875,310.092529296875,310.092529296875,310.092529296875,310.092529296875,310.092529296875,310.092529296875,309.351806640625,309.351806640625,309.351806640625,304.1666259765625,301.20361328125,301.20361328125,293.7962646484375,293.7962646484375,293.7962646484375,293.0555419921875,293.0555419921875,293.0555419921875,293.0555419921875,293.0555419921875,293.0555419921875,293.0555419921875,293.0555419921875,293.0555419921875,293.0555419921875,293.0555419921875,293.0555419921875,293.0555419921875]","[374.0740966796875,374.0740966796875,374.0740966796875,374.0740966796875,374.0740966796875,373.3333435058594,356.29632568359375,289.629638671875,160.74078369140625,-22.22216796875,-134.81475830078125,-170.370361328125,-223.70367431640625,-236.2962646484375,-246.6666259765625,-254.8148193359375,-266.6666259765625,-272.592529296875,-292.592529296875,-311.851806640625,-327.4073486328125,-327.4073486328125,-327.4073486328125,-327.4073486328125,-327.4073486328125,-328.1480712890625,-328.1480712890625,-328.8887939453125,-328.8887939453125,-328.8887939453125,-328.8887939453125,-328.1480712890625,-327.4073486328125,-323.70361328125,-323.70361328125,-323.70361328125,-323.70361328125,-323.70361328125,-323.70361328125,-323.70361328125,-323.70361328125,-323.70361328125,-323.70361328125,-323.70361328125,-323.70361328125,-323.70361328125,-323.70361328125,-323.70361328125,-323.70361328125]","[0,0,0,0,0,0,0,0,0,0,0,0,0,0,0,0,0,0,0,0,0,0,0,0,0,0,0,0,0,0,0,0,0,0,0,0,0,0,0,0,0,0,0,0,0,0,0,0,0]","[0,0,0,0,0,0,0,0,0,0,0,0,0,0,0,0,0,0,0,0,0,0,0,0,0,0,0,0,0,0,0,0,0,0,0,0,0,0,0,0,0,0,0,0,0,0,0,0,0]","[0,0,0,0,0,0,0,0,0,0,0,0,0,0,0,0,0,0,0,0,0,0,0,0,0,0,0,0,0,0,0,0,0,0,0,0,0,0,0,0,0,0,0,0,0,0,0,0,0]","[0.0000999999940418661,0.03420000000298273,0.05879999999702079,0.07039999999106072,0.13079999999701641,0.1818999999910602,0.20939999999105652,0.24549999999999983,0.28249999999999886,0.31779999999702113,0.35409999999404107,0.3919999999999959,0.4312000000029812,0.4668999999910568,0.5139999999999958,0.5395999999940386,0.5792000000029773,0.6137000000029786,0.6464999999999961,0.6667999999970178,0.7147000000029777,0.7393999999910577,0.7860999999940361,0.8217999999970189,0.8290999999940354,0.8487000000029781,0.9357000000029814,0.9727000000029804,1.009299999997019,1.0143999999910562,1.0727000000029818,1.1187000000029812,1.1454999999999984,1.1863999999910604,1.2318999999910574,1.2670999999940378,1.3018999999910577,1.329499999999996,1.3460999999940384,1.38959999999404,1.4287000000029764,1.4639999999999986,1.5002999999970186,1.5377000000029781,1.5764999999999958,1.6128999999910576,1.650399999991059,1.6617000000029805,1.7118999999910613]",10,0,10,0,1,0.2093,,,,
S111111111,2024-11-27_18h08.23.739,GoFitts,2023.2.3,Win32,30.03003003,"[290.3440360122597,-322.4597200012333]","[-351.04246781883904,255.04728200633994]",22,867.8247064,6.32,1,1.0913,"[293.0555419921875,293.0555419921875,293.0555419921875,293.0555419921875,290.833251953125,261.9443359375,133.7962646484375,-30.648193359375,-122.5,-169.166748046875,-204.722412109375,-241.75927734375,-255.0926513671875,-296.5740966796875,-333.6112060546875,-363.9815673828125,-369.166748046875,-369.166748046875,-369.166748046875,-368.4259033203125,-357.3148193359375,-346.9444580078125,-340.27783203125,-337.3148193359375,-337.3148193359375,-337.3148193359375,-337.3148193359375,-337.3148193359375,-338.0555419921875,-345.4630126953125,-348.4259033203125,-350.648193359375,-350.648193359375,-350.648193359375,-350.648193359375,-350.648193359375,-350.648193359375,-350.648193359375,-350.648193359375,-350.648193359375,-350.648193359375,-350.648193359375,-350.648193359375,-350.648193359375,-350.648193359375,-350.648193359375]","[-323.70361328125,-323.70361328125,-323.70361328125,-323.70361328125,-323.70361328125,-307.4073486328125,-199.99993896484375,-30.370361328125,93.3333740234375,150.370361328125,174.8148193359375,195.55560302734375,205.92596435546875,235.55560302734375,260.74078369140625,276.29632568359375,277.77777099609375,277.77777099609375,276.29632568359375,274.0740966796875,255.55560302734375,247.40740966796875,247.40740966796875,247.40740966796875,247.40740966796875,247.40740966796875,245.92596435546875,245.92596435546875,245.92596435546875,245.1851806640625,251.11114501953125,257.03704833984375,257.03704833984375,257.03704833984375,257.03704833984375,257.03704833984375,257.03704833984375,257.03704833984375,257.03704833984375,257.03704833984375,257.03704833984375,257.03704833984375,257.03704833984375,257.03704833984375,257.03704833984375,257.03704833984375]","[0,0,0,0,0,0,0,0,0,0,0,0,0,0,0,0,0,0,0,0,0,0,0,0,0,0,0,0,0,0,0,0,0,0,0,0,0,0,0,0,0,0,0,0,0,0]","[0,0,0,0,0,0,0,0,0,0,0,0,0,0,0,0,0,0,0,0,0,0,0,0,0,0,0,0,0,0,0,0,0,0,0,0,0,0,0,0,0,0,0,0,0,0]","[0,0,0,0,0,0,0,0,0,0,0,0,0,0,0,0,0,0,0,0,0,0,0,0,0,0,0,0,0,0,0,0,0,0,0,0,0,0,0,0,0,0,0,0,0,0]","[0,0.03439999999105936,0.05839999999106027,0.09559999999404312,0.13350000000000506,0.1742000000029833,0.21350000000000335,0.25,0.2870999999940409,0.3227000000029818,0.35950000000000415,0.4062999999970245,0.42970000000298114,0.46979999999702216,0.505500000000005,0.5415999999940411,0.5768999999910633,0.6227999999970208,0.6500000000000057,0.6877000000029838,0.729899999991062,0.765399999991061,0.8012999999970205,0.8362000000029823,0.8857999999970261,0.9230999999940437,0.9535999999940401,0.9915999999940439,0.9982999999970232,1.0530000000000044,1.0912999999970197,1.1308999999910654,1.1645000000000039,1.2090000000000032,1.2408999999910648,1.247700000002986,1.2745000000000033,1.3482999999970247,1.3857000000029842,1.4117000000029805,1.4233999999910623,1.4865999999940414,1.5337999999970222,1.5478999999910599,1.570299999997026,1.6432000000029845]",11,0,11,0,1,0.174,,,,
S111111111,2024-11-27_18h08.23.739,GoFitts,2023.2.3,Win32,30.03003003,"[-351.04246781883904,255.04728200633994]","[396.3986592930837,-176.48805393512598]",22,867.8247064,6.32,1,0.8199,"[-350.648193359375,-350.648193359375,-350.648193359375,-350.648193359375,-350.648193359375,-350.648193359375,-348.4259033203125,-275.8333740234375,-181.75927734375,133.0555419921875,293.0555419921875,395.2777099609375,433.0555419921875,433.0555419921875,433.0555419921875,430.833251953125,426.3887939453125,432.314697265625,439.72216796875,441.20361328125,441.20361328125,438.24072265625,429.351806640625,414.5369873046875,405.6480712890625,404.1666259765625,404.1666259765625,404.1666259765625,404.1666259765625,404.1666259765625,404.1666259765625,404.1666259765625,404.1666259765625,404.1666259765625,404.1666259765625,404.1666259765625,404.1666259765625,404.1666259765625,404.1666259765625]","[257.03704833984375,257.03704833984375,257.03704833984375,257.03704833984375,257.03704833984375,257.03704833984375,254.8148193359375,220,180.74078369140625,20,-69.62957763671875,-142.22216796875,-171.111083984375,-171.111083984375,-171.111083984375,-168.88885498046875,-166.6666259765625,-175.5555419921875,-183.70367431640625,-185.1851806640625,-185.1851806640625,-185.9259033203125,-185.1851806640625,-182.22216796875,-182.22216796875,-182.22216796875,-182.22216796875,-182.22216796875,-182.22216796875,-182.22216796875,-182.22216796875,-182.22216796875,-182.22216796875,-182.22216796875,-182.22216796875,-182.22216796875,-182.22216796875,-182.22216796875,-182.22216796875]","[0,0,0,0,0,0,0,0,0,0,0,0,0,0,0,0,0,0,0,0,0,0,0,0,0,0,0,0,0,0,0,0,0,0,0,0,0,0,0]","[0,0,0,0,0,0,0,0,0,0,0,0,0,0,0,0,0,0,0,0,0,0,0,0,0,0,0,0,0,0,0,0,0,0,0,0,0,0,0]","[0,0,0,0,0,0,0,0,0,0,0,0,0,0,0,0,0,0,0,0,0,0,0,0,0,0,0,0,0,0,0,0,0,0,0,0,0,0,0]","[0,0.036000000000001364,0.07520000000297955,0.1117000000029833,0.11929999999701835,0.1839999999999975,0.21079999999702181,0.2535000000000025,0.2742999999970195,0.3148999999910558,0.340299999997022,0.3787999999970211,0.40709999999403834,0.4430999999940397,0.48959999999404147,0.5159999999999982,0.5533999999910577,0.5899999999999963,0.6262000000029815,0.6682000000029831,0.6957000000029794,0.7239999999999966,0.754599999994042,0.786999999999999,0.8198999999910583,0.8458999999910617,0.8917000000029773,0.9282000000029811,0.9642999999970172,0.9692999999970198,1.0018999999910605,1.0397000000029806,1.1132999999970181,1.1494999999999962,1.1543999999910568,1.1863999999910604,1.2593999999910608,1.2960999999940412,1.3242000000029819]",12,0,12,0,1,0.2534,,,,
S111111111,2024-11-27_18h08.23.739,GoFitts,2023.2.3,Win32,30.03003003,"[396.3986592930837,-176.48805393512598]","[-424.430327224415,90.21545102330403]",22,867.8247064,6.32,1,0.7867,"[404.1666259765625,404.1666259765625,404.1666259765625,404.1666259765625,404.1666259765625,404.1666259765625,404.1666259765625,404.1666259765625,404.1666259765625,400.462890625,270.092529296875,92.3148193359375,-178.0555419921875,-241.0185546875,-241.0185546875,-249.166748046875,-266.2037353515625,-309.166748046875,-332.870361328125,-360.27783203125,-383.24072265625,-396.5740966796875,-409.16668701171875,-424.72222900390625,-425.4630126953125,-423.24078369140625,-423.24078369140625,-423.24078369140625,-423.24078369140625,-423.24078369140625,-423.24078369140625,-423.24078369140625,-423.24078369140625,-423.24078369140625,-423.24078369140625,-423.24078369140625,-423.24078369140625,-423.24078369140625,-423.24078369140625,-423.24078369140625]","[-182.22216796875,-182.22216796875,-182.22216796875,-182.22216796875,-182.22216796875,-182.22216796875,-182.22216796875,-182.22216796875,-182.22216796875,-182.22216796875,-151.851806640625,-105.1851806640625,-26.6666259765625,-4.44439697265625,-4.44439697265625,-2.22216796875,1.48150634765625,13.3333740234375,23.7037353515625,36.29632568359375,51.11114501953125,63.7037353515625,74.0740966796875,80.74078369140625,82.22222900390625,88.148193359375,88.148193359375,88.148193359375,88.148193359375,88.148193359375,88.148193359375,88.148193359375,88.148193359375,88.148193359375,88.148193359375,88.148193359375,88.148193359375,88.148193359375,88.148193359375,88.148193359375]","[0,0,0,0,0,0,0,0,0,0,0,0,0,0,0,0,0,0,0,0,0,0,0,0,0,0,0,0,0,0,0,0,0,0,0,0,0,0,0,0]","[0,0,0,0,0,0,0,0,0,0,0,0,0,0,0,0,0,0,0,0,0,0,0,0,0,0,0,0,0,0,0,0,0,0,0,0,0,0,0,0]","[0,0,0,0,0,0,0,0,0,0,0,0,0,0,0,0,0,0,0,0,0,0,0,0,0,0,0,0,0,0,0,0,0,0,0,0,0,0,0,0]","[0.0000999999940418661,0.038799999997017665,0.06579999999701869,0.0750999999940376,0.12879999999702108,0.16219999998808277,0.18929999999701863,0.19389999999106067,0.22359999999404323,0.26409999999403766,0.32619999998807714,0.36279999999702284,0.4097999999970199,0.44650000000000034,0.4815999999940388,0.5174999999999983,0.551699999988081,0.5865999999940428,0.6139999999999972,0.6430999999940425,0.6760000000000019,0.7127999999970172,0.7382999999970181,0.7866999999880804,0.8109999999999999,0.8605999999940366,0.8842999999970189,0.9314999999999998,0.9411999999880791,1.0027999999970234,1.0357999999970176,1.0410999999940387,1.0920999999940406,1.1245999999940395,1.1530999999940406,1.1811999999880811,1.1915999999940396,1.2462999999970208,1.2580000000000027,1.3299999999999983]",13,0,13,0,1,0.3261,,,,
S111111111,2024-11-27_18h08.23.739,GoFitts,2023.2.3,Win32,30.03003003,"[-424.430327224415,90.21545102330403]","[433.91235321336745,0]",22,867.8247064,6.32,1,0.8405,"[-423.24078369140625,-423.24078369140625,-423.98150634765625,-401.0185546875,-338.0555419921875,-214.3519287109375,15.2777099609375,335.2777099609375,424.1666259765625,425.6480712890625,428.611083984375,430.833251953125,431.573974609375,436.7591552734375,446.3887939453125,448.611083984375,450.092529296875,442.6851806640625,433.7962646484375,425.6480712890625,423.4259033203125,423.4259033203125,423.4259033203125,424.1666259765625,424.9073486328125,424.9073486328125,424.9073486328125,424.9073486328125,424.9073486328125,424.9073486328125,424.9073486328125,424.9073486328125,424.9073486328125,424.9073486328125,424.9073486328125,424.9073486328125,424.9073486328125,424.9073486328125,424.9073486328125]","[88.148193359375,88.148193359375,88.888916015625,88.888916015625,83.7037353515625,65.926025390625,33.3333740234375,-13.33331298828125,-22.96295166015625,-22.96295166015625,-22.96295166015625,-22.22216796875,-22.22216796875,-20,-14.81475830078125,-14.07403564453125,-12.59259033203125,-4.44439697265625,0,3.7037353515625,4.4444580078125,4.4444580078125,5.18524169921875,5.92596435546875,5.92596435546875,5.92596435546875,5.92596435546875,5.92596435546875,5.92596435546875,5.92596435546875,5.92596435546875,5.92596435546875,5.92596435546875,5.92596435546875,5.92596435546875,5.92596435546875,5.92596435546875,5.92596435546875,5.92596435546875]","[0,0,0,0,0,0,0,0,0,0,0,0,0,0,0,0,0,0,0,0,0,0,0,0,0,0,0,0,0,0,0,0,0,0,0,0,0,0,0]","[0,0,0,0,0,0,0,0,0,0,0,0,0,0,0,0,0,0,0,0,0,0,0,0,0,0,0,0,0,0,0,0,0,0,0,0,0,0,0]","[0,0,0,0,0,0,0,0,0,0,0,0,0,0,0,0,0,0,0,0,0,0,0,0,0,0,0,0,0,0,0,0,0,0,0,0,0,0,0]","[0,0.0379999999999967,0.06420000000297676,0.10829999999702267,0.1382999999970167,0.1664999999999992,0.2029000000059611,0.23940000000595774,0.27020000000297983,0.30890000000596274,0.3479000000059571,0.38700000000000045,0.4177000000029807,0.4540999999940425,0.4899000000059601,0.5257999999970195,0.5647000000029792,0.6052000000029807,0.6445000000000007,0.6777000000029787,0.7064999999999984,0.7447999999970207,0.7682999999970193,0.8037999999970182,0.8405999999940406,0.885799999997019,0.8925999999940402,0.9267999999970229,0.9632000000029777,0.9992999999970209,1.0360000000000014,1.1082999999970227,1.1450999999940379,1.1854999999999976,1.1925000000000026,1.2580000000000027,1.2944000000059575,1.3300999999940402,1.3425000000000011]",14,0,14,0,1,0.1083,,,,
S111111111,2024-11-27_18h08.23.739,GoFitts,2023.2.3,Win32,30.03003003,,,,,,1,,,,,,,,,,,,,,1,0,0,1
S111111111,2024-11-27_18h08.23.739,GoFitts,2023.2.3,Win32,30.03003003,"[-242.5,-34.81475830078125]","[42.03267629368979,129.36327585250558]",21,272.0411955,4.75,2,1.6888,"[-242.5,-242.5,-242.5,-242.5,-242.5,-242.5,-242.5,-242.5,-242.5,-242.5,-242.5,-242.5,-242.5,-242.5,-242.5,-242.5,-242.5,-242.5,-242.5,-242.5,-242.5,-242.5,-242.5,-242.5,-242.5,-242.5,-242.5,-242.5,-214.3519287109375,-212.870361328125,-209.166748046875,-166.2037353515625,-15.0926513671875,57.5,58.9814453125,58.9814453125,58.9814453125,58.9814453125,58.9814453125,55.2777099609375,54.5369873046875,55.2777099609375,55.2777099609375,53.7962646484375,46.3887939453125,44.1666259765625,43.4259033203125,42.6851806640625,38.9814453125,38.9814453125,38.9814453125,38.9814453125,38.9814453125,38.9814453125,38.9814453125,38.9814453125,38.9814453125,38.9814453125,38.9814453125,38.9814453125,38.9814453125,38.9814453125]","[-34.81475830078125,-34.81475830078125,-34.81475830078125,-34.81475830078125,-34.81475830078125,-34.81475830078125,-34.81475830078125,-34.81475830078125,-34.81475830078125,-34.81475830078125,-34.81475830078125,-34.81475830078125,-34.81475830078125,-34.81475830078125,-34.81475830078125,-34.81475830078125,-34.81475830078125,-34.81475830078125,-34.81475830078125,-34.81475830078125,-34.81475830078125,-34.81475830078125,-34.81475830078125,-34.81475830078125,-34.81475830078125,-34.81475830078125,-34.81475830078125,-34.81475830078125,-31.851806640625,-31.111083984375,-23.70367431640625,13.3333740234375,142.9630126953125,235.55560302734375,237.03704833984375,237.03704833984375,237.03704833984375,228.888916015625,223.7037353515625,206.66668701171875,188.888916015625,177.77777099609375,169.629638671875,161.48150634765625,151.85186767578125,148.888916015625,147.40740966796875,138.51861572265625,129.629638671875,126.66668701171875,122.9630126953125,122.9630126953125,122.9630126953125,122.9630126953125,122.9630126953125,122.9630126953125,122.9630126953125,122.9630126953125,122.9630126953125,122.9630126953125,122.9630126953125,122.9630126953125]","[0,0,0,0,0,0,0,0,0,0,0,0,0,0,0,0,0,0,0,0,0,0,0,0,0,0,0,0,0,0,0,0,0,0,0,0,0,0,0,0,0,0,0,0,0,0,0,0,0,0,0,0,0,0,0,0,0,0,0,0,0,0]","[0,0,0,0,0,0,0,0,0,0,0,0,0,0,0,0,0,0,0,0,0,0,0,0,0,0,0,0,0,0,0,0,0,0,0,0,0,0,0,0,0,0,0,0,0,0,0,0,0,0,0,0,0,0,0,0,0,0,0,0,0,0]","[0,0,0,0,0,0,0,0,0,0,0,0,0,0,0,0,0,0,0,0,0,0,0,0,0,0,0,0,0,0,0,0,0,0,0,0,0,0,0,0,0,0,0,0,0,0,0,0,0,0,0,0,0,0,0,0,0,0,0,0,0,0]","[0,0.05960000000893473,0.09640000000595705,0.13140000000596075,0.16690000000595973,0.17640000000595535,0.23510000000893427,0.2679000000059588,0.29320000000297597,0.32210000000893757,0.32660000000893774,0.3561000000089365,0.43270000000297415,0.4435000000000002,0.5047000000029769,0.541600000008934,0.5746000000089353,0.5787999999970168,0.6039000000059573,0.6777999999970135,0.7136000000089382,0.7264999999999944,0.7737000000029752,0.7859999999999943,0.8599999999999994,0.8952999999970146,0.9099000000059547,0.959100000008938,1.0015,1.0374999999999943,1.07410000000894,1.1104999999999947,1.1464000000059542,1.1989000000059562,1.226900000005955,1.2649000000059587,1.291600000008934,1.331700000002975,1.3521000000089387,1.3884999999999934,1.4294000000059555,1.4654999999999987,1.503100000008935,1.5389999999999944,1.573999999999998,1.6124999999999972,1.6484000000059567,1.6889000000059582,1.72529999999702,1.7597000000029794,1.7959000000059575,1.842600000008936,1.8795000000000002,1.9157000000029782,1.9257999999970181,1.9911000000089345,2.0276000000089383,2.064900000005956,2.075700000002975,2.1384000000059586,2.1744999999999948,2.2151000000089383]",0,0,0,0,1,1.0013,,,,
S111111111,2024-11-27_18h08.23.739,GoFitts,2023.2.3,Win32,30.03003003,"[42.03267629368979,129.36327585250558]","[-14.21802405687482,-135.27546269601038]",21,272.0411955,4.75,2,0.9358,"[38.9814453125,38.9814453125,38.9814453125,38.9814453125,38.9814453125,38.9814453125,36.0184326171875,24.1666259765625,1.9444580078125,-32.870361328125,-39.5372314453125,-39.5372314453125,-39.5372314453125,-39.5372314453125,-38.79638671875,-37.3148193359375,-32.129638671875,-23.2408447265625,-21.0185546875,-12.870361328125,-6.9444580078125,-5.4630126953125,-5.4630126953125,-4.7222900390625,-4.7222900390625,-4.7222900390625,-8.426025390625,-10.648193359375,-13.6112060546875,-13.6112060546875,-13.6112060546875,-13.6112060546875,-13.6112060546875,-13.6112060546875,-13.6112060546875,-13.6112060546875,-13.6112060546875,-13.6112060546875,-13.6112060546875,-13.6112060546875,-13.6112060546875,-13.6112060546875,-13.6112060546875]","[122.9630126953125,122.9630126953125,122.9630126953125,122.9630126953125,122.9630126953125,122.9630126953125,111.85186767578125,75.55560302734375,8.148193359375,-164.44439697265625,-215.5555419921875,-217.0369873046875,-217.0369873046875,-217.0369873046875,-217.0369873046875,-217.0369873046875,-217.0369873046875,-205.9259033203125,-196.2962646484375,-176.2962646484375,-166.6666259765625,-162.96295166015625,-158.51849365234375,-151.851806640625,-151.851806640625,-148.88885498046875,-145.9259033203125,-140.74072265625,-137.77777099609375,-135.5555419921875,-135.5555419921875,-135.5555419921875,-135.5555419921875,-135.5555419921875,-135.5555419921875,-135.5555419921875,-135.5555419921875,-135.5555419921875,-135.5555419921875,-135.5555419921875,-135.5555419921875,-135.5555419921875,-135.5555419921875]","[0,0,0,0,0,0,0,0,0,0,0,0,0,0,0,0,0,0,0,0,0,0,0,0,0,0,0,0,0,0,0,0,0,0,0,0,0,0,0,0,0,0,0]","[0,0,0,0,0,0,0,0,0,0,0,0,0,0,0,0,0,0,0,0,0,0,0,0,0,0,0,0,0,0,0,0,0,0,0,0,0,0,0,0,0,0,0]","[0,0,0,0,0,0,0,0,0,0,0,0,0,0,0,0,0,0,0,0,0,0,0,0,0,0,0,0,0,0,0,0,0,0,0,0,0,0,0,0,0,0,0]","[0,0.03499999999999659,0.04189999999105254,0.07289999999105845,0.11069999998807845,0.1615999999940385,0.20399999999999352,0.24049999999999727,0.2769999999999939,0.320899999991056,0.3516999999880781,0.38329999999701414,0.41779999999701545,0.45279999999701914,0.4799999999999969,0.5272999999970196,0.5537999999970182,0.590999999999994,0.6275999999940396,0.6733999999910552,0.7053999999910587,0.7364999999999995,0.7733999999910566,0.8088999999910556,0.8434999999999988,0.8743999999910557,0.9046999999880754,0.935899999991058,0.968199999988073,0.9984999999999999,1.045399999991055,1.0829999999999984,1.1189999999999998,1.148899999991059,1.1577999999970174,1.2207999999970198,1.2573999999910583,1.2932999999970178,1.3078999999910579,1.328599999994033,1.3552999999970154,1.3847999999970142,1.459699999988075]",1,0,1,0,1,0.2039,,,,
S111111111,2024-11-27_18h08.23.739,GoFitts,2023.2.3,Win32,30.03003003,"[-14.21802405687482,-135.27546269601038]","[-14.218024056874697,135.2754626960104]",21,272.0411955,4.75,2,0.8538,"[-13.6112060546875,-13.6112060546875,-13.6112060546875,-13.6112060546875,-13.6112060546875,-13.6112060546875,-13.6112060546875,-16.5740966796875,-49.166748046875,-53.6112060546875,-52.870361328125,-49.166748046875,-45.4630126953125,-42.5,-38.79638671875,-34.3519287109375,-28.426025390625,-23.9815673828125,-22.5,-15.0926513671875,-15.0926513671875,-15.0926513671875,-15.0926513671875,-15.0926513671875,-15.0926513671875,-15.0926513671875,-15.0926513671875,-15.0926513671875,-15.0926513671875,-15.0926513671875,-15.0926513671875,-15.0926513671875,-15.0926513671875,-15.0926513671875,-15.0926513671875,-15.0926513671875,-15.0926513671875,-15.0926513671875,-15.0926513671875,-15.0926513671875]","[-135.5555419921875,-135.5555419921875,-135.5555419921875,-135.5555419921875,-135.5555419921875,-135.5555419921875,-132.59259033203125,-113.33331298828125,89.629638671875,112.59259033203125,117.77777099609375,122.22222900390625,126.66668701171875,136.29632568359375,145.1851806640625,148.888916015625,151.11114501953125,151.85186767578125,151.85186767578125,148.148193359375,148.148193359375,148.148193359375,148.148193359375,148.148193359375,148.148193359375,142.9630126953125,142.9630126953125,142.9630126953125,142.9630126953125,142.9630126953125,142.9630126953125,142.9630126953125,142.9630126953125,142.9630126953125,142.9630126953125,142.9630126953125,142.9630126953125,142.9630126953125,142.9630126953125,142.9630126953125]","[0,0,0,0,0,0,0,0,0,0,0,0,0,0,0,0,0,0,0,0,0,0,0,0,0,0,0,0,0,0,0,0,0,0,0,0,0,0,0,0]","[0,0,0,0,0,0,0,0,0,0,0,0,0,0,0,0,0,0,0,0,0,0,0,0,0,0,0,0,0,0,0,0,0,0,0,0,0,0,0,0]","[0,0,0,0,0,0,0,0,0,0,0,0,0,0,0,0,0,0,0,0,0,0,0,0,0,0,0,0,0,0,0,0,0,0,0,0,0,0,0,0]","[0,0.036000000000001364,0.06970000000298171,0.09309999999403828,0.10570000000298307,0.14149999999999352,0.19220000000298398,0.2217999999970175,0.27479999999701477,0.30029999999702284,0.3370000000000033,0.3735999999940418,0.4092999999970175,0.44549999999999557,0.4815999999940459,0.5210999999940285,0.5652999999970163,0.5932999999970079,0.6152999999970135,0.654999999999994,0.6792000000029716,0.7187999999970103,0.7562000000029698,0.7627999999970072,0.7924999999999969,0.8537999999970154,0.8912999999970097,0.9382999999970068,0.9747999999970105,0.9794999999999945,1.0147999999970168,1.0508999999910529,1.1212999999970137,1.1530999999940335,1.1817999999970183,1.2177000000029707,1.2292999999970178,1.2928999999910573,1.3293999999910469,1.3645999999940344]",2,0,2,0,1,0.2217,,,,
