身分證字號,date,expName,psychopyVersion,OS,frameRate,from,to,w,a,id,sequence_loop.thisN,enter_time,mouse.x,mouse.y,mouse.leftButton,mouse.midButton,mouse.rightButton,mouse.time,trial_loop.thisRepN,trial_loop.thisTrialN,trial_loop.thisN,trial_loop.thisIndex,trial_loop.ran,leave_time,sequence_loop.thisRepN,sequence_loop.thisTrialN,sequence_loop.thisIndex,sequence_loop.ran
SSS,2024-10-24_08h33.30.766,GoFitts,2023.2.3,Win32,59.88023952,,,,,,,,,,,,,,,,,,,,,,,
SSS,2024-10-24_08h33.30.766,GoFitts,2023.2.3,Win32,59.88023952,,,,,,,,,,,,,,,,,,,,,,,
SSS,2024-10-24_08h33.30.766,GoFitts,2023.2.3,Win32,59.88023952,"[-73,0]","[91.02086520324028,40.52510015008415]",32,199.2694823,3.75,0,0.8495,"[-73,-73,-73,-73,-73,-73,-73,-73,-73,-73,-73,-73,-73,-73,-73,-73,-73,-73,-73,-73,-73,-73,-73,-73,-73,-71,-66,-54,-19,29,88,115,161,182,181,179,171,161,155,155,154,152,147,131,120,110,108,107,107,106,104,103,103,103,103,103,103,103,103,103,103,103,103,102,101,101,100,100,99,98,98,97,94,93,92,90,89,89,89,89,89,89]","[0,0,0,0,0,0,0,0,0,0,0,0,0,0,0,0,0,0,0,0,0,0,0,0,0,0,1,3,9,16,23,27,35,41,41,42,42,43,43,44,46,48,51,54,55,55,55,55,54,53,52,51,50,50,50,50,50,50,50,50,50,50,50,50,49,48,48,47,46,46,45,44,42,40,39,38,37,37,37,37,37,37]","[0,0,0,0,0,0,0,0,0,0,0,0,0,0,0,0,0,0,0,0,0,0,0,0,0,0,0,0,0,0,0,0,0,0,0,0,0,0,0,0,0,0,0,0,0,0,0,0,0,0,0,0,0,0,0,0,0,1,1,1,1,0,0,0,0,0,0,0,0,0,0,0,0,0,0,0,0,0,0,0,0,0]","[0,0,0,0,0,0,0,0,0,0,0,0,0,0,0,0,0,0,0,0,0,0,0,0,0,0,0,0,0,0,0,0,0,0,0,0,0,0,0,0,0,0,0,0,0,0,0,0,0,0,0,0,0,0,0,0,0,0,0,0,0,0,0,0,0,0,0,0,0,0,0,0,0,0,0,0,0,0,0,0,0,0]","[0,0,0,0,0,0,0,0,0,0,0,0,0,0,0,0,0,0,0,0,0,0,0,0,0,0,0,0,0,0,0,0,0,0,0,0,0,0,0,0,0,0,0,0,0,0,0,0,0,0,0,0,0,0,0,0,0,0,0,0,0,0,0,0,0,0,0,0,0,0,0,0,0,0,0,0,0,0,0,0,0,0]","[0.00010000002384913387,0.014600000023847315,0.03120000004768997,0.04800000000000182,0.06460000002384447,0.08160000002384038,0.09810000002384811,0.11520000004767894,0.13140000003576802,0.14810000002384527,0.16470000004768792,0.1816000000238489,0.19810000002384243,0.2149000000357688,0.23160000002384606,0.24830000001192332,0.26500000000000057,0.2815000000000083,0.2982000000476859,0.31490000003576313,0.3316000000238404,0.34830000001191763,0.3650000000000091,0.38180000001192127,0.3984999999999985,0.41540000003575983,0.4321000000238371,0.44870000004767974,0.46530000001192207,0.4819999999999993,0.4988000000119257,0.515500000000003,0.5321000000238456,0.5488000000119229,0.5654000000357655,0.5823000000119265,0.5990000000000038,0.6157000000476813,0.6324000000357586,0.64910000002385,0.6655000000000086,0.68240000003577,0.6991000000238472,0.7157000000476899,0.7325000000000017,0.7491000000238444,0.7658000000119216,0.7828000000119175,0.7992000000476907,0.8158000000119188,0.8326000000238452,0.8495000000000061,0.8659000000357651,0.8825000000000074,0.89910000002385,0.9158000000119273,0.9325000000000045,0.9493000000119167,0.9660000000000082,0.9827000000476858,0.9996000000238467,1.0160000000000053,1.0331000000238504,1.049500000000009,1.0662000000476866,1.0829000000357638,1.0995000000000061,1.1162000000476837,1.1331000000238447,1.149800000011922,1.1664000000357646,1.183200000047691,1.199800000011919,1.2163000000119268,1.2333000000119227,1.25,1.266400000035759,1.2831000000238504,1.2997000000476788,1.3165000000000049,1.333300000011917,1.3502000000476926]",0,0,0,0,1,,,,,
SSS,2024-10-24_08h33.30.766,GoFitts,2023.2.3,Win32,59.88023952,"[91.02086520324028,40.52510015008415]","[-80.60619882250161,-58.56383146540304]",32,199.2694823,3.75,0,0.65,"[89,89,89,89,89,89,89,89,89,89,89,89,89,89,89,89,89,89,89,87,63,38,-9,-32,-48,-49,-49,-49,-49,-50,-53,-54,-54,-54,-55,-57,-58,-66,-72,-78,-82,-82,-82,-82,-82,-82,-82,-82,-82,-82,-82,-82,-82,-82,-82,-82,-82,-82,-82,-82,-82,-81,-80,-80,-80,-80,-80,-80,-80,-80]","[37,37,37,37,37,37,37,37,37,37,37,37,37,37,37,37,37,37,37,37,21,7,-19,-32,-42,-42,-42,-42,-40,-36,-34,-33,-33,-33,-33,-34,-35,-40,-44,-49,-51,-52,-52,-52,-52,-52,-52,-52,-52,-52,-52,-52,-52,-52,-52,-52,-52,-52,-52,-52,-52,-52,-52,-52,-52,-52,-52,-52,-52,-52]","[0,0,0,0,0,0,0,0,0,0,0,0,0,0,0,0,0,0,0,0,0,0,0,0,0,0,0,0,0,0,0,0,0,0,0,0,0,0,0,0,0,0,0,1,1,1,1,1,0,0,0,0,0,0,0,0,0,0,0,0,0,0,0,0,0,0,0,0,0,0]","[0,0,0,0,0,0,0,0,0,0,0,0,0,0,0,0,0,0,0,0,0,0,0,0,0,0,0,0,0,0,0,0,0,0,0,0,0,0,0,0,0,0,0,0,0,0,0,0,0,0,0,0,0,0,0,0,0,0,0,0,0,0,0,0,0,0,0,0,0,0]","[0,0,0,0,0,0,0,0,0,0,0,0,0,0,0,0,0,0,0,0,0,0,0,0,0,0,0,0,0,0,0,0,0,0,0,0,0,0,0,0,0,0,0,0,0,0,0,0,0,0,0,0,0,0,0,0,0,0,0,0,0,0,0,0,0,0,0,0,0,0]","[0,0.015599999964237554,0.032299999952314806,0.04869999998808794,0.06529999995231606,0.0823999999761611,0.0986999999880851,0.11539999997616235,0.13219999998808873,0.148899999976166,0.16569999998807816,0.1822999999523205,0.19889999997616314,0.2155999999642404,0.23279999995232004,0.24929999995231356,0.26619999998807486,0.28239999997616394,0.2990999999642412,0.3158999999761676,0.33279999995231435,0.349399999976157,0.36599999999999966,0.3826999999880769,0.39929999995231924,0.4160999999642456,0.43259999996423915,0.44939999997616553,0.4661999999880777,0.48289999997615496,0.4995999999642464,0.5161999999880749,0.5328999999761663,0.549500000000009,0.5662999999523208,0.5828999999761635,0.5996999999880757,0.616500000000002,0.6335999999642468,0.6500000000000057,0.6663999999761643,0.6830999999642415,0.6996999999880842,0.7163999999761614,0.7333999999761573,0.75,0.7663999999761586,0.783199999988085,0.7998999999761622,0.8165000000000049,0.8331999999880821,0.850199999988078,0.8665999999642366,0.8832999999523139,0.9001999999880752,0.9165999999642338,0.9335999999642439,0.9503999999761561,0.9666999999880801,0.9832999999523224,1.0001999999880837,1.016999999999996,1.0336999999880874,1.050199999988081,1.0668999999761581,1.0836999999880845,1.1002999999523126,1.117099999964239,1.1340000000000003,1.150399999976159]",1,0,1,0,1,0.3328,,,,
SSS,2024-10-24_08h33.30.766,GoFitts,2023.2.3,Win32,59.88023952,"[-80.60619882250161,-58.56383146540304]","[66.6686547617638,74.04304232524173]",32,199.2694823,3.75,0,1.7357,"[-80,-80,-79,-78,-77,-76,-76,-76,-75,-75,-75,-74,-74,-74,-74,-72,-68,-61,-43,-29,-13,2,14,21,23,23,23,23,24,27,29,35,38,41,42,42,42,43,44,47,50,54,54,54,54,54,54,54,54,54,54,54,54,54,54,53,53,53,53,53,53,53,53,53,52,52,51,49,48,43,39,33,26,20,11,6,4,3,3,2,2,2,2,2,4,4,4,4,4,4,4,4,4,4,4,4,4,4,4,5,8,14,29,45,56,61,63,64,64,65,66,67,69,69,69,69,69,69,69,69,69,69,69,69,69,69,69,69,69,69,69,69,69,69,69]","[-52,-52,-52,-52,-53,-53,-53,-53,-53,-53,-53,-53,-53,-53,-53,-53,-52,-48,-27,-4,26,57,80,94,96,96,96,95,92,89,86,81,79,77,77,77,77,77,77,77,77,77,77,77,77,77,77,77,77,77,76,75,75,75,75,75,75,75,74,74,74,73,72,71,70,69,68,66,64,58,53,47,39,31,18,12,10,8,7,7,7,7,7,8,14,17,21,22,23,23,23,23,23,23,23,23,23,23,23,24,26,31,41,54,63,68,70,71,71,71,72,73,74,74,74,74,74,74,74,74,74,74,74,74,74,74,74,74,74,74,74,74,74,74,74]","[0,0,0,0,0,0,0,0,0,0,0,0,0,0,0,0,0,0,0,0,0,0,0,0,0,0,0,0,0,0,0,0,0,0,0,0,0,0,0,0,0,0,0,0,1,1,1,1,1,0,0,0,0,0,0,0,0,0,0,0,0,0,0,0,0,0,0,0,0,0,0,0,0,0,0,0,0,0,0,0,0,0,0,0,0,0,0,0,0,0,0,0,0,0,0,0,0,0,0,0,0,0,0,0,0,0,0,0,0,0,0,0,0,0,0,0,0,0,0,0,0,0,0,0,0,0,0,0,0,0,1,1,1,0,0]","[0,0,0,0,0,0,0,0,0,0,0,0,0,0,0,0,0,0,0,0,0,0,0,0,0,0,0,0,0,0,0,0,0,0,0,0,0,0,0,0,0,0,0,0,0,0,0,0,0,0,0,0,0,0,0,0,0,0,0,0,0,0,0,0,0,0,0,0,0,0,0,0,0,0,0,0,0,0,0,0,0,0,0,0,0,0,0,0,0,0,0,0,0,0,0,0,0,0,0,0,0,0,0,0,0,0,0,0,0,0,0,0,0,0,0,0,0,0,0,0,0,0,0,0,0,0,0,0,0,0,0,0,0,0,0]","[0,0,0,0,0,0,0,0,0,0,0,0,0,0,0,0,0,0,0,0,0,0,0,0,0,0,0,0,0,0,0,0,0,0,0,0,0,0,0,0,0,0,0,0,0,0,0,0,0,0,0,0,0,0,0,0,0,0,0,0,0,0,0,0,0,0,0,0,0,0,0,0,0,0,0,0,0,0,0,0,0,0,0,0,0,0,0,0,0,0,0,0,0,0,0,0,0,0,0,0,0,0,0,0,0,0,0,0,0,0,0,0,0,0,0,0,0,0,0,0,0,0,0,0,0,0,0,0,0,0,0,0,0,0,0]","[0,0.015999999999991132,0.03290000003575244,0.04960000002382969,0.06619999998807202,0.08290000003576381,0.09949999999999193,0.11619999998806918,0.13299999999999557,0.14960000002383822,0.16630000001191547,0.18299999999999272,0.19960000002383538,0.21630000001191263,0.23290000003575528,0.24980000001191627,0.2664999999999935,0.28319999998807077,0.3001000000238321,0.3166000000238398,0.33319999998806793,0.3499000000357597,0.36669999998807157,0.3833000000119142,0.3999999999999915,0.4164999999999992,0.43319999998807646,0.45010000002383777,0.466800000011915,0.48349999999999227,0.5001999999880695,0.5168000000119122,0.5334000000357548,0.5504000000357507,0.5669999999999931,0.5835000000000008,0.600199999988078,0.6171000000238394,0.6336999999880675,0.6503000000119101,0.6671999999880711,0.6839999999999975,0.700499999999991,0.7169999999999987,0.7338000000119109,0.750800000011921,0.7671000000238308,0.7836999999880732,0.8004000000357507,0.8171999999880768,0.833999999999989,0.8506999999880804,0.8673000000119089,0.8840000000000003,0.9008000000119125,0.9174000000357552,0.9339000000357629,0.9506999999880748,0.9674000000357523,0.9839999999999947,1.000800000011921,1.0174999999999983,1.0343000000119105,1.0509000000357531,1.0676000000238304,1.0843000000119218,1.1014000000357527,1.1176999999880763,1.1344999999999885,1.151400000035764,1.1678000000119226,1.1844999999999999,1.2011999999880771,1.2179000000357547,1.234600000023832,1.2513000000119092,1.2680000000000007,1.284699999988078,1.3018000000119088,1.3181999999880674,1.3346000000238405,1.3513000000119177,1.3679000000357604,1.3846999999880722,1.401400000035764,1.4181999999880759,1.4349000000357535,1.4516999999880795,1.468199999988073,1.4846999999880808,1.5021000000238303,1.5184000000357543,1.5348000000119129,1.55149999999999,1.5681999999880674,1.5849000000357591,1.6018000000119201,1.6184999999999974,1.634999999999991,1.6524000000357546,1.6684999999999945,1.685300000011921,1.7019999999999982,1.7186000000238408,1.7356999999880713,1.7519999999999953,1.7686999999880726,1.7854000000357644,1.801900000035758,1.8189000000357538,1.8354999999999961,1.8523000000119225,1.868900000035751,1.8853000000119096,1.902100000023836,1.9189000000357623,1.9359000000357582,1.952100000023833,1.9693000000119127,1.9855000000000018,2.0024999999999977,2.0189000000357566,2.035600000023834,2.052300000011911,2.0689999999999884,2.08569999998808,2.1023000000119225,2.1191000000238347,2.135900000035761,2.152499999999989,2.1693000000119156,2.185999999999993,2.2026000000238355,2.2193000000119127,2.23599999999999]",2,0,2,0,1,0.2832,,,,
SSS,2024-10-24_08h33.30.766,GoFitts,2023.2.3,Win32,59.88023952,"[66.6686547617638,74.04304232524173]","[-49.81737057623778,-86.28621693753057]",32,199.2694823,3.75,0,0.5004,"[69,69,69,69,69,69,69,69,62,50,26,5,-16,-38,-41,-41,-41,-41,-41,-39,-37,-36,-35,-30,-26,-24,-24,-27,-32,-36,-39,-40,-41,-41,-41,-41,-41,-41,-41,-41,-42,-44,-47,-47,-47,-47,-47,-47,-48,-49,-49,-49,-49,-49,-49,-49,-49,-49,-49,-49,-49]","[74,74,74,74,74,74,74,72,61,49,26,6,-15,-40,-47,-49,-49,-49,-48,-46,-44,-44,-44,-47,-49,-52,-56,-62,-68,-73,-77,-79,-80,-80,-80,-80,-81,-81,-81,-81,-81,-82,-83,-83,-83,-83,-83,-83,-83,-83,-83,-83,-83,-83,-83,-83,-83,-83,-83,-83,-83]","[0,0,0,0,0,0,0,0,0,0,0,0,0,0,0,0,0,0,0,0,0,0,0,0,0,0,0,0,0,0,0,0,0,0,0,0,0,0,0,0,0,0,0,1,1,1,0,0,0,0,0,0,0,0,0,0,0,0,0,0,0]","[0,0,0,0,0,0,0,0,0,0,0,0,0,0,0,0,0,0,0,0,0,0,0,0,0,0,0,0,0,0,0,0,0,0,0,0,0,0,0,0,0,0,0,0,0,0,0,0,0,0,0,0,0,0,0,0,0,0,0,0,0]","[0,0,0,0,0,0,0,0,0,0,0,0,0,0,0,0,0,0,0,0,0,0,0,0,0,0,0,0,0,0,0,0,0,0,0,0,0,0,0,0,0,0,0,0,0,0,0,0,0,0,0,0,0,0,0,0,0,0,0,0,0]","[0,0.015900000035756534,0.03280000001191752,0.04930000001192525,0.0660000000000025,0.08270000004768008,0.0993000000119224,0.11620000004768372,0.1331000000238447,0.14970000004768735,0.16630000001191547,0.18299999999999272,0.1997000000476845,0.21640000003576176,0.2330000000000041,0.24970000004768167,0.266300000011924,0.28300000000000125,0.29999999999999716,0.3165000000000049,0.33320000004768247,0.3499000000357597,0.36660000002383697,0.38340000003576336,0.3999000000357569,0.4166000000238341,0.4333000000119256,0.45010000002383777,0.4666000000238455,0.48390000003576006,0.5004000000357536,0.5168000000119122,0.5336000000238386,0.5501000000238463,0.5667000000476747,0.5836000000238357,0.6002000000476784,0.6168000000119207,0.6336000000238329,0.6502000000476755,0.6672000000476856,0.6839999999999975,0.7004000000357564,0.7169999999999987,0.7341000000238438,0.7504000000357536,0.7669000000357613,0.784100000023841,0.8004999999999995,0.8174000000357609,0.8341000000238381,0.8506000000238458,0.8674999999999926,0.8840000000000003,0.9009999999999962,0.917700000047688,0.9346000000238348,0.9506000000238402,0.9673000000119174,0.9842000000476787,1.000800000011921]",3,0,3,0,1,0.1497,,,,
SSS,2024-10-24_08h33.30.766,GoFitts,2023.2.3,Win32,59.88023952,"[-49.81737057623778,-86.28621693753057]","[30.788828246263858,94.75826982244268]",32,199.2694823,3.75,0,3.5217,"[-49,-49,-49,-49,-49,-49,-49,-49,-49,-47,-45,-44,-43,-43,-43,-43,-44,-44,-44,-44,-43,-40,-36,-29,-22,-5,6,15,19,20,20,20,20,20,20,20,20,20,20,22,24,25,28,28,29,29,29,29,29,29,29,29,29,29,29,29,29,29,29,29,29,29,29,29,29,29,29,29,29,28,24,22,20,19,19,19,19,19,19,19,19,19,19,19,19,19,19,19,19,19,19,19,19,19,19,19,19,21,22,29,32,33,33,33,31,30,30,30,30,30,30,29,29,29,29,29,29,29,29,29,29,29,29,29,29,30,30,30,31,31,31,30,28,25,24,24,24,24,24,24,24,24,24,24,24,24,24,24,24,24,24,24,24,24,24,25,26,26,27,27,27,27,27,27,29,31,32,33,33,33,33,33,33,33,32,32,32,32,32,32,32,32,32,32,32,32,31,31,31,31,31,31,31,31,32,33,33,33,33,33,34,34,34,35,37,37,37,37,37,36,34,34,33,33,33,33,32,32,32,32,31,31,31,31,31,31,31,31,31,31,31,31,31,31,31,31,31,31,31,31,31,31]","[-83,-83,-83,-83,-83,-83,-83,-83,-83,-83,-84,-84,-86,-87,-90,-93,-96,-96,-96,-96,-94,-87,-79,-60,-39,5,35,57,71,73,73,73,73,73,73,73,73,73,74,76,78,80,85,88,92,93,93,93,93,93,93,93,93,93,93,93,93,93,93,92,92,90,88,85,79,75,61,49,28,10,-5,-16,-29,-38,-41,-43,-44,-44,-44,-44,-44,-44,-44,-44,-44,-44,-44,-44,-44,-44,-44,-44,-44,-44,-44,-44,-44,-40,-36,-12,9,31,58,73,80,82,83,84,86,86,89,91,92,92,92,92,92,92,92,92,92,92,92,92,91,89,87,78,70,59,40,35,17,4,-4,-8,-9,-9,-9,-9,-8,-6,-5,-4,-3,-2,-2,-2,-2,-1,-1,-1,-1,-1,0,1,4,9,15,25,33,40,48,50,58,62,70,74,77,79,79,79,79,81,83,87,92,95,95,95,95,95,95,95,95,95,95,95,94,93,89,87,83,77,70,52,46,28,18,13,11,11,11,14,20,27,31,42,56,67,77,84,87,89,90,90,91,91,93,93,93,93,93,93,93,93,93,93,93,93,93,93,93,93,93,93,93,93,93,93,93,93]","[0,0,0,0,0,0,0,0,0,0,0,0,0,0,0,0,0,0,0,0,0,0,0,0,0,0,0,0,0,0,0,0,0,0,0,0,0,0,0,0,0,0,0,0,0,0,1,1,1,1,1,0,0,0,0,0,0,0,0,0,0,0,0,0,0,0,0,0,0,0,0,0,0,0,0,0,0,0,0,0,0,0,0,0,0,0,0,0,0,0,0,0,0,0,0,0,0,0,0,0,0,0,0,0,0,0,0,0,0,0,0,0,0,0,0,0,1,1,1,1,0,0,0,0,0,0,0,0,0,0,0,0,0,0,0,0,0,0,0,0,0,0,0,0,0,0,0,0,0,0,0,0,0,0,0,0,0,0,0,0,0,0,0,0,0,0,0,0,0,0,0,0,0,0,0,0,0,0,0,1,1,1,1,0,0,0,0,0,0,0,0,0,0,0,0,0,0,0,0,0,0,0,0,0,0,0,0,0,0,0,0,0,0,0,0,0,0,0,0,0,0,0,0,0,0,1,1,1,1,1,0,0,0,0,0,0,0,0,0,0,0,0]","[0,0,0,0,0,0,0,0,0,0,0,0,0,0,0,0,0,0,0,0,0,0,0,0,0,0,0,0,0,0,0,0,0,0,0,0,0,0,0,0,0,0,0,0,0,0,0,0,0,0,0,0,0,0,0,0,0,0,0,0,0,0,0,0,0,0,0,0,0,0,0,0,0,0,0,0,0,0,0,0,0,0,0,0,0,0,0,0,0,0,0,0,0,0,0,0,0,0,0,0,0,0,0,0,0,0,0,0,0,0,0,0,0,0,0,0,0,0,0,0,0,0,0,0,0,0,0,0,0,0,0,0,0,0,0,0,0,0,0,0,0,0,0,0,0,0,0,0,0,0,0,0,0,0,0,0,0,0,0,0,0,0,0,0,0,0,0,0,0,0,0,0,0,0,0,0,0,0,0,0,0,0,0,0,0,0,0,0,0,0,0,0,0,0,0,0,0,0,0,0,0,0,0,0,0,0,0,0,0,0,0,0,0,0,0,0,0,0,0,0,0,0,0,0,0,0,0,0,0,0,0,0,0,0,0,0,0,0,0,0,0,0]","[0,0,0,0,0,0,0,0,0,0,0,0,0,0,0,0,0,0,0,0,0,0,0,0,0,0,0,0,0,0,0,0,0,0,0,0,0,0,0,0,0,0,0,0,0,0,0,0,0,0,0,0,0,0,0,0,0,0,0,0,0,0,0,0,0,0,0,0,0,0,0,0,0,0,0,0,0,0,0,0,0,0,0,0,0,0,0,0,0,0,0,0,0,0,0,0,0,0,0,0,0,0,0,0,0,0,0,0,0,0,0,0,0,0,0,0,0,0,0,0,0,0,0,0,0,0,0,0,0,0,0,0,0,0,0,0,0,0,0,0,0,0,0,0,0,0,0,0,0,0,0,0,0,0,0,0,0,0,0,0,0,0,0,0,0,0,0,0,0,0,0,0,0,0,0,0,0,0,0,0,0,0,0,0,0,0,0,0,0,0,0,0,0,0,0,0,0,0,0,0,0,0,0,0,0,0,0,0,0,0,0,0,0,0,0,0,0,0,0,0,0,0,0,0,0,0,0,0,0,0,0,0,0,0,0,0,0,0,0,0,0,0]","[0,0.015900000035770745,0.03290000003576665,0.04930000001192525,0.06650000000000489,0.08290000003576381,0.09940000003577154,0.11599999999999966,0.13280000001192604,0.1494000000357687,0.16620000004769508,0.18300000000000693,0.1997000000476845,0.21640000003576176,0.2330000000000041,0.25,0.26640000003577313,0.28290000003576665,0.2996000000238439,0.31630000001192116,0.33310000002384754,0.3498000000119248,0.3666000000238512,0.383700000047682,0.40030000001192434,0.41670000004768326,0.4335000000000093,0.450100000023852,0.46680000001192923,0.48330000001192275,0.4999000000357654,0.5166000000238427,0.5336000000238528,0.5501000000238463,0.5671000000238422,0.5837000000476849,0.6004000000357621,0.6173000000119231,0.6336000000238471,0.6503000000119243,0.6670000000000016,0.6839000000357629,0.7003000000119215,0.7169999999999987,0.7339000000357743,0.7506000000238515,0.767100000023845,0.7842000000476901,0.8006000000238487,0.8175000000000097,0.8338000000119195,0.850700000047695,0.8672000000476885,0.8839000000357657,0.900600000023843,0.9172000000476856,0.934600000023849,0.9511000000238425,0.9674000000357665,0.9846000000238462,1.000800000011921,1.0176000000238474,1.034100000023841,1.0508000000119324,1.0675000000000097,1.0847000000476896,1.1012000000476831,1.1178000000119255,1.1345000000000027,1.1512000000476945,1.1678000000119226,1.1844999999999999,1.2011000000238425,1.217900000035769,1.2344000000357624,1.2512000000476888,1.2680000000000007,1.2844000000357738,1.3015000000000043,1.3179000000357632,1.3348000000119242,1.3514000000357669,1.3682000000476933,1.3846000000238519,1.4014999999999986,1.4180000000000064,1.434700000047684,1.451600000023845,1.4684000000357713,1.4847000000476953,1.5015000000000072,1.518500000000003,1.534900000035762,1.551800000011923,1.5683000000119307,1.5848000000119242,1.6015000000000015,1.6184000000357628,1.6352000000476892,1.652200000047685,1.6687000000476928,1.6852000000476863,1.7019999999999982,1.718500000000006,1.7357000000476859,1.7521000000238445,1.7686000000238522,1.7852000000476949,1.801900000035772,1.8186000000238494,1.8355000000000103,1.8524000000357717,1.8689000000357652,1.885400000035773,1.9024000000357688,1.9190000000000111,1.93540000003577,1.952300000011931,1.9688000000119246,1.9855000000000018,2.002300000011928,2.018900000035771,2.035700000047683,2.052600000023844,2.0690000000000026,2.0857000000476944,2.1024000000357717,2.1194000000357676,2.135800000011926,2.1526000000238525,2.169200000047695,2.1859000000357725,2.2029000000357684,2.2196000000238456,2.2362000000476883,2.2528000000119306,2.2694000000357732,2.2859000000357668,2.3032000000476955,2.3193000000119213,2.3362000000476826,2.352800000011925,2.369500000000002,2.3864000000357635,2.4031000000238407,2.419800000011932,2.4366000000238444,2.453200000047687,2.4698000000119293,2.4868000000119252,2.503400000035768,2.5196000000238428,2.5368000000119224,2.5531000000238464,2.569900000035773,2.5868000000119196,2.6032000000476927,2.6201000000238537,2.636600000023847,2.6533000000119245,2.669900000035767,2.6865000000000094,2.7034000000357707,2.720100000023848,2.7369000000357744,2.7536000000238516,2.770300000011929,2.787100000023841,2.8037000000476837,2.8205000000000098,2.836700000047685,2.853700000047695,2.8711000000238442,2.8870000000000005,2.9037000000476922,2.920500000000004,2.9372000000476817,2.953900000035773,2.9704000000357667,2.987000000000009,3.003800000011921,3.020400000035764,3.037300000011925,3.0539000000357674,3.0705000000000098,3.0871000000238524,3.104300000011932,3.120700000047691,3.137500000000003,3.154400000035764,3.1708000000119227,3.1874000000357654,3.2041000000238427,3.2211000000238528,3.2375000000000114,3.254200000047689,3.271000000000001,3.2876000000238434,3.30440000003577,3.321100000023847,3.3378000000119243,3.3542000000476833,3.3711000000238442,3.387700000047687,3.404400000035764,3.4210000000000065,3.437800000011933,3.45450000000001,3.4711000000238528,3.48780000001193,3.5047000000476913,3.5217000000476872,3.538000000000011,3.5546000000238536,3.5714000000357657,3.5879000000357735,3.605100000023853,3.6212000000476934,3.6382000000476893,3.6548000000119316,3.671600000023844,3.6882000000476864,3.7052000000476824,3.721500000000006,3.7381000000238487,3.754800000011926,3.7716000000238523,3.788100000023846,3.8051000000238417,3.821900000035768,3.8384000000357616,3.855100000023853,3.8719000000357653,3.8886000000238425,3.90530000001192,3.9218000000119275,3.93840000003577,3.9551000000238474,3.9718000000119247,3.9884000000357673,4.005400000035763,4.021900000035771]",4,0,4,0,1,0.3836,,,,
SSS,2024-10-24_08h33.30.766,GoFitts,2023.2.3,Win32,59.88023952,"[30.788828246263858,94.75826982244268]","[-10.41466638073877,-99.0889316154872]",32,199.2694823,3.75,0,0.7676,"[31,31,31,32,33,33,33,33,33,33,33,33,33,33,33,33,33,34,36,38,38,38,35,27,21,10,7,6,6,6,6,6,6,6,6,6,6,6,6,6,6,6,6,6,6,4,0,-2,-2,-3,-4,-7,-8,-9,-9,-9,-9,-9,-9,-9,-9,-9,-9,-9,-9,-9,-9,-9,-9,-9,-9,-9,-9,-9,-9,-9,-9]","[93,93,92,89,88,87,87,87,87,87,88,88,88,88,88,88,88,87,79,66,57,39,9,-15,-39,-70,-82,-90,-93,-93,-93,-93,-91,-89,-88,-87,-87,-86,-86,-86,-86,-86,-86,-86,-86,-86,-88,-89,-90,-91,-92,-94,-94,-96,-96,-96,-96,-96,-96,-96,-96,-96,-96,-96,-96,-96,-96,-96,-96,-96,-96,-96,-96,-96,-96,-96,-96]","[0,0,0,0,0,0,0,0,0,0,0,0,0,0,0,0,0,0,0,0,0,0,0,0,0,0,0,0,0,0,0,0,0,0,0,0,0,0,1,1,1,1,0,0,0,0,0,0,0,0,0,0,0,0,1,1,1,1,0,0,0,0,0,0,0,0,0,0,0,0,0,0,0,0,0,0,0]","[0,0,0,0,0,0,0,0,0,0,0,0,0,0,0,0,0,0,0,0,0,0,0,0,0,0,0,0,0,0,0,0,0,0,0,0,0,0,0,0,0,0,0,0,0,0,0,0,0,0,0,0,0,0,0,0,0,0,0,0,0,0,0,0,0,0,0,0,0,0,0,0,0,0,0,0,0]","[0,0,0,0,0,0,0,0,0,0,0,0,0,0,0,0,0,0,0,0,0,0,0,0,0,0,0,0,0,0,0,0,0,0,0,0,0,0,0,0,0,0,0,0,0,0,0,0,0,0,0,0,0,0,0,0,0,0,0,0,0,0,0,0,0,0,0,0,0,0,0,0,0,0,0,0,0]","[0,0.01620000004767519,0.03300000000000125,0.04970000004767883,0.06630000001192116,0.0835000000000008,0.09960000002384106,0.11610000002383458,0.13290000003576097,0.14970000004768735,0.16660000002383413,0.18299999999999272,0.1998000000119191,0.21670000004768042,0.23349999999999227,0.2504000000357536,0.26660000002384265,0.2832000000476853,0.29990000003576256,0.3166000000238398,0.33330000001191706,0.35010000002384345,0.36660000002383697,0.383700000047682,0.4001000000238406,0.41680000001191786,0.43360000002384425,0.45010000002383777,0.4667000000476804,0.48340000003575767,0.5009999999999906,0.5169999999999959,0.5338000000119223,0.5504999999999995,0.5671000000238422,0.5838000000119195,0.6004000000357621,0.6171000000238394,0.633700000047682,0.6504000000357593,0.6670000000000016,0.6837000000476792,0.700499999999991,0.7173000000119174,0.7338000000119109,0.7509999999999906,0.7677000000476824,0.7839999999999918,0.8006000000238345,0.8178000000119141,0.8339000000357544,0.8507000000476808,0.8674999999999926,0.884300000011919,0.9008000000119125,0.917500000000004,0.9343000000119162,0.9512000000476775,0.9679000000357547,0.9843000000119133,1.000800000011921,1.0176000000238332,1.0342000000476759,1.051000000000002,1.0676000000238446,1.0843000000119218,1.1013000000119177,1.1179000000357604,1.1345000000000027,1.1512000000476803,1.1678000000119226,1.184700000047684,1.2014999999999958,1.2178000000119198,1.234499999999997,1.2513000000119234,1.2680000000000007]",5,0,5,0,1,0.2999,,,,
SSS,2024-10-24_08h33.30.766,GoFitts,2023.2.3,Win32,59.88023952,"[-10.41466638073877,-99.0889316154872]","[-10.41466638073868,99.08893161548721]",32,199.2694823,3.75,0,0.6507,"[-9,-9,-9,-9,-9,-9,-9,-9,-9,-9,-9,-9,-9,-9,-9,-9,-9,-9,-9,-9,-8,-7,-7,-7,-7,-7,-8,-9,-9,-9,-9,-9,-9,-9,-9,-9,-9,-9,-9,-9,-9,-9,-9,-9,-9,-9,-9,-9,-9,-9,-9,-9,-8,-8,-8,-8,-8,-8,-8,-8,-8,-8,-8,-8,-8,-8,-8,-7,-7,-7]","[-96,-96,-96,-96,-96,-96,-96,-96,-96,-96,-96,-96,-96,-96,-96,-96,-96,-96,-95,-93,-86,-77,-54,-13,18,41,61,63,63,63,63,63,63,63,65,66,68,70,76,85,88,92,98,99,99,99,99,99,99,98,98,98,97,97,96,96,96,96,96,96,96,95,95,95,95,95,95,94,94,94]","[0,0,0,0,0,1,1,1,1,1,0,0,0,0,0,0,0,0,0,0,0,0,0,0,0,0,0,0,0,0,0,0,0,0,0,0,0,0,0,0,0,0,0,0,0,1,1,1,1,0,0,0,0,0,0,0,1,1,1,1,0,0,0,0,0,0,0,0,0,0]","[0,0,0,0,0,0,0,0,0,0,0,0,0,0,0,0,0,0,0,0,0,0,0,0,0,0,0,0,0,0,0,0,0,0,0,0,0,0,0,0,0,0,0,0,0,0,0,0,0,0,0,0,0,0,0,0,0,0,0,0,0,0,0,0,0,0,0,0,0,0]","[0,0,0,0,0,0,0,0,0,0,0,0,0,0,0,0,0,0,0,0,0,0,0,0,0,0,0,0,0,0,0,0,0,0,0,0,0,0,0,0,0,0,0,0,0,0,0,0,0,0,0,0,0,0,0,0,0,0,0,0,0,0,0,0,0,0,0,0,0,0]","[0,0.01650000000000773,0.032699999988082595,0.04939999997615985,0.06639999997615575,0.08289999997616349,0.09950000000000614,0.11619999998808339,0.13280000001192604,0.15049999999999386,0.16639999997616428,0.18300000000000693,0.1996999999880842,0.21630000001192684,0.23319999998807361,0.24960000002384675,0.266300000011924,0.28360000002383856,0.29989999997616223,0.3166000000238398,0.3336000000238357,0.35019999998807805,0.3666999999880858,0.38339999997616303,0.4001000000238406,0.41680000001191786,0.4334999999999951,0.45010000002383777,0.4666999999880801,0.483699999988076,0.5006999999880861,0.5166999999880773,0.5336999999880732,0.5503000000119158,0.5670000000000073,0.5838000000119195,0.6003999999761618,0.617199999988074,0.6336999999880817,0.6506999999880776,0.6673000000119202,0.683800000011928,0.7006000000238402,0.7171000000238479,0.7338000000119251,0.7505000000000024,0.7673000000119288,0.7838999999761569,0.8006000000238487,0.8171000000238422,0.8343000000119218,0.8504999999999967,0.8673999999761577,0.8840000000000003,0.9009999999999962,0.9173000000119202,0.9341999999880812,0.9511000000238425,0.9675000000000011,0.9841000000238438,1.000800000011921,1.017800000011917,1.034699999988078,1.0508999999761528,1.0678000000119283,1.0843000000119218,1.1011999999880828,1.1178000000119255,1.1343999999761536,1.151300000011915]",6,0,6,0,1,0.3502,,,,
SSS,2024-10-24_08h33.30.766,GoFitts,2023.2.3,Win32,59.88023952,"[-10.41466638073868,99.08893161548721]","[30.788828246263837,-94.7582698224427]",32,199.2694823,3.75,0,0.7007,"[-7,-7,-7,-7,-7,-7,-7,-7,-7,-7,-7,-7,-7,-7,-7,-7,-7,-7,-2,4,12,24,59,93,122,136,136,136,132,124,114,108,100,95,92,90,87,85,78,68,59,49,42,41,41,41,41,41,41,41,41,41,41,41,41,41,41,41,41,41,41,41,41,41,41,41,41,41,41,41,41,41,41]","[94,94,94,94,94,94,94,94,94,94,94,94,94,94,94,94,94,94,81,64,25,-12,-72,-108,-129,-138,-138,-138,-135,-131,-128,-126,-125,-124,-124,-123,-122,-122,-119,-115,-111,-105,-101,-100,-99,-99,-99,-99,-99,-99,-99,-99,-99,-99,-99,-99,-99,-99,-99,-99,-99,-99,-99,-99,-99,-99,-99,-99,-99,-99,-99,-99,-99]","[0,0,0,0,0,0,0,0,0,0,0,0,0,0,0,0,0,0,0,0,0,0,0,0,0,0,0,0,0,0,0,0,0,0,0,0,0,0,0,0,0,0,0,0,0,0,0,0,0,0,1,1,1,1,1,0,0,0,0,1,1,1,1,0,0,0,0,0,0,0,0,0,0]","[0,0,0,0,0,0,0,0,0,0,0,0,0,0,0,0,0,0,0,0,0,0,0,0,0,0,0,0,0,0,0,0,0,0,0,0,0,0,0,0,0,0,0,0,0,0,0,0,0,0,0,0,0,0,0,0,0,0,0,0,0,0,0,0,0,0,0,0,0,0,0,0,0]","[0,0,0,0,0,0,0,0,0,0,0,0,0,0,0,0,0,0,0,0,0,0,0,0,0,0,0,0,0,0,0,0,0,0,0,0,0,0,0,0,0,0,0,0,0,0,0,0,0,0,0,0,0,0,0,0,0,0,0,0,0,0,0,0,0,0,0,0,0,0,0,0,0]","[0,0.01580000001192161,0.03270000004769713,0.04930000001192525,0.06610000002385163,0.08300000000001262,0.0993000000119224,0.11590000003576506,0.13270000004769145,0.14930000001193378,0.16610000002384595,0.1827000000476886,0.1996000000238496,0.21630000001192684,0.23320000004768815,0.2505000000000024,0.2662000000476894,0.28290000003576665,0.29990000003577677,0.31630000001192116,0.3332000000476967,0.3498000000119248,0.36640000003576745,0.3831000000238447,0.39980000001192195,0.4165000000000134,0.43310000002384186,0.4503000000119215,0.4666000000238455,0.48330000001192275,0.5,0.5166000000238427,0.5335000000000036,0.5501000000238463,0.566700000047689,0.5834000000357662,0.6001000000238434,0.6169000000357698,0.6336000000238471,0.6503000000119243,0.666900000035767,0.6836000000238442,0.7007000000476893,0.7171000000238479,0.7338000000119251,0.7502000000476841,0.7669000000357755,0.7839000000357714,0.8006000000238487,0.8170000000000073,0.8339000000357686,0.8506000000238458,0.8671000000238536,0.8838000000119308,0.9005000000000081,0.9176000000238531,0.9342000000476958,0.9506000000238544,0.967200000047697,0.9840000000000089,1.0005000000000024,1.0174000000357637,1.034000000000006,1.0508000000119324,1.0679000000357632,1.0841000000238523,1.1009000000357645,1.1177000000476909,1.1341000000238495,1.1508000000119267,1.1676000000238531,1.184700000047684,1.2010000000000076]",7,0,7,0,1,0.2998,,,,
SSS,2024-10-24_08h33.30.766,GoFitts,2023.2.3,Win32,59.88023952,"[30.788828246263837,-94.7582698224427]","[-49.817370576237714,86.2862169375306]",32,199.2694823,3.75,0,0.7172,"[41,41,41,41,41,41,41,41,41,41,41,41,41,41,41,41,41,41,41,40,36,28,20,4,-8,-18,-21,-22,-22,-22,-22,-21,-21,-21,-21,-21,-21,-24,-30,-37,-42,-42,-43,-43,-43,-43,-43,-43,-43,-43,-43,-43,-43,-43,-43,-43,-43,-43,-43,-43,-43,-43,-43,-43,-43,-43,-43,-43,-43,-43,-43,-43,-43,-43]","[-99,-99,-99,-99,-99,-99,-99,-99,-99,-99,-99,-99,-99,-99,-99,-99,-99,-99,-99,-99,-91,-67,-43,-2,22,42,48,52,53,56,58,61,65,66,67,67,67,67,67,67,69,69,70,72,74,75,76,76,76,76,76,76,76,76,76,76,76,75,75,74,73,73,72,72,72,72,72,72,72,72,72,72,72,72]","[0,0,0,0,0,0,0,0,0,0,0,0,0,0,0,0,0,0,0,0,0,0,0,0,0,0,0,0,0,0,0,0,0,0,0,0,0,0,0,0,0,0,0,0,0,0,0,0,0,1,1,1,1,1,0,0,0,1,1,1,0,0,0,0,0,0,0,0,0,0,0,0,0,0]","[0,0,0,0,0,0,0,0,0,0,0,0,0,0,0,0,0,0,0,0,0,0,0,0,0,0,0,0,0,0,0,0,0,0,0,0,0,0,0,0,0,0,0,0,0,0,0,0,0,0,0,0,0,0,0,0,0,0,0,0,0,0,0,0,0,0,0,0,0,0,0,0,0,0]","[0,0,0,0,0,0,0,0,0,0,0,0,0,0,0,0,0,0,0,0,0,0,0,0,0,0,0,0,0,0,0,0,0,0,0,0,0,0,0,0,0,0,0,0,0,0,0,0,0,0,0,0,0,0,0,0,0,0,0,0,0,0,0,0,0,0,0,0,0,0,0,0,0,0]","[0,0.016199999988074865,0.03290000003576665,0.049199999988076115,0.0660000000000025,0.08260000002384515,0.09940000003575733,0.11630000001191831,0.13290000003576097,0.14960000002383822,0.16599999999999682,0.18299999999999272,0.19940000003576586,0.2161000000238431,0.23280000001192036,0.2494999999999976,0.2669000000357613,0.283199999988085,0.2996000000238439,0.3165000000000049,0.33330000001191706,0.3499000000357597,0.36660000002383697,0.3831999999880793,0.3999000000357569,0.4166000000238341,0.4333000000119256,0.45000000000000284,0.46649999999999636,0.483100000023839,0.5006000000238373,0.5168000000119264,0.5333000000119199,0.550400000035765,0.5668000000119235,0.5833000000119171,0.6001000000238434,0.6169000000357556,0.633499999999998,0.6501000000238406,0.6668000000119179,0.6836000000238442,0.7003000000119215,0.7171999999880825,0.7336000000238414,0.7506000000238373,0.7669999999999959,0.7836000000238386,0.8003000000119158,0.8171000000238422,0.8338000000119195,0.8504000000357621,0.8674999999999926,0.8841999999880841,0.9004999999999939,0.9173000000119202,0.9339000000357629,0.9508000000119239,0.9671999999880825,0.9841000000238438,1.0006000000238373,1.0176000000238474,1.0344999999999942,1.0511999999880715,1.0674000000357609,1.0843000000119218,1.1008000000119154,1.117400000035758,1.1344000000357681,1.1509999999999962,1.1676999999880735,1.1843000000119162,1.2011999999880771,1.217600000023836]",8,0,8,0,1,0.3499,,,,
SSS,2024-10-24_08h33.30.766,GoFitts,2023.2.3,Win32,59.88023952,"[-49.817370576237714,86.2862169375306]","[66.66865476176382,-74.04304232524171]",32,199.2694823,3.75,0,0.7509,"[-43,-43,-43,-43,-43,-43,-43,-43,-43,-43,-45,-45,-46,-46,-46,-46,-46,-46,-46,-46,-46,-46,-46,-44,-40,-34,-26,-9,6,18,29,35,39,40,43,43,43,43,43,44,45,46,46,50,51,66,71,71,71,71,71,71,71,71,71,71,71,71,71,71,71,71,71,71,71,71,71,71,71,70,70,70,70,70,70,70]","[72,72,72,72,72,73,75,76,78,80,83,84,85,85,85,85,85,85,85,85,85,85,85,83,80,75,68,47,21,1,-25,-45,-67,-73,-80,-80,-80,-80,-80,-80,-80,-80,-80,-80,-80,-79,-78,-78,-78,-78,-78,-78,-78,-78,-78,-78,-77,-77,-77,-77,-77,-77,-77,-77,-77,-77,-77,-77,-77,-77,-77,-77,-77,-77,-77,-77]","[0,0,0,0,0,0,0,0,0,0,0,0,0,0,0,0,1,1,0,0,0,0,0,0,0,0,0,0,0,0,0,0,0,0,0,0,0,0,0,0,0,0,0,0,0,0,0,0,0,1,1,1,1,0,0,0,0,0,0,0,1,1,0,0,0,0,0,0,0,0,0,0,0,0,0,0]","[0,0,0,0,0,0,0,0,0,0,0,0,0,0,0,0,0,0,0,0,0,0,0,0,0,0,0,0,0,0,0,0,0,0,0,0,0,0,0,0,0,0,0,0,0,0,0,0,0,0,0,0,0,0,0,0,0,0,0,0,0,0,0,0,0,0,0,0,0,0,0,0,0,0,0,0]","[0,0,0,0,0,0,0,0,0,0,0,0,0,0,0,0,0,0,0,0,0,0,0,0,0,0,0,0,0,0,0,0,0,0,0,0,0,0,0,0,0,0,0,0,0,0,0,0,0,0,0,0,0,0,0,0,0,0,0,0,0,0,0,0,0,0,0,0,0,0,0,0,0,0,0,0]","[0,0.016199999988074865,0.032699999988082595,0.04939999997615985,0.0660000000000025,0.08289999997614927,0.09960000002384106,0.11630000001191831,0.13289999997616064,0.14960000002383822,0.16630000001191547,0.18299999999999272,0.19960000002383538,0.21649999999999636,0.2330000000000041,0.24980000001191627,0.2664999999999935,0.2833000000119199,0.2998000000119134,0.3166000000238398,0.33310000002383333,0.3499999999999943,0.36650000000000205,0.3836000000238329,0.3999999999999915,0.41680000001191786,0.4333999999761602,0.45010000002383777,0.4666999999880801,0.48339999997615735,0.5001000000238349,0.516899999976161,0.5335000000000036,0.5503000000119158,0.5668999999761581,0.5835000000000008,0.60089999997615,0.6171000000238394,0.6338000000119166,0.6503999999761589,0.6673999999761548,0.6836999999880788,0.7003000000119215,0.7171000000238337,0.7338999999761597,0.7508999999761556,0.7671999999880796,0.7838000000119223,0.8006999999880833,0.8173999999761605,0.833899999976154,0.8504999999999967,0.8673999999761577,0.8840000000000003,0.9006999999880776,0.917500000000004,0.9343000000119162,0.9514999999999958,0.967399999976152,0.9841999999880784,1.0010000000000048,1.0176000000238332,1.034100000023841,1.051000000000002,1.067800000011914,1.0843000000119218,1.1011999999880828,1.1184999999999974,1.1343999999761536,1.1513999999761495,1.1678999999761572,1.1843999999761508,1.2011000000238425,1.2184999999999917,1.2348000000119157,1.2511999999880743]",9,0,9,0,1,0.4168,,,,
SSS,2024-10-24_08h33.30.766,GoFitts,2023.2.3,Win32,59.88023952,"[66.66865476176382,-74.04304232524171]","[-80.60619882250158,58.56383146540306]",32,199.2694823,3.75,0,0.4001,"[70,70,70,70,70,70,70,70,70,70,70,70,70,70,70,70,70,69,66,49,33,-7,-37,-49,-71,-79,-80,-80,-80,-81,-82,-83,-83,-84,-84,-84,-84,-84,-83,-82,-80,-80,-80,-80,-80,-80,-80,-80,-80,-80,-80,-80,-80,-80,-80]","[-77,-77,-77,-77,-77,-77,-77,-77,-77,-77,-77,-77,-77,-77,-77,-77,-77,-75,-71,-54,-37,-1,25,35,57,66,70,71,71,71,72,72,72,72,72,72,70,67,61,58,56,55,55,55,55,55,55,55,55,55,55,55,55,55,55]","[0,0,0,0,0,0,0,0,0,0,0,0,0,0,0,0,0,0,0,0,0,0,0,0,0,0,0,0,0,0,0,0,0,0,0,0,0,0,0,0,0,0,0,0,0,0,1,1,1,0,0,0,0,0,1]","[0,0,0,0,0,0,0,0,0,0,0,0,0,0,0,0,0,0,0,0,0,0,0,0,0,0,0,0,0,0,0,0,0,0,0,0,0,0,0,0,0,0,0,0,0,0,0,0,0,0,0,0,0,0,0]","[0,0,0,0,0,0,0,0,0,0,0,0,0,0,0,0,0,0,0,0,0,0,0,0,0,0,0,0,0,0,0,0,0,0,0,0,0,0,0,0,0,0,0,0,0,0,0,0,0,0,0,0,0,0,0]","[0,0.016199999988074865,0.03259999996423346,0.049299999952310714,0.06589999997615337,0.08259999996423062,0.099399999976157,0.11599999999999966,0.13259999996422778,0.14929999995230503,0.16599999999999682,0.18299999999999272,0.19939999997615132,0.21649999999999636,0.2332999999523082,0.2500999999642346,0.26619999998807486,0.28300000000000125,0.2996999999880785,0.31639999997615575,0.3328999999761493,0.34969999998807566,0.366299999952318,0.38309999996423016,0.40009999996422607,0.4164999999999992,0.43319999998807646,0.44999999999998863,0.46639999997614723,0.4831999999880736,0.49979999995231594,0.5164999999999935,0.5332999999523054,0.5500999999642318,0.5669999999999931,0.5832999999523167,0.6000999999642289,0.6168999999761553,0.6333999999761488,0.6501999999880752,0.6668999999761525,0.6833999999761602,0.7000999999642374,0.7167999999523147,0.733699999988076,0.7503999999761533,0.7669999999999959,0.7835999999642382,0.8004999999999995,0.8170999999642277,0.8335999999642354,0.8503999999761476,0.8672999999523086,0.8836999999880675,0.9005999999642285]",10,0,10,0,1,0.3164,,,,
SSS,2024-10-24_08h33.30.766,GoFitts,2023.2.3,Win32,59.88023952,"[-80.60619882250158,58.56383146540306]","[91.02086520324029,-40.52510015008415]",32,199.2694823,3.75,0,0.9009,"[-80,-80,-80,-80,-80,-80,-80,-80,-80,-80,-80,-78,-78,-77,-77,-75,-66,-47,0,59,132,158,163,163,155,147,142,139,138,136,134,132,128,125,124,121,118,114,112,111,110,110,110,110,110,110,110,110,110,110,110,110,110,110,107,105,102,98,97,95,95,95,95,95,95,95,95,95,95,95,95,95,95,95,95,95,95,95,95,95,95,95,95,95,95]","[55,55,55,55,55,55,55,55,55,55,55,54,54,53,53,52,49,41,21,-4,-37,-52,-57,-58,-58,-55,-53,-51,-51,-51,-50,-50,-49,-48,-47,-46,-44,-43,-42,-41,-41,-41,-41,-41,-41,-41,-41,-41,-41,-41,-41,-41,-41,-41,-41,-41,-41,-41,-41,-41,-41,-41,-41,-41,-41,-41,-41,-41,-41,-41,-41,-41,-41,-41,-41,-41,-41,-41,-41,-41,-41,-41,-41,-41,-41]","[1,1,1,0,0,0,0,0,0,0,0,0,0,0,0,0,0,0,0,0,0,0,0,0,0,0,0,0,0,0,0,0,0,0,0,0,0,0,0,0,0,0,0,0,1,1,1,0,0,0,0,0,0,0,0,0,0,0,0,0,0,0,1,1,1,1,1,0,0,0,1,1,1,0,0,0,0,0,0,0,0,0,0,0,0]","[0,0,0,0,0,0,0,0,0,0,0,0,0,0,0,0,0,0,0,0,0,0,0,0,0,0,0,0,0,0,0,0,0,0,0,0,0,0,0,0,0,0,0,0,0,0,0,0,0,0,0,0,0,0,0,0,0,0,0,0,0,0,0,0,0,0,0,0,0,0,0,0,0,0,0,0,0,0,0,0,0,0,0,0,0]","[0,0,0,0,0,0,0,0,0,0,0,0,0,0,0,0,0,0,0,0,0,0,0,0,0,0,0,0,0,0,0,0,0,0,0,0,0,0,0,0,0,0,0,0,0,0,0,0,0,0,0,0,0,0,0,0,0,0,0,0,0,0,0,0,0,0,0,0,0,0,0,0,0,0,0,0,0,0,0,0,0,0,0,0,0]","[0,0.015999999999991132,0.032699999988068384,0.04930000001191104,0.06599999999998829,0.08259999996423062,0.09989999997615939,0.11609999996423426,0.13280000001191183,0.1495999999642379,0.1665999999642338,0.18299999999999272,0.19950000000000045,0.21639999997614723,0.2330999999642387,0.24980000001191627,0.2664999999999935,0.28309999996423585,0.299899999976148,0.31639999997615575,0.333099999964233,0.3498000000119106,0.36669999998807157,0.3833000000119142,0.3999999999999915,0.4166999999880687,0.43319999998807646,0.44999999999998863,0.4666999999880801,0.48330000001190854,0.5000999999642346,0.5165999999642281,0.5333000000119199,0.5500999999642318,0.5670999999642277,0.5835000000000008,0.600199999988078,0.6169999999999902,0.6335999999642326,0.6503000000119101,0.6673999999761548,0.6834999999999951,0.7001999999880724,0.7169999999999987,0.7335999999642269,0.7506999999880719,0.7669999999999959,0.7838000000119223,0.8006999999880691,0.8171999999880768,0.8338000000119195,0.8505999999642313,0.8670999999642248,0.8838000000119166,0.9008999999761471,0.9173999999761548,0.9343000000119162,0.9508000000119097,0.9675000000000011,0.9845999999642316,1.000699999988072,1.0173999999761492,1.0341999999880755,1.0515999999642247,1.067800000011914,1.0841999999880727,1.10089999997615,1.1175999999642272,1.134300000011919,1.1508999999761471,1.1678000000119084,1.184999999999988,1.2009999999999934,1.2178999999761544,1.2348000000119157,1.2510999999642252,1.2680999999642353,1.2848000000119129,1.30149999999999,1.317800000011914,1.334599999964226,1.3513000000119177,1.3684999999999974,1.3853000000119096,1.401300000011915]",11,0,11,0,1,0.2665,,,,
SSS,2024-10-24_08h33.30.766,GoFitts,2023.2.3,Win32,59.88023952,"[91.02086520324029,-40.52510015008415]","[-97.45748300802765,20.71522749720096]",32,199.2694823,3.75,0,0.7007,"[95,95,95,95,95,95,94,93,91,90,90,90,90,90,90,90,88,82,66,34,-17,-52,-77,-92,-94,-94,-93,-92,-92,-92,-91,-90,-88,-87,-86,-86,-86,-86,-86,-86,-85,-85,-86,-87,-90,-91,-92,-92,-92,-92,-92,-92,-92,-92,-92,-92,-92,-92,-92,-92,-92,-92,-92,-92,-92,-92,-92,-92,-92,-92,-92,-92,-92]","[-41,-41,-41,-41,-41,-41,-41,-41,-41,-40,-40,-40,-40,-40,-40,-38,-35,-30,-24,-15,-4,1,4,5,5,5,5,5,5,5,5,5,5,5,4,4,4,4,4,4,6,9,11,13,17,20,22,22,22,23,23,23,23,23,23,23,23,23,23,23,23,23,23,23,23,23,23,23,23,23,23,23,23]","[0,0,0,0,0,0,0,0,0,0,0,0,0,0,0,0,0,0,0,0,0,0,0,0,0,0,0,0,0,0,0,0,0,0,0,0,0,0,0,0,0,0,0,0,0,0,0,0,0,0,0,0,1,1,1,1,1,0,0,0,0,1,1,1,0,0,0,0,0,0,0,0,0]","[0,0,0,0,0,0,0,0,0,0,0,0,0,0,0,0,0,0,0,0,0,0,0,0,0,0,0,0,0,0,0,0,0,0,0,0,0,0,0,0,0,0,0,0,0,0,0,0,0,0,0,0,0,0,0,0,0,0,0,0,0,0,0,0,0,0,0,0,0,0,0,0,0]","[0,0,0,0,0,0,0,0,0,0,0,0,0,0,0,0,0,0,0,0,0,0,0,0,0,0,0,0,0,0,0,0,0,0,0,0,0,0,0,0,0,0,0,0,0,0,0,0,0,0,0,0,0,0,0,0,0,0,0,0,0,0,0,0,0,0,0,0,0,0,0,0,0]","[0,0.015999999999991132,0.032699999988068384,0.04930000001191104,0.0660999999642371,0.08289999997614927,0.09969999998807566,0.11630000001191831,0.13289999997614643,0.14999999999999147,0.16619999998806634,0.182800000011909,0.19959999996423505,0.21639999997614723,0.23309999996422448,0.24980000001191627,0.2668000000119122,0.28309999996423585,0.299899999976148,0.3165999999642253,0.33319999998806793,0.3498999999761452,0.36659999996423664,0.3831999999880793,0.3999999999999915,0.4164999999999992,0.4335999999642297,0.45019999998807236,0.466800000011915,0.48339999997615735,0.5001999999880695,0.5168000000119122,0.5334999999999894,0.5500999999642318,0.5668999999761581,0.5835999999642354,0.600300000011913,0.6169999999999902,0.6335999999642326,0.6503000000119101,0.6671999999880711,0.6838000000119138,0.7006999999880748,0.7170999999642333,0.7338000000119109,0.7504999999999882,0.7671999999880796,0.7838999999761569,0.8006999999880691,0.8173999999761463,0.833899999976154,0.8505999999642313,0.8673000000119089,0.8840999999642349,0.9005999999642285,0.9173000000119202,0.9339999999999975,0.9506999999880748,0.9675999999642357,0.9840999999642293,1.000699999988072,1.017599999964233,1.0343000000119105,1.0508999999761528,1.06759999996423,1.0841999999880727,1.10089999997615,1.1176999999880763,1.134300000011919,1.1509999999999962,1.1676999999880735,1.1843000000119162,1.201099999964228]",12,0,12,0,1,0.2999,,,,
SSS,2024-10-24_08h33.30.766,GoFitts,2023.2.3,Win32,59.88023952,"[-97.45748300802765,20.71522749720096]","[99.63474115247547,0]",32,199.2694823,3.75,0,0.5842,"[-92,-92,-92,-92,-92,-92,-92,-92,-89,-86,-81,-70,-60,-41,-19,22,40,78,89,93,93,93,93,93,92,91,91,91,91,91,91,91,91,90,90,90,90,90,90,90,90,90,90,90,90,90,90,90,90,90,90,90,90,90,90,90,90,90,90,90,90,90,90,90,90,90]","[23,23,23,23,23,23,23,23,23,23,23,24,24,24,24,24,24,24,24,24,24,24,24,24,24,23,23,22,22,22,21,20,18,16,14,12,11,11,11,11,11,11,11,11,11,11,11,11,11,11,11,11,11,11,11,11,11,11,11,11,11,11,11,11,11,11]","[0,0,0,0,0,0,0,0,0,0,0,0,0,0,0,0,0,0,0,0,0,0,0,0,0,0,0,0,0,0,0,0,0,0,0,0,0,0,0,0,0,0,1,1,1,0,0,0,0,0,1,1,1,0,0,0,0,0,0,0,0,0,0,0,0,0]","[0,0,0,0,0,0,0,0,0,0,0,0,0,0,0,0,0,0,0,0,0,0,0,0,0,0,0,0,0,0,0,0,0,0,0,0,0,0,0,0,0,0,0,0,0,0,0,0,0,0,0,0,0,0,0,0,0,0,0,0,0,0,0,0,0,0]","[0,0,0,0,0,0,0,0,0,0,0,0,0,0,0,0,0,0,0,0,0,0,0,0,0,0,0,0,0,0,0,0,0,0,0,0,0,0,0,0,0,0,0,0,0,0,0,0,0,0,0,0,0,0,0,0,0,0,0,0,0,0,0,0,0,0]","[0,0.0162000000476894,0.03350000000000364,0.04949999999999477,0.06630000001192116,0.08280000001191468,0.09960000002384106,0.11630000001191831,0.13320000004767962,0.15000000000000568,0.16680000001191786,0.183200000047691,0.1998000000119191,0.21649999999999636,0.23320000004768815,0.2499000000357654,0.2667000000476776,0.2833000000119199,0.3001000000238463,0.31680000001192354,0.33330000001191706,0.3499999999999943,0.3667000000476861,0.3833000000119142,0.40020000004768974,0.416900000035767,0.4334000000357605,0.4502000000476869,0.466800000011915,0.4836000000238414,0.5004000000357678,0.51720000004768,0.5338000000119223,0.5504999999999995,0.5672000000476771,0.5842000000476872,0.6004000000357621,0.6170000000000044,0.6340000000000003,0.6511000000238454,0.6671000000238365,0.6841000000238466,0.7006000000238402,0.7174000000357665,0.7339000000357601,0.7505000000000024,0.7674000000357637,0.7842000000476901,0.801200000047686,0.8174999999999955,0.8340000000000032,0.8509999999999991,0.8675000000000068,0.8842000000476844,0.9009999999999962,0.9174000000357694,0.9342000000476816,0.9509000000357588,0.9675000000000011,0.9843000000119275,1.0010000000000048,1.0177000000476824,1.0343000000119247,1.0511000000238369,1.0677000000476795,1.0846000000238405]",13,0,13,0,1,0.1668,,,,
SSS,2024-10-24_08h33.30.766,GoFitts,2023.2.3,Win32,59.88023952,"[99.63474115247547,0]","[-97.45748300802765,-20.715227497200935]",32,199.2694823,3.75,0,0.7341,"[90,90,90,90,90,90,90,90,90,90,90,90,90,90,90,90,90,90,90,90,90,83,68,44,-7,-38,-60,-64,-64,-64,-64,-64,-64,-64,-64,-64,-64,-64,-64,-65,-66,-70,-74,-80,-88,-89,-89,-89,-89,-89,-89,-89,-89,-89,-89,-89,-89,-89,-89,-89,-88,-88,-88,-88,-88,-88,-88,-87,-87,-87,-87,-87,-87,-87,-87]","[11,11,10,10,10,10,10,10,10,10,10,10,10,10,10,10,10,10,10,10,9,8,5,2,-2,-5,-8,-8,-8,-8,-9,-9,-9,-9,-9,-9,-9,-9,-9,-10,-10,-12,-14,-15,-17,-17,-17,-17,-18,-18,-18,-18,-18,-18,-18,-18,-18,-18,-18,-18,-18,-18,-18,-18,-18,-18,-18,-18,-18,-18,-18,-18,-18,-18,-18]","[0,0,0,0,0,0,0,0,0,0,0,0,0,0,0,0,0,0,0,0,0,0,0,0,0,0,0,0,0,0,0,0,0,0,0,0,0,0,0,0,0,0,0,0,0,0,0,0,0,0,0,0,0,1,1,1,1,1,0,0,0,0,1,1,1,0,0,0,0,0,0,0,0,0,0]","[0,0,0,0,0,0,0,0,0,0,0,0,0,0,0,0,0,0,0,0,0,0,0,0,0,0,0,0,0,0,0,0,0,0,0,0,0,0,0,0,0,0,0,0,0,0,0,0,0,0,0,0,0,0,0,0,0,0,0,0,0,0,0,0,0,0,0,0,0,0,0,0,0,0,0]","[0,0,0,0,0,0,0,0,0,0,0,0,0,0,0,0,0,0,0,0,0,0,0,0,0,0,0,0,0,0,0,0,0,0,0,0,0,0,0,0,0,0,0,0,0,0,0,0,0,0,0,0,0,0,0,0,0,0,0,0,0,0,0,0,0,0,0,0,0,0,0,0,0,0,0]","[0,0.016299999952323674,0.03289999997616633,0.04939999997615985,0.06629999995232083,0.08289999997616349,0.09929999995232208,0.11609999996424847,0.13300000000000978,0.1495000000000033,0.16609999996424563,0.18279999995232288,0.19979999995231879,0.21619999998809192,0.23289999997616917,0.24979999995231594,0.26650000000000773,0.28359999996423824,0.30000000000001137,0.31639999997616997,0.33319999998808214,0.3500000000000085,0.3666999999880858,0.3832999999523281,0.39989999997617076,0.416599999964248,0.43329999995232527,0.4498999999761679,0.46659999996424517,0.4831999999880878,0.5000999999642488,0.5167999999523261,0.5335999999642382,0.5502999999523155,0.5670999999642419,0.5835000000000008,0.6001999999880923,0.6167999999523204,0.633399999976163,0.650299999952324,0.6668999999761667,0.6836999999880788,0.7005000000000052,0.7171999999880825,0.7340999999642435,0.7503999999761675,0.7670000000000101,0.7841999999880898,0.8005999999642484,0.8173999999761605,0.8336999999880845,0.8505999999642455,0.8671999999880882,0.8840000000000003,0.9006999999880918,0.9171999999880853,0.9338999999761626,0.9505999999642398,0.9672999999523171,0.9840999999642435,1.0007999999523207,1.0173999999761634,1.0341999999880898,1.0507999999523179,1.0675000000000097,1.084199999988087,1.1010000000000133,1.11789999997616,1.1342999999523187,1.1510000000000105,1.1678999999761714,1.1842999999523158,1.2010000000000076,1.2176999999880849,1.2345000000000113]",14,0,14,0,1,0.35,,,,
SSS,2024-10-24_08h33.30.766,GoFitts,2023.2.3,Win32,59.88023952,,,,,,0,,,,,,,,,,,,,,0,0,0,1
SSS,2024-10-24_08h33.30.766,GoFitts,2023.2.3,Win32,59.88023952,"[76,-3]","[316.7389483770105,351.7742400013455]",24,946.7178616,6.32,1,1.4012,"[76,76,76,76,76,76,76,76,76,76,76,76,76,76,76,76,77,78,80,82,82,83,83,83,83,83,84,84,79,77,76,76,76,76,76,76,76,76,79,79,80,85,88,95,100,100,97,94,102,129,169,259,326,364,377,380,378,364,347,324,311,310,310,311,311,310,308,306,305,300,299,299,299,301,303,303,303,303,303,305,307,310,311,312,314,317,317,317,317,318,319,319,319,319,319,320,320,320,320,320,320,320,320,320,320,320,320,321,322,322,322,322,322,323,323]","[-3,-3,-3,-3,-3,-3,-3,-3,-3,-3,-3,-3,-3,-3,-3,-3,-3,-4,-5,-6,-6,-6,-6,-6,-6,-6,-7,-8,-16,-20,-23,-23,-23,-23,-23,-23,-23,-19,-14,-14,-14,-14,-14,-10,5,9,19,42,60,77,90,109,128,150,169,201,214,234,246,252,252,252,251,251,252,255,260,266,278,295,302,304,306,311,318,320,321,321,321,323,326,330,333,336,341,346,348,348,348,348,349,349,349,349,349,349,349,349,349,349,349,349,349,349,349,349,349,349,349,349,349,349,349,348,348]","[0,0,0,0,0,0,0,0,0,0,0,0,0,0,0,0,0,0,0,0,0,0,0,0,0,0,0,0,0,0,0,0,0,0,0,0,0,0,0,0,0,0,0,0,0,0,0,0,0,0,0,0,0,0,0,0,0,0,0,0,0,0,0,0,0,0,0,0,0,0,0,0,0,0,0,0,0,0,0,0,0,0,0,0,0,0,0,0,0,0,1,1,1,1,1,0,0,0,0,1,1,1,1,0,0,0,0,0,0,0,0,0,0,0,0]","[0,0,0,0,0,0,0,0,0,0,0,0,0,0,0,0,0,0,0,0,0,0,0,0,0,0,0,0,0,0,0,0,0,0,0,0,0,0,0,0,0,0,0,0,0,0,0,0,0,0,0,0,0,0,0,0,0,0,0,0,0,0,0,0,0,0,0,0,0,0,0,0,0,0,0,0,0,0,0,0,0,0,0,0,0,0,0,0,0,0,0,0,0,0,0,0,0,0,0,0,0,0,0,0,0,0,0,0,0,0,0,0,0,0,0]","[0,0,0,0,0,0,0,0,0,0,0,0,0,0,0,0,0,0,0,0,0,0,0,0,0,0,0,0,0,0,0,0,0,0,0,0,0,0,0,0,0,0,0,0,0,0,0,0,0,0,0,0,0,0,0,0,0,0,0,0,0,0,0,0,0,0,0,0,0,0,0,0,0,0,0,0,0,0,0,0,0,0,0,0,0,0,0,0,0,0,0,0,0,0,0,0,0,0,0,0,0,0,0,0,0,0,0,0,0,0,0,0,0,0,0]","[0,0.015300000011919224,0.031800000011926954,0.048500000000004206,0.06550000000000011,0.08189999997615871,0.0986999999880851,0.11549999999999727,0.13219999998807452,0.14869999998808225,0.16550000000000864,0.18259999996423915,0.19939999997616553,0.2155999999642404,0.23219999998808305,0.24899999999999523,0.2658000000119216,0.28239999997616394,0.2990999999642412,0.31580000001191877,0.3323999999761611,0.3491999999880875,0.365699999988081,0.38239999997615826,0.3990999999642355,0.41569999998807816,0.43259999996423915,0.44939999997616553,0.4660000000000082,0.48269999998808544,0.4994999999999976,0.5160999999642399,0.5325999999642335,0.5499999999999972,0.5660000000000025,0.5826999999880798,0.599399999976157,0.6161999999880834,0.6328999999761606,0.6495999999642379,0.6663999999761643,0.6831999999880765,0.699599999964235,0.7164999999999964,0.732899999976155,0.7496999999880813,0.7665000000000077,0.7830999999642358,0.7996999999880785,0.8165000000000049,0.8333000000119171,0.8500999999642431,0.8665999999642366,0.8831999999880793,0.8998999999761566,0.9164999999999992,0.9333000000119256,0.9500999999642374,0.9668000000119292,0.9833999999761573,1.0001999999880837,1.0170999999642447,1.0335000000000036,1.0504999999999995,1.0668999999761581,1.0835000000000008,1.100199999988078,1.1170000000000044,1.1335999999642326,1.1503000000119243,1.1668999999761667,1.1836999999880788,1.2005000000000052,1.2170999999642333,1.2338000000119251,1.2505000000000024,1.2674999999999983,1.2838000000119223,1.3003999999761646,1.3171999999880768,1.333899999976154,1.3505999999642455,1.3673999999761577,1.3840000000000003,1.40119999998808,1.4173999999761548,1.434099999964232,1.4505999999642398,1.4673999999761662,1.4841999999880784,1.5006999999880861,1.5178999999761658,1.5340999999642406,1.551000000000002,1.5674999999999955,1.584199999988087,1.6011999999880828,1.6178000000119255,1.634300000011919,1.6509999999999962,1.6676999999880877,1.6843000000119162,1.7010000000000076,1.7178000000119198,1.7345999999642459,1.7510999999642394,1.7685999999642377,1.784800000011927,1.8013000000119206,1.8180999999642324,1.8348999999761588,1.8511999999880828,1.8683000000119279,1.8846999999880865,1.9013999999761637]",0,0,0,0,1,0.2658,,,,
SSS,2024-10-24_08h33.30.766,GoFitts,2023.2.3,Win32,59.88023952,"[316.7389483770105,351.7742400013455]","[-236.6794653891097,-409.94085916217716]",24,946.7178616,6.32,1,1.2182,"[323,323,323,323,323,323,323,323,323,323,323,323,323,323,320,308,275,213,173,44,-55,-126,-185,-205,-206,-206,-206,-207,-210,-212,-214,-214,-214,-214,-216,-220,-224,-224,-225,-226,-226,-226,-227,-227,-227,-227,-227,-227,-227,-227,-227,-227,-227,-227,-227,-227,-227,-227,-227,-227,-227,-227,-227,-227,-227,-227,-227,-227,-227,-227,-227,-228,-228,-229,-229,-230,-231,-231,-232,-233,-234,-234,-234,-234,-234,-234,-234,-234,-234,-234,-234,-234,-234,-234,-234,-234,-234,-234,-234,-234,-234,-234,-234,-234]","[348,347,347,347,347,347,347,347,347,347,347,347,346,344,322,267,181,58,-15,-221,-366,-472,-539,-539,-539,-529,-514,-502,-489,-481,-463,-456,-451,-445,-435,-424,-415,-407,-403,-400,-400,-400,-400,-400,-400,-400,-400,-400,-400,-400,-400,-400,-399,-399,-399,-399,-399,-399,-399,-399,-399,-399,-399,-399,-399,-399,-399,-399,-399,-399,-400,-401,-401,-402,-404,-406,-407,-409,-411,-414,-416,-416,-416,-416,-416,-416,-416,-416,-416,-416,-416,-416,-416,-416,-416,-416,-416,-416,-416,-416,-416,-416,-416,-416]","[0,0,0,0,0,0,0,0,0,0,0,0,0,0,0,0,0,0,0,0,0,0,0,0,0,0,0,0,0,0,0,0,0,0,0,0,0,0,0,0,0,0,0,0,0,0,0,1,1,1,1,1,0,0,0,0,0,0,1,1,1,1,0,0,0,0,0,0,0,0,0,0,0,0,0,0,0,0,0,0,0,0,0,0,0,0,0,0,0,1,1,1,1,1,1,0,0,0,0,1,1,1,1,0]","[0,0,0,0,0,0,0,0,0,0,0,0,0,0,0,0,0,0,0,0,0,0,0,0,0,0,0,0,0,0,0,0,0,0,0,0,0,0,0,0,0,0,0,0,0,0,0,0,0,0,0,0,0,0,0,0,0,0,0,0,0,0,0,0,0,0,0,0,0,0,0,0,0,0,0,0,0,0,0,0,0,0,0,0,0,0,0,0,0,0,0,0,0,0,0,0,0,0,0,0,0,0,0,0]","[0,0,0,0,0,0,0,0,0,0,0,0,0,0,0,0,0,0,0,0,0,0,0,0,0,0,0,0,0,0,0,0,0,0,0,0,0,0,0,0,0,0,0,0,0,0,0,0,0,0,0,0,0,0,0,0,0,0,0,0,0,0,0,0,0,0,0,0,0,0,0,0,0,0,0,0,0,0,0,0,0,0,0,0,0,0,0,0,0,0,0,0,0,0,0,0,0,0,0,0,0,0,0,0]","[0,0.016300000011924,0.032600000023848,0.04930000001192525,0.06660000002383981,0.08320000004768247,0.10030000001192718,0.11599999999999966,0.13280000001192604,0.15000000000000568,0.16620000004768087,0.18300000000000693,0.1997000000476845,0.2166000000238455,0.23320000004768815,0.2499000000357654,0.2664000000357589,0.2832000000476853,0.29990000003576256,0.3165000000000049,0.33310000002384754,0.3499000000357597,0.3666000000238512,0.38330000001192843,0.40030000001192434,0.41660000002384834,0.4334000000357605,0.450100000023852,0.4667000000476804,0.4835000000000065,0.5006000000238515,0.5167000000476918,0.5335000000000036,0.5502000000476812,0.5669000000357727,0.5835000000000008,0.6003000000119272,0.6171000000238394,0.633700000047682,0.6502000000476897,0.6668000000119179,0.6835000000000093,0.7005000000000052,0.7169000000357642,0.7342000000476929,0.7503000000119187,0.767100000023845,0.7839000000357714,0.8006000000238487,0.8177000000476937,0.8341000000238381,0.8504000000357621,0.8674000000357722,0.8839000000357657,0.900600000023843,0.9173000000119202,0.9342000000476816,0.9512000000476917,0.9674000000357665,0.9841000000238438,1.0007000000476864,1.0174000000357637,1.03420000004769,1.0509000000357673,1.0675000000000097,1.0851000000238429,1.1016000000238506,1.1184000000357628,1.1342000000476844,1.1509000000357616,1.167700000047688,1.1844999999999999,1.2011000000238425,1.2182000000476876,1.2346000000238462,1.2511000000238397,1.267900000035766,1.2846000000238433,1.3013000000119206,1.3179999999999978,1.3347000000476896,1.3512000000476831,1.3680000000000092,1.3846000000238519,1.4018000000119173,1.418300000011925,1.434700000047684,1.4519999999999982,1.4682000000476876,1.48480000001193,1.5015000000000072,1.5184000000357685,1.5352000000476806,1.5515000000000043,1.5683000000119307,1.585000000000008,1.602200000047688,1.6184000000357628,1.6350000000000051,1.6518000000119173,1.6685000000000088,1.685300000011921,1.7017000000476799,1.718500000000006]",1,0,1,0,1,0.2332,,,,
SSS,2024-10-24_08h33.30.766,GoFitts,2023.2.3,Win32,59.88023952,"[-236.6794653891097,-409.94085916217716]","[146.27595404962403,450.1910956631317]",24,946.7178616,6.32,1,0.8182,"[-234,-234,-234,-234,-234,-234,-234,-234,-234,-234,-234,-234,-234,-234,-234,-234,-234,-234,-233,-225,-188,-131,-16,35,128,215,244,249,244,244,203,195,188,177,173,168,165,165,164,162,160,157,155,155,153,153,152,150,148,144,143,142,141,141,141,141,141,141,141,141,141,141,141,141,141,141,141,141,141,141,141,141,141,141,141,141,141,141,141,141]","[-416,-416,-416,-416,-416,-416,-416,-416,-416,-416,-416,-416,-416,-416,-416,-416,-416,-416,-411,-391,-317,-227,-75,-12,112,278,397,486,520,520,531,516,501,489,486,482,481,481,481,480,479,478,477,477,476,475,473,471,467,461,457,452,449,448,448,448,448,448,448,448,448,448,448,448,448,448,448,448,448,448,448,448,448,448,448,448,448,448,448,448]","[0,0,0,0,0,0,0,0,0,0,0,0,0,0,0,0,0,0,0,0,0,0,0,0,0,0,0,0,0,0,0,0,0,0,0,0,0,0,0,0,0,0,0,0,0,0,0,0,0,0,0,0,0,0,0,1,1,1,1,1,0,0,0,0,1,1,1,1,0,0,0,0,0,0,0,0,0,0,0,0]","[0,0,0,0,0,0,0,0,0,0,0,0,0,0,0,0,0,0,0,0,0,0,0,0,0,0,0,0,0,0,0,0,0,0,0,0,0,0,0,0,0,0,0,0,0,0,0,0,0,0,0,0,0,0,0,0,0,0,0,0,0,0,0,0,0,0,0,0,0,0,0,0,0,0,0,0,0,0,0,0]","[0,0,0,0,0,0,0,0,0,0,0,0,0,0,0,0,0,0,0,0,0,0,0,0,0,0,0,0,0,0,0,0,0,0,0,0,0,0,0,0,0,0,0,0,0,0,0,0,0,0,0,0,0,0,0,0,0,0,0,0,0,0,0,0,0,0,0,0,0,0,0,0,0,0,0,0,0,0,0,0]","[0,0.016300000011924,0.03309999996425006,0.0496999999880785,0.06700000000000728,0.08380000001193366,0.10039999997616178,0.11669999998808578,0.13309999996424438,0.14980000001192195,0.16669999998808294,0.1833000000119256,0.19980000001193332,0.21689999997616383,0.23330000001192275,0.25030000001193287,0.26669999998809146,0.28350000000000364,0.30009999996424597,0.3170000000000073,0.3333999999761659,0.3500999999642431,0.3668999999761695,0.3836999999880817,0.40050000000000807,0.41689999997616667,0.4335000000000093,0.4503999999761703,0.46700000000001296,0.4835999999642411,0.5005000000000024,0.5173000000119288,0.5338000000119223,0.5505999999642484,0.567199999988091,0.5841999999880869,0.6006999999880804,0.6171999999880882,0.6340999999642492,0.6508000000119267,0.667500000000004,0.6840999999642463,0.7008000000119239,0.7173000000119316,0.7341999999880926,0.750800000011921,0.7675000000000125,0.784599999964243,0.800899999976167,0.8181999999880816,0.8343000000119218,0.8510000000000133,0.8675999999642414,0.8843999999761678,0.9010000000000105,0.9176999999880877,0.9346999999880836,0.9508000000119239,0.9676999999880849,0.9843999999761621,1.0010999999642394,1.017699999988082,1.0343999999761593,1.0510999999642507,1.0678000000119283,1.0845000000000056,1.1013999999761666,1.11789999997616,1.1345999999642373,1.1513000000119291,1.1680000000000064,1.1846999999880836,1.20150000000001,1.2180000000000035,1.2346999999880808,1.251399999976158,1.2683999999761681,1.284800000011927,1.3015000000000043,1.3185000000000002]",2,0,2,0,1,0.3169,,,,
SSS,2024-10-24_08h33.30.766,GoFitts,2023.2.3,Win32,59.88023952,"[146.27595404962403,450.1910956631317]","[-49.47948160826715,-470.7658210270537]",24,946.7178616,6.32,1,0.8841,"[141,141,141,141,141,141,143,144,144,145,146,147,148,148,148,145,130,108,73,44,31,-8,-36,-61,-86,-96,-101,-101,-101,-101,-101,-101,-100,-99,-91,-82,-67,-54,-47,-44,-44,-44,-44,-44,-44,-44,-44,-44,-44,-44,-44,-44,-44,-44,-45,-47,-50,-51,-52,-52,-52,-52,-52,-52,-53,-53,-53,-53,-53,-53,-53,-53,-53,-53,-53,-53,-53,-53,-53,-53,-54,-54,-54,-54]","[448,448,448,448,448,446,442,435,429,425,414,409,399,391,377,357,288,225,122,37,-6,-119,-198,-266,-347,-389,-420,-442,-446,-446,-446,-445,-444,-443,-443,-446,-452,-456,-457,-457,-457,-457,-457,-457,-457,-457,-457,-457,-457,-457,-458,-459,-459,-461,-463,-465,-466,-468,-468,-469,-469,-469,-469,-469,-469,-469,-469,-469,-469,-469,-469,-469,-469,-469,-469,-469,-469,-469,-469,-469,-469,-469,-469,-469]","[0,0,0,0,0,0,0,0,0,0,0,0,0,0,0,0,0,0,0,0,0,0,0,0,0,0,0,0,0,0,0,0,0,0,0,0,0,0,0,0,0,0,0,0,0,0,0,0,0,0,0,0,0,0,0,0,0,0,0,0,0,1,1,1,1,1,0,0,0,0,1,1,1,0,0,0,0,0,0,0,0,0,0,0]","[0,0,0,0,0,0,0,0,0,0,0,0,0,0,0,0,0,0,0,0,0,0,0,0,0,0,0,0,0,0,0,0,0,0,0,0,0,0,0,0,0,0,0,0,0,0,0,0,0,0,0,0,0,0,0,0,0,0,0,0,0,0,0,0,0,0,0,0,0,0,0,0,0,0,0,0,0,0,0,0,0,0,0,0]","[0,0,0,0,0,0,0,0,0,0,0,0,0,0,0,0,0,0,0,0,0,0,0,0,0,0,0,0,0,0,0,0,0,0,0,0,0,0,0,0,0,0,0,0,0,0,0,0,0,0,0,0,0,0,0,0,0,0,0,0,0,0,0,0,0,0,0,0,0,0,0,0,0,0,0,0,0,0,0,0,0,0,0,0]","[0,0.016400000035773132,0.032500000000013074,0.04970000004769304,0.06580000001193298,0.08280000001192889,0.0993000000119224,0.11610000002384879,0.1326000000238423,0.1494000000357687,0.1664000000357646,0.18310000002384186,0.1997000000476845,0.21630000001192684,0.2329000000357695,0.24970000004769588,0.26640000003577313,0.28300000000000125,0.2996000000238439,0.3165000000000049,0.33310000002384754,0.3498000000119248,0.36650000000000205,0.38320000004769383,0.39980000001192195,0.4165000000000134,0.433200000047691,0.44990000003576824,0.4665000000000106,0.4831000000238532,0.4999000000357654,0.5167000000476918,0.5333000000119341,0.5500000000000114,0.566600000023854,0.5834000000357662,0.6000000000000085,0.6167000000476861,0.6333000000119284,0.6500000000000057,0.6667000000476833,0.6836000000238442,0.7003000000119215,0.7168000000119292,0.7334000000357719,0.7503000000119329,0.7670000000000101,0.7836000000238528,0.8002000000476954,0.8173000000119259,0.8338000000119337,0.8504000000357763,0.8669000000357698,0.8842000000476844,0.9004000000357735,0.9171000000238507,0.933800000011928,0.9506000000238544,0.967200000047697,0.9839000000357743,1.0005000000000024,1.0172000000476942,1.0339000000357714,1.0507000000476836,1.0675000000000097,1.0840000000000032,1.100700000047695,1.1175000000000068,1.1340000000000003,1.1508000000119267,1.167500000000004,1.1842000000476958,1.2008000000119239,1.217800000011934,1.2343000000119275,1.2510000000000048,1.2676000000238474,1.2843000000119247,1.301000000000002,1.3179000000357632,1.334400000035771,1.3510000000000133,1.3678000000119255,1.3845000000000027]",3,0,3,0,1,0.1161,,,,
SSS,2024-10-24_08h33.30.766,GoFitts,2023.2.3,Win32,59.88023952,"[-49.47948160826715,-470.7658210270537]","[-49.479481608266724,470.76582102705373]",24,946.7178616,6.32,1,0.8843,"[-54,-54,-54,-54,-54,-54,-54,-54,-54,-54,-55,-56,-56,-58,-60,-61,-66,-69,-61,-46,-29,-19,-19,-23,-26,-36,-46,-57,-75,-86,-91,-93,-93,-88,-87,-81,-77,-73,-66,-64,-63,-63,-63,-63,-63,-63,-64,-64,-64,-63,-62,-61,-58,-55,-51,-49,-49,-48,-48,-48,-47,-47,-47,-47,-47,-47,-47,-47,-47,-47,-47,-47,-47,-47,-47,-47,-47,-47,-47,-47,-47,-47,-47,-47]","[-469,-469,-469,-469,-469,-469,-469,-469,-469,-468,-464,-459,-452,-445,-425,-382,-267,-154,-2,110,206,295,326,343,345,342,331,321,311,305,303,302,304,317,320,332,346,364,387,400,408,411,412,412,412,413,417,421,432,441,447,451,456,462,467,469,471,471,471,472,473,474,474,474,474,474,474,474,474,474,474,474,474,474,474,474,474,474,474,474,474,474,474,474]","[0,0,0,0,0,0,0,0,0,0,0,0,0,0,0,0,0,0,0,0,0,0,0,0,0,0,0,0,0,0,0,0,0,0,0,0,0,0,0,0,0,0,0,0,0,0,0,0,0,0,0,0,0,0,0,0,0,0,0,0,0,1,1,1,1,1,1,0,0,0,0,1,1,1,1,0,0,0,0,0,0,0,0,0]","[0,0,0,0,0,0,0,0,0,0,0,0,0,0,0,0,0,0,0,0,0,0,0,0,0,0,0,0,0,0,0,0,0,0,0,0,0,0,0,0,0,0,0,0,0,0,0,0,0,0,0,0,0,0,0,0,0,0,0,0,0,0,0,0,0,0,0,0,0,0,0,0,0,0,0,0,0,0,0,0,0,0,0,0]","[0,0,0,0,0,0,0,0,0,0,0,0,0,0,0,0,0,0,0,0,0,0,0,0,0,0,0,0,0,0,0,0,0,0,0,0,0,0,0,0,0,0,0,0,0,0,0,0,0,0,0,0,0,0,0,0,0,0,0,0,0,0,0,0,0,0,0,0,0,0,0,0,0,0,0,0,0,0,0,0,0,0,0,0]","[0,0.015999999999991132,0.03289999997615212,0.04939999997614564,0.06610000002383742,0.08280000001191468,0.09960000002384106,0.11630000001191831,0.13280000001191183,0.14969999998807282,0.16630000001191547,0.18299999999999272,0.19969999998806998,0.21649999999999636,0.23310000002383902,0.25,0.2664999999999935,0.2833000000119199,0.299899999976148,0.3166000000238398,0.33330000001191706,0.3498999999761452,0.36660000002383697,0.3833999999761488,0.3999999999999915,0.41680000001191786,0.4334999999999951,0.45019999998807236,0.466800000011915,0.48349999999999227,0.5001999999880695,0.5168000000119122,0.5334999999999894,0.5503000000119158,0.5669999999999931,0.5838000000119195,0.6004999999999967,0.617199999988074,0.6338999999761512,0.6503999999761589,0.6671000000238365,0.6838000000119138,0.700499999999991,0.7171000000238337,0.733699999988076,0.7506000000238373,0.7674999999999983,0.784100000023841,0.8006999999880691,0.8173999999761463,0.8343000000119218,0.8506999999880662,0.8674999999999926,0.884300000011919,0.9006999999880776,0.9173999999761548,0.9341000000238324,0.9509999999999934,0.9676000000238361,0.9843999999761479,1.0009999999999906,1.0176000000238332,1.0343000000119105,1.0508000000119182,1.0676000000238304,1.0846000000238405,1.10089999997615,1.1176999999880763,1.1344999999999885,1.15119999998808,1.1679999999999922,1.1844999999999999,1.2011000000238425,1.2178000000119198,1.234499999999997,1.2511999999880743,1.2680000000000007,1.2846000000238291,1.3013999999761552,1.3181000000238328,1.335399999976147,1.3514999999999873,1.367999999999995,1.3848000000119214]",4,0,4,0,1,0.183,,,,
SSS,2024-10-24_08h33.30.766,GoFitts,2023.2.3,Win32,59.88023952,"[-49.479481608266724,470.76582102705373]","[146.27595404962395,-450.19109566313176]",24,946.7178616,6.32,1,1.0182,"[-47,-47,-47,-47,-47,-47,-47,-47,-47,-47,-47,-47,-47,-47,-47,-47,-46,-46,-43,-32,-20,2,21,44,51,47,30,27,27,32,38,43,46,47,48,48,49,55,58,64,71,76,78,81,88,101,113,122,129,130,131,131,135,143,147,149,149,148,147,146,146,145,144,144,144,144,144,144,144,144,144,144,144,144,144,144,144,144,144,144,144,144,144,144,144,144,144,144,144,144,144,144,144]","[474,474,474,474,474,474,473,473,473,473,473,473,473,473,473,473,472,471,463,432,392,308,221,80,-40,-149,-268,-299,-337,-356,-358,-358,-357,-355,-352,-351,-351,-360,-365,-371,-384,-396,-413,-430,-447,-463,-474,-476,-476,-474,-472,-471,-470,-469,-469,-468,-468,-466,-465,-463,-463,-461,-460,-458,-458,-457,-456,-456,-456,-456,-456,-456,-456,-456,-456,-456,-456,-456,-456,-456,-456,-456,-456,-456,-456,-456,-456,-456,-456,-456,-456,-456,-456]","[0,0,0,0,0,0,0,0,0,0,0,0,0,0,0,0,0,0,0,0,0,0,0,0,0,0,0,0,0,0,0,0,0,0,0,0,0,0,0,0,0,0,0,0,0,0,0,0,0,0,0,0,0,0,0,0,0,0,0,0,0,0,0,0,0,0,0,0,0,0,1,1,1,1,1,0,0,0,1,1,1,1,0,0,0,0,0,0,0,0,0,0,0]","[0,0,0,0,0,0,0,0,0,0,0,0,0,0,0,0,0,0,0,0,0,0,0,0,0,0,0,0,0,0,0,0,0,0,0,0,0,0,0,0,0,0,0,0,0,0,0,0,0,0,0,0,0,0,0,0,0,0,0,0,0,0,0,0,0,0,0,0,0,0,0,0,0,0,0,0,0,0,0,0,0,0,0,0,0,0,0,0,0,0,0,0,0]","[0,0,0,0,0,0,0,0,0,0,0,0,0,0,0,0,0,0,0,0,0,0,0,0,0,0,0,0,0,0,0,0,0,0,0,0,0,0,0,0,0,0,0,0,0,0,0,0,0,0,0,0,0,0,0,0,0,0,0,0,0,0,0,0,0,0,0,0,0,0,0,0,0,0,0,0,0,0,0,0,0,0,0,0,0,0,0,0,0,0,0,0,0]","[0,0.016199999988074865,0.03309999996423585,0.049199999988076115,0.06589999997615337,0.08259999996423062,0.09949999999999193,0.11609999996423426,0.13259999996422778,0.14939999997615416,0.16619999998806634,0.18269999998807407,0.19950000000000045,0.21659999996423096,0.23279999995230582,0.24939999997614848,0.26619999998807486,0.28299999999998704,0.299899999976148,0.3165999999642253,0.33319999998806793,0.3498999999761452,0.36649999999998784,0.38309999996423016,0.3997999999523074,0.4165999999642338,0.43319999998807646,0.4498999999761537,0.4667999999523147,0.48339999997615735,0.5000999999642346,0.5167999999523119,0.5334999999999894,0.5500999999642318,0.566799999952309,0.5834999999999866,0.600199999988078,0.6167999999523062,0.633499999999998,0.6502999999523098,0.6669999999999874,0.6835999999642297,0.700299999952307,0.7170999999642333,0.7337999999523106,0.7503999999761533,0.7669999999999959,0.783599999964224,0.8004999999999995,0.8171999999880768,0.8337999999523049,0.8506999999880662,0.8672999999523086,0.8838999999761512,0.9005999999642285,0.9172999999523057,0.9337999999523134,0.9505999999642256,0.9672999999523029,0.9839999999999947,1.000599999964237,1.0181999999880702,1.0342999999523101,1.050699999988069,1.0674999999999955,1.0842999999523073,1.10089999997615,1.1173999999761577,1.134099999964235,1.1508999999761471,1.1675999999642244,1.1842999999523158,1.2008999999761585,1.2179999999999893,1.234399999976148,1.2510999999642252,1.2676999999880678,1.2842999999523101,1.3011999999880715,1.3178999999761487,1.3343999999761564,1.3511999999880686,1.367799999952311,1.3845999999642373,1.4013999999761495,1.4179999999999922,1.4345999999642345,1.4515999999642304,1.4686999999880754,1.4846999999880666,1.501299999952309,1.5180999999642353,1.5347999999523125]",5,0,5,0,1,0.3165,,,,
SSS,2024-10-24_08h33.30.766,GoFitts,2023.2.3,Win32,59.88023952,"[146.27595404962395,-450.19109566313176]","[-236.6794653891094,409.9408591621773]",24,946.7178616,6.32,1,0.8676,"[144,144,144,144,144,145,145,145,145,145,145,145,145,145,145,147,147,145,135,119,84,20,-5,-57,-108,-145,-168,-170,-171,-171,-172,-178,-194,-198,-215,-236,-242,-243,-244,-247,-252,-254,-255,-255,-255,-255,-255,-255,-255,-253,-252,-249,-247,-245,-245,-245,-245,-245,-244,-244,-244,-244,-244,-244,-244,-244,-244,-244,-244,-244,-244,-244,-244,-244,-244,-244,-244,-244,-244,-244,-244,-244,-244]","[-456,-456,-455,-455,-454,-454,-454,-453,-453,-453,-453,-453,-453,-453,-453,-437,-396,-343,-231,-129,-25,103,146,221,281,319,337,337,337,337,337,340,346,347,356,372,382,387,392,396,399,400,400,400,400,400,401,401,401,402,403,405,406,408,408,409,409,409,409,409,409,409,409,409,409,409,409,409,409,409,409,409,409,409,409,409,409,409,409,409,409,409,409]","[0,0,0,0,0,0,0,0,0,0,0,0,0,0,0,0,0,0,0,0,0,0,0,0,0,0,0,0,0,0,0,0,0,0,0,0,0,0,0,0,0,0,0,0,0,0,0,0,0,0,0,0,0,0,0,0,0,0,0,0,1,1,1,1,1,0,0,0,1,1,1,0,0,0,0,0,0,0,0,0,0,0,0]","[0,0,0,0,0,0,0,0,0,0,0,0,0,0,0,0,0,0,0,0,0,0,0,0,0,0,0,0,0,0,0,0,0,0,0,0,0,0,0,0,0,0,0,0,0,0,0,0,0,0,0,0,0,0,0,0,0,0,0,0,0,0,0,0,0,0,0,0,0,0,0,0,0,0,0,0,0,0,0,0,0,0,0]","[0,0,0,0,0,0,0,0,0,0,0,0,0,0,0,0,0,0,0,0,0,0,0,0,0,0,0,0,0,0,0,0,0,0,0,0,0,0,0,0,0,0,0,0,0,0,0,0,0,0,0,0,0,0,0,0,0,0,0,0,0,0,0,0,0,0,0,0,0,0,0,0,0,0,0,0,0,0,0,0,0,0,0]","[0,0.015999999999991132,0.032799999952317194,0.049299999952310714,0.06629999995230662,0.08299999999999841,0.09959999996422653,0.11619999998806918,0.1326999999880769,0.14989999997615655,0.1665999999642338,0.18329999995231105,0.19950000000000045,0.2162999999523123,0.2332999999523082,0.25,0.2665999999642281,0.28319999998807077,0.2997999999523131,0.3164999999999907,0.33319999998806793,0.3498999999761594,0.36659999996423664,0.3833999999761488,0.3999999999999915,0.41679999995231753,0.4335999999642297,0.45009999996423744,0.4668999999761496,0.4831999999880736,0.5000999999642346,0.5167999999523119,0.5335999999642382,0.5501999999880667,0.5668999999761581,0.5836999999880703,0.6003999999761476,0.6170999999642248,0.6336999999880675,0.6502999999523098,0.6670000000000016,0.6836999999880788,0.7003999999761561,0.7169999999999987,0.7338999999761597,0.7503999999761533,0.7672999999523142,0.7837999999523078,0.8004999999999995,0.8173999999761463,0.833999999999989,0.8505999999642313,0.8675999999642272,0.8840000000000003,0.9005999999642285,0.9173999999761548,0.9339999999999975,0.9505999999642256,0.9675999999642357,0.984299999952313,1.0007999999523065,1.0173999999761492,1.0341999999880755,1.0507999999523179,1.0679999999999978,1.0842999999523073,1.10089999997615,1.1175999999642272,1.1342999999523045,1.15119999998808,1.1678999999761572,1.1843999999761508,1.201099999964228,1.2176999999880707,1.2347999999523154,1.2510999999642252,1.2676999999880678,1.2843999999761593,1.30149999999999,1.3177999999523138,1.3347999999523097,1.3513999999761523,1.3680999999642296]",6,0,6,0,1,0.2499,,,,
SSS,2024-10-24_08h33.30.766,GoFitts,2023.2.3,Win32,59.88023952,"[-236.6794653891094,409.9408591621773]","[316.7389483770106,-351.7742400013454]",24,946.7178616,6.32,1,0.851,"[-244,-244,-244,-244,-244,-244,-244,-244,-244,-243,-243,-243,-242,-240,-230,-187,-154,-74,30,93,151,179,205,234,264,294,302,302,297,288,283,283,283,285,286,287,287,288,289,293,296,300,302,303,303,304,304,304,304,304,305,308,309,310,310,310,312,312,313,313,313,313,313,313,313,313,313,313,313,313,313,313,313,313,313,313,313,313,313,313,313,313]","[409,409,409,409,409,409,409,409,408,406,404,403,402,399,389,354,328,256,140,39,-105,-211,-304,-375,-418,-440,-441,-438,-427,-421,-420,-420,-421,-421,-421,-416,-409,-402,-394,-382,-377,-372,-369,-367,-365,-363,-363,-362,-362,-361,-357,-354,-352,-351,-350,-350,-350,-349,-349,-349,-349,-348,-348,-348,-348,-348,-348,-348,-348,-348,-348,-348,-348,-348,-348,-348,-348,-348,-348,-348,-348,-348]","[0,0,0,0,0,0,0,0,0,0,0,0,0,0,0,0,0,0,0,0,0,0,0,0,0,0,0,0,0,0,0,0,0,0,0,0,0,0,0,0,0,0,0,0,0,0,0,0,0,0,0,0,0,0,0,0,0,0,0,0,0,1,1,1,1,1,1,0,0,0,1,1,1,1,0,0,0,0,0,0,0,0]","[0,0,0,0,0,0,0,0,0,0,0,0,0,0,0,0,0,0,0,0,0,0,0,0,0,0,0,0,0,0,0,0,0,0,0,0,0,0,0,0,0,0,0,0,0,0,0,0,0,0,0,0,0,0,0,0,0,0,0,0,0,0,0,0,0,0,0,0,0,0,0,0,0,0,0,0,0,0,0,0,0,0]","[0,0,0,0,0,0,0,0,0,0,0,0,0,0,0,0,0,0,0,0,0,0,0,0,0,0,0,0,0,0,0,0,0,0,0,0,0,0,0,0,0,0,0,0,0,0,0,0,0,0,0,0,0,0,0,0,0,0,0,0,0,0,0,0,0,0,0,0,0,0,0,0,0,0,0,0,0,0,0,0,0,0]","[0,0.01640000003575892,0.032699999988082595,0.04940000003576017,0.06619999998807202,0.08280000001191468,0.09940000003575733,0.11630000001191831,0.1331000000238447,0.14969999998807282,0.1664999999999992,0.18319999998807646,0.1998000000119191,0.21640000003576176,0.23319999998807361,0.24980000001191627,0.26660000002384265,0.283199999988085,0.29980000001192764,0.3166999999880744,0.3335000000000008,0.35010000002384345,0.3668000000119207,0.38340000003576336,0.4000000000000057,0.41680000001191786,0.4334999999999951,0.45010000002383777,0.46699999999999875,0.4836000000238414,0.5003000000119187,0.5168000000119264,0.5338000000119223,0.5503000000119158,0.5669000000357585,0.5838000000119195,0.6003000000119272,0.617199999988074,0.6340000000000003,0.6504999999999939,0.6671999999880853,0.6839000000357629,0.7006999999880748,0.7174000000357665,0.7339999999999947,0.7506000000238373,0.767100000023845,0.784000000000006,0.8004999999999995,0.8176999999880792,0.8341000000238381,0.8509999999999991,0.8675000000000068,0.884300000011919,0.9008000000119267,0.917500000000004,0.9341999999880812,0.9508000000119239,0.9676000000238361,0.9841000000238438,1.000699999988072,1.017699999988082,1.0343000000119247,1.0509000000357673,1.0676999999880792,1.0845000000000056,1.100999999999999,1.1176999999880763,1.1345000000000027,1.1509999999999962,1.1679000000357576,1.1844999999999999,1.2011000000238425,1.2178000000119198,1.2346000000238462,1.2511999999880743,1.267900000035766,1.284900000035762,1.3021000000238416,1.3179000000357632,1.3351999999880775,1.3514000000357669]",7,0,7,0,1,0.2332,,,,
SSS,2024-10-24_08h33.30.766,GoFitts,2023.2.3,Win32,59.88023952,"[316.7389483770106,-351.7742400013454]","[-382.9554194387335,278.23339855237083]",24,946.7178616,6.32,1,1.3685,"[313,313,313,313,313,313,313,313,313,313,313,313,313,313,313,313,313,313,313,313,313,313,301,253,154,48,-66,-193,-252,-278,-278,-275,-274,-274,-274,-274,-274,-274,-274,-276,-279,-292,-306,-315,-328,-341,-351,-369,-387,-401,-401,-401,-401,-401,-401,-401,-401,-401,-401,-401,-401,-400,-397,-392,-388,-377,-371,-366,-365,-365,-365,-365,-365,-365,-365,-365,-365,-365,-365,-366,-367,-370,-376,-389,-392,-394,-394,-394,-394,-393,-392,-391,-391,-391,-391,-391,-391,-391,-390,-389,-388,-387,-387,-387,-387,-387,-387,-387,-387,-387,-387,-387,-387]","[-348,-348,-348,-348,-348,-348,-348,-348,-348,-348,-348,-348,-348,-348,-348,-348,-348,-348,-348,-348,-348,-347,-333,-289,-200,-107,-7,109,176,215,216,214,212,212,212,212,212,212,212,212,213,218,227,234,243,251,256,262,269,274,274,274,274,274,274,274,274,274,274,275,275,275,277,279,280,281,281,281,281,281,281,281,281,281,281,281,281,281,281,281,281,281,280,280,280,280,280,280,280,280,280,280,280,280,280,280,280,280,280,280,280,280,280,280,280,280,280,280,280,280,280,280,280]","[0,0,0,0,0,0,0,0,0,0,0,0,0,0,0,0,0,0,0,0,0,0,0,0,0,0,0,0,0,0,0,0,0,0,0,0,0,0,0,0,0,0,0,0,0,0,0,0,0,0,0,0,0,0,0,0,0,0,0,0,0,0,0,0,0,0,0,0,0,0,1,1,1,1,1,1,0,0,0,0,0,0,0,0,0,0,0,0,0,0,1,1,1,1,1,1,0,0,0,0,0,0,1,1,1,1,0,0,0,0,0,1,1]","[0,0,0,0,0,0,0,0,0,0,0,0,0,0,0,0,0,0,0,0,0,0,0,0,0,0,0,0,0,0,0,0,0,0,0,0,0,0,0,0,0,0,0,0,0,0,0,0,0,0,0,0,0,0,0,0,0,0,0,0,0,0,0,0,0,0,0,0,0,0,0,0,0,0,0,0,0,0,0,0,0,0,0,0,0,0,0,0,0,0,0,0,0,0,0,0,0,0,0,0,0,0,0,0,0,0,0,0,0,0,0,0,0]","[0,0,0,0,0,0,0,0,0,0,0,0,0,0,0,0,0,0,0,0,0,0,0,0,0,0,0,0,0,0,0,0,0,0,0,0,0,0,0,0,0,0,0,0,0,0,0,0,0,0,0,0,0,0,0,0,0,0,0,0,0,0,0,0,0,0,0,0,0,0,0,0,0,0,0,0,0,0,0,0,0,0,0,0,0,0,0,0,0,0,0,0,0,0,0,0,0,0,0,0,0,0,0,0,0,0,0,0,0,0,0,0,0]","[0,0.015999999999991132,0.03300000000000125,0.04940000003576017,0.06619999998807202,0.08330000001191706,0.09960000002384106,0.11650000000000205,0.13290000003576097,0.14960000002383822,0.16680000001191786,0.18369999998807884,0.19960000002383538,0.21640000003576176,0.23319999998807361,0.24980000001191627,0.2664000000357589,0.28360000002383856,0.2998000000119134,0.3164000000357561,0.3335000000000008,0.35010000002384345,0.3668000000119207,0.38349999999999795,0.4001000000238406,0.4169000000357528,0.43360000002384425,0.4503000000119215,0.46690000003576415,0.48349999999999227,0.5003000000119187,0.5169000000357613,0.5336999999880732,0.5501999999880809,0.5668000000119235,0.5836000000238357,0.600300000011913,0.6169999999999902,0.6338000000119166,0.6504999999999939,0.6671999999880711,0.6836999999880788,0.7004000000357564,0.7173000000119174,0.7339999999999947,0.7506999999880719,0.7673000000119146,0.784100000023841,0.8010000000000019,0.8176999999880792,0.8341000000238381,0.8506999999880804,0.867199999988074,0.8845000000000027,0.9006999999880776,0.9173000000119202,0.9343000000119162,0.9519000000357636,0.9675000000000011,0.984499999999997,1.000900000035756,1.017800000011917,1.0344000000357596,1.0511000000238369,1.067800000011914,1.0846000000238405,1.1016000000238364,1.1178000000119113,1.1345000000000027,1.1511000000238312,1.1678000000119226,1.1846000000238348,1.2011999999880771,1.2178000000119198,1.2348000000119157,1.2514000000357584,1.2680000000000007,1.2846000000238433,1.3014000000357555,1.3181000000238328,1.33480000001191,1.3516000000238364,1.3684999999999974,1.384999999999991,1.4016000000238336,1.4181999999880759,1.4348000000119185,1.4519000000357636,1.4681000000238384,1.4851000000238344,1.5016999999880767,1.518600000023838,1.5349999999999966,1.5523000000119112,1.5683000000119165,1.5853000000119124,1.6018000000119201,1.6186000000238323,1.635900000035761,1.652100000023836,1.6686999999880783,1.6851999999880718,1.7019000000357636,1.7186000000238408,1.735300000011918,1.7519999999999953,1.7686999999880726,1.7854000000357644,1.8021000000238416,1.8188000000119189,1.8361000000238334,1.8521999999880734,1.8691000000238347]",8,0,8,0,1,0.3668,,,,
SSS,2024-10-24_08h33.30.766,GoFitts,2023.2.3,Win32,59.88023952,"[-382.9554194387335,278.23339855237083]","[432.4349010470004,-192.53242247468287]",24,946.7178616,6.32,1,1.0343,"[-387,-387,-387,-387,-387,-387,-387,-387,-387,-387,-386,-382,-371,-356,-341,-340,-354,-373,-404,-420,-380,-343,-195,-51,78,265,383,477,510,553,564,560,539,522,505,501,501,501,499,495,482,464,441,427,422,421,421,420,418,414,413,412,412,412,412,412,412,412,412,414,416,420,422,423,423,424,424,424,424,424,424,424,424,424,424,424,424,424,424,424,424,424,424,424,424,424,424,424,424,424,424,424,424]","[280,280,280,280,280,280,280,280,280,280,279,273,256,225,164,111,43,-26,-115,-200,-286,-310,-324,-287,-255,-209,-178,-159,-156,-153,-153,-155,-160,-164,-168,-169,-169,-170,-173,-175,-179,-185,-193,-199,-201,-202,-202,-201,-200,-199,-199,-198,-198,-198,-198,-198,-198,-197,-197,-195,-195,-194,-192,-192,-192,-191,-191,-191,-191,-191,-191,-191,-191,-191,-191,-191,-191,-191,-191,-191,-191,-191,-191,-191,-191,-191,-191,-191,-191,-191,-191,-191,-191]","[1,1,0,0,0,0,0,0,0,0,0,0,0,0,0,0,0,0,0,0,0,0,0,0,0,0,0,0,0,0,0,0,0,0,0,0,0,0,0,0,0,0,0,0,0,0,0,0,0,0,0,0,0,0,0,1,1,1,0,0,0,0,0,0,0,0,0,0,0,0,0,1,1,1,1,1,0,0,0,0,0,1,1,1,0,0,0,0,0,0,0,0,0]","[0,0,0,0,0,0,0,0,0,0,0,0,0,0,0,0,0,0,0,0,0,0,0,0,0,0,0,0,0,0,0,0,0,0,0,0,0,0,0,0,0,0,0,0,0,0,0,0,0,0,0,0,0,0,0,0,0,0,0,0,0,0,0,0,0,0,0,0,0,0,0,0,0,0,0,0,0,0,0,0,0,0,0,0,0,0,0,0,0,0,0,0,0]","[0,0,0,0,0,0,0,0,0,0,0,0,0,0,0,0,0,0,0,0,0,0,0,0,0,0,0,0,0,0,0,0,0,0,0,0,0,0,0,0,0,0,0,0,0,0,0,0,0,0,0,0,0,0,0,0,0,0,0,0,0,0,0,0,0,0,0,0,0,0,0,0,0,0,0,0,0,0,0,0,0,0,0,0,0,0,0,0,0,0,0,0,0]","[0,0.015699999988072477,0.03249999999999886,0.049199999988076115,0.06580000001191877,0.08260000002383094,0.09910000002383867,0.11589999997615053,0.13289999997616064,0.14919999998807043,0.16610000002383174,0.1828999999761578,0.19960000002383538,0.2161000000238431,0.23280000001192036,0.2494999999999976,0.26619999998807486,0.28300000000000125,0.2996999999880785,0.31630000001192116,0.3329999999999984,0.34969999998807566,0.3663000000119183,0.3831000000238447,0.39980000001192195,0.4164999999999992,0.43310000002384186,0.45000000000000284,0.46649999999999636,0.48330000001192275,0.49989999997615087,0.5166000000238427,0.5333999999761545,0.5499999999999972,0.5668000000119235,0.5833000000119171,0.5998999999761594,0.6168000000119207,0.6333999999761488,0.6501000000238406,0.6668999999761525,0.6836000000238442,0.7003999999761561,0.7168999999761496,0.7339999999999947,0.7501999999880695,0.7668000000119122,0.7836000000238386,0.8003999999761504,0.8169999999999931,0.8336999999880703,0.8503999999761476,0.8669999999999902,0.8836999999880817,0.9003000000119101,0.9170000000000016,0.9338000000119138,0.9506999999880748,0.9671999999880683,0.9839999999999947,1.000699999988072,1.0173000000119146,1.0343000000119105,1.0508000000119182,1.0671999999880768,1.083999999999989,1.1006000000238316,1.1173999999761577,1.1340000000000003,1.1508000000119125,1.167600000023839,1.1841999999880812,1.2009999999999934,1.2175000000000011,1.2348000000119157,1.2508999999761556,1.267699999988082,1.2843000000119105,1.3008999999761528,1.317800000011914,1.3343000000119218,1.351100000023834,1.367999999999995,1.3845000000000027,1.40119999998808,1.4178999999761572,1.4346000000238348,1.4511999999880771,1.4678999999761544,1.4848000000119157,1.5016999999880767,1.5180000000000007,1.5348999999761475]",9,0,9,0,1,0.1996,,,,
SSS,2024-10-24_08h33.30.766,GoFitts,2023.2.3,Win32,59.88023952,"[432.4349010470004,-192.53242247468287]","[-463.01490242663454,98.4168556617862]",24,946.7178616,6.32,1,1.5853,"[424,424,424,424,424,424,424,424,424,424,424,424,424,424,424,424,424,421,421,421,421,412,369,339,255,106,-24,-151,-243,-294,-324,-327,-327,-327,-326,-325,-323,-323,-327,-332,-338,-342,-353,-367,-375,-401,-423,-425,-425,-425,-425,-424,-425,-431,-438,-443,-445,-445,-445,-445,-445,-446,-447,-448,-448,-448,-448,-449,-450,-450,-451,-451,-457,-463,-470,-478,-479,-479,-479,-479,-479,-479,-479,-479,-479,-479,-479,-479,-479,-479,-479,-479,-479,-479,-479,-471,-466,-465,-464,-464,-464,-464,-464,-464,-464,-464,-464,-464,-464,-464,-464,-464,-464,-464,-464,-464,-464,-464,-464,-464,-464,-464,-464,-464,-464,-464]","[-191,-191,-191,-191,-191,-191,-191,-191,-191,-191,-191,-191,-191,-191,-191,-191,-191,-191,-191,-191,-191,-191,-196,-196,-191,-166,-140,-110,-88,-73,-50,-31,-14,-2,1,10,25,38,47,53,54,56,57,60,61,68,77,80,81,82,83,84,86,88,92,93,94,95,95,96,97,97,98,98,98,98,99,100,100,101,101,101,102,102,103,104,104,104,104,104,104,104,104,104,104,104,104,104,104,104,104,104,104,104,104,104,104,104,104,104,104,104,104,104,104,104,104,104,104,104,104,104,104,104,104,104,104,104,104,104,104,104,104,104,104,104]","[0,0,0,0,0,0,0,0,0,0,0,0,0,0,0,0,0,0,0,0,0,0,0,0,0,0,0,0,0,0,0,0,0,0,0,0,0,0,0,0,0,0,0,0,0,0,0,0,0,0,0,0,0,0,0,0,0,0,0,0,0,0,0,0,0,0,0,0,0,0,0,0,0,0,0,0,0,0,1,1,1,1,1,0,0,0,0,0,1,1,1,1,0,0,0,0,0,0,0,0,0,0,0,1,1,1,1,1,1,0,0,0,0,0,1,1,1,1,0,0,0,0,0,0,0,0]","[0,0,0,0,0,0,0,0,0,0,0,0,0,0,0,0,0,0,0,0,0,0,0,0,0,0,0,0,0,0,0,0,0,0,0,0,0,0,0,0,0,0,0,0,0,0,0,0,0,0,0,0,0,0,0,0,0,0,0,0,0,0,0,0,0,0,0,0,0,0,0,0,0,0,0,0,0,0,0,0,0,0,0,0,0,0,0,0,0,0,0,0,0,0,0,0,0,0,0,0,0,0,0,0,0,0,0,0,0,0,0,0,0,0,0,0,0,0,0,0,0,0,0,0,0,0]","[0,0,0,0,0,0,0,0,0,0,0,0,0,0,0,0,0,0,0,0,0,0,0,0,0,0,0,0,0,0,0,0,0,0,0,0,0,0,0,0,0,0,0,0,0,0,0,0,0,0,0,0,0,0,0,0,0,0,0,0,0,0,0,0,0,0,0,0,0,0,0,0,0,0,0,0,0,0,0,0,0,0,0,0,0,0,0,0,0,0,0,0,0,0,0,0,0,0,0,0,0,0,0,0,0,0,0,0,0,0,0,0,0,0,0,0,0,0,0,0,0,0,0,0,0,0]","[0,0.01589999997615621,0.032600000023833786,0.0496999999880785,0.06660000002383981,0.08249999999999602,0.09960000002384106,0.11610000002383458,0.1326999999880769,0.14960000002383822,0.16619999998808055,0.1828000000119232,0.20000000000000284,0.2161000000238431,0.23330000001192275,0.24980000001191627,0.26619999998807486,0.28300000000000125,0.2996000000238439,0.316199999988072,0.3328999999761493,0.3498999999761594,0.36650000000000205,0.3831999999880793,0.40030000001192434,0.4166000000238341,0.4333000000119114,0.45000000000000284,0.4666999999880801,0.48330000001192275,0.5,0.5166000000238427,0.5333999999761545,0.5501000000238321,0.5668000000119235,0.5833999999761517,0.600199999988078,0.6168999999761553,0.633499999999998,0.6503999999761589,0.6668999999761525,0.6836000000238442,0.7003000000119215,0.7171000000238337,0.733699999988076,0.7506000000238373,0.7673000000119146,0.7836999999880732,0.8004999999999995,0.8171999999880768,0.833899999976154,0.8506000000238458,0.867199999988074,0.8838999999761512,0.9006999999880776,0.9173999999761548,0.9343000000119162,0.9506000000238402,0.9673000000119174,0.9841000000238438,1.000800000011921,1.0173999999761492,1.034100000023841,1.0508000000119182,1.0676000000238446,1.084100000023838,1.10089999997615,1.11789999997616,1.1345000000000027,1.1509999999999962,1.1676999999880735,1.1841999999880812,1.2013999999761609,1.2178000000119198,1.2343000000119133,1.2513000000119234,1.2680000000000007,1.2843999999761593,1.3011999999880715,1.3181999999880816,1.334699999988075,1.351100000023834,1.367999999999995,1.3846999999880722,1.401300000011915,1.4179999999999922,1.4346000000238348,1.4513999999761609,1.4681000000238384,1.4848999999761503,1.501399999976158,1.5183000000119193,1.5348000000119129,1.55149999999999,1.5688000000119189,1.5853000000119124,1.6016000000238364,1.6183000000119137,1.6351999999880746,1.6516000000238336,1.668300000011925,1.6850000000000023,1.701600000023845,1.7184999999999917,1.7349999999999994,1.7518000000119116,1.768500000000003,1.7853999999761498,1.8023000000119112,1.8186000000238352,1.8353000000119124,1.8521999999880734,1.8688999999761506,1.8853000000119238,1.902100000023836,1.9186999999880783,1.9353999999761555,1.952100000023833,1.9688000000119246,1.9856000000238367,2.0021000000238445,2.0189999999999912,2.0358999999761522,2.052300000011911,2.0693000000119213,2.0861000000238334]",10,0,10,0,1,0.3499,,,,
SSS,2024-10-24_08h33.30.766,GoFitts,2023.2.3,Win32,59.88023952,"[-463.01490242663454,98.4168556617862]","[473.358930778219,0]",24,946.7178616,6.32,1,1.034,"[-464,-464,-464,-464,-464,-464,-464,-464,-464,-464,-461,-452,-447,-446,-446,-446,-446,-446,-442,-412,-289,-204,-112,38,151,238,280,296,296,295,291,287,283,281,281,281,285,295,305,333,409,464,507,534,537,537,537,537,537,537,537,537,537,534,528,522,512,503,499,489,488,482,478,478,478,478,478,478,478,477,476,476,474,473,473,473,473,473,473,473,473,473,473,473,473,473,473,473,473,473,473,473,473]","[104,104,104,104,104,104,104,104,104,104,104,104,102,101,101,101,101,101,100,97,83,77,74,66,61,57,55,55,55,55,54,53,51,50,49,48,48,47,47,42,21,2,-16,-30,-34,-35,-35,-35,-35,-35,-35,-35,-35,-33,-31,-28,-23,-18,-16,-12,-11,-9,-8,-8,-7,-7,-7,-7,-7,-7,-5,-5,-3,-2,-1,-1,-1,-1,-1,-1,-1,-1,-1,-1,-1,-1,-1,-1,-1,-1,-1,-1,-1]","[0,0,0,0,0,0,0,0,0,0,0,0,0,0,0,0,0,0,0,0,0,0,0,0,0,0,0,0,0,0,0,0,0,0,0,0,0,0,0,0,0,0,0,0,0,0,0,0,0,0,0,0,0,0,0,0,0,0,0,0,0,0,0,0,0,0,0,0,0,0,0,0,0,0,0,1,1,1,1,1,0,0,0,0,1,1,1,1,0,0,0,0,0]","[0,0,0,0,0,0,0,0,0,0,0,0,0,0,0,0,0,0,0,0,0,0,0,0,0,0,0,0,0,0,0,0,0,0,0,0,0,0,0,0,0,0,0,0,0,0,0,0,0,0,0,0,0,0,0,0,0,0,0,0,0,0,0,0,0,0,0,0,0,0,0,0,0,0,0,0,0,0,0,0,0,0,0,0,0,0,0,0,0,0,0,0,0]","[0,0,0,0,0,0,0,0,0,0,0,0,0,0,0,0,0,0,0,0,0,0,0,0,0,0,0,0,0,0,0,0,0,0,0,0,0,0,0,0,0,0,0,0,0,0,0,0,0,0,0,0,0,0,0,0,0,0,0,0,0,0,0,0,0,0,0,0,0,0,0,0,0,0,0,0,0,0,0,0,0,0,0,0,0,0,0,0,0,0,0,0,0]","[0,0.015500000000002956,0.03280000001191752,0.04889999997615746,0.06559999996423471,0.08249999999999602,0.09889999997615462,0.11599999999999966,0.1326999999880769,0.14939999997615416,0.1658999999761619,0.18269999998807407,0.1991999999880818,0.21580000001192445,0.23269999998807123,0.2493999999761627,0.2658000000119216,0.28249999999999886,0.29949999999999477,0.3160000000000025,0.33269999998807975,0.34949999999999193,0.3661999999880834,0.38289999997616064,0.39939999997615416,0.4159999999999968,0.4328000000119232,0.44959999996423505,0.46630000001191263,0.4830999999642387,0.49980000001191627,0.5163999999761586,0.5330999999642358,0.5498000000119134,0.5665000000000049,0.5829999999999984,0.5996999999880757,0.616500000000002,0.6331999999880793,0.6500999999642403,0.6666999999880829,0.6838999999761626,0.7003000000119215,0.716599999964231,0.7333000000119227,0.7500999999642346,0.7665999999642423,0.7835999999642382,0.8001999999880809,0.8168000000119235,0.8335999999642354,0.850300000011913,0.8670000000000044,0.883499999999998,0.9003000000119243,0.9168999999761525,0.9335999999642297,0.9501999999880724,0.9668999999761496,0.9835999999642411,1.0005000000000024,1.0171999999880796,1.0339999999999918,1.0508000000119182,1.0671999999880768,1.0836999999880845,1.1003999999761618,1.117099999964239,1.1338000000119166,1.1504999999999939,1.1671999999880711,1.1838999999761626,1.2008999999761585,1.217399999976152,1.2343000000119133,1.250699999988072,1.2673999999761634,1.2839999999999918,1.3013999999761552,1.3173999999761605,1.3340000000000032,1.35089999997615,1.36789999997616,1.384300000011919,1.4008999999761613,1.4178999999761572,1.4341999999880812,1.4508999999761585,1.4675999999642357,1.484499999999997,1.5010999999642394,1.517699999988082,1.5343999999761593]",11,0,11,0,1,0.1827,,,,
SSS,2024-10-24_08h33.30.766,GoFitts,2023.2.3,Win32,59.88023952,"[473.358930778219,0]","[-463.01490242663454,-98.41685566178609]",24,946.7178616,6.32,1,0.7678,"[473,473,473,473,473,473,473,473,473,473,473,473,473,470,466,438,395,327,202,97,2,-112,-147,-206,-270,-308,-329,-349,-358,-365,-380,-395,-401,-403,-405,-414,-424,-434,-443,-449,-452,-453,-453,-453,-453,-453,-453,-454,-455,-457,-458,-460,-461,-461,-461,-461,-461,-461,-461,-461,-461,-461,-461,-461,-461,-461,-461,-461,-461,-461,-461,-461,-461,-461,-461,-461,-461]","[-1,-1,-1,-1,-1,-1,0,1,1,1,1,1,1,-1,-5,-26,-51,-87,-149,-189,-215,-222,-222,-209,-184,-166,-154,-143,-135,-130,-125,-121,-120,-119,-118,-115,-113,-112,-112,-112,-112,-111,-110,-109,-108,-106,-104,-102,-99,-95,-93,-90,-90,-90,-90,-90,-90,-90,-90,-90,-90,-90,-90,-90,-90,-90,-90,-90,-90,-90,-90,-90,-90,-90,-90,-90,-90]","[0,0,0,0,0,0,0,0,0,0,0,0,0,0,0,0,0,0,0,0,0,0,0,0,0,0,0,0,0,0,0,0,0,0,0,0,0,0,0,0,0,0,0,0,0,0,0,0,0,0,0,0,0,0,0,0,1,1,1,0,0,0,0,0,1,1,1,1,1,0,0,0,0,0,0,0,0]","[0,0,0,0,0,0,0,0,0,0,0,0,0,0,0,0,0,0,0,0,0,0,0,0,0,0,0,0,0,0,0,0,0,0,0,0,0,0,0,0,0,0,0,0,0,0,0,0,0,0,0,0,0,0,0,0,0,0,0,0,0,0,0,0,0,0,0,0,0,0,0,0,0,0,0,0,0]","[0,0,0,0,0,0,0,0,0,0,0,0,0,0,0,0,0,0,0,0,0,0,0,0,0,0,0,0,0,0,0,0,0,0,0,0,0,0,0,0,0,0,0,0,0,0,0,0,0,0,0,0,0,0,0,0,0,0,0,0,0,0,0,0,0,0,0,0,0,0,0,0,0,0,0,0,0]","[0,0.01609999996423994,0.03289999997616633,0.04939999997615985,0.06619999998808623,0.08280000001192889,0.09969999998807566,0.11630000001191831,0.13330000001192843,0.1495999999642379,0.16619999998808055,0.18300000000000693,0.1996999999880842,0.2166999999880801,0.23330000001192275,0.2500999999642346,0.2668000000119264,0.28369999998808737,0.29999999999999716,0.3165999999642395,0.33330000001191706,0.3500000000000085,0.3666999999880858,0.38349999999999795,0.40030000001192434,0.4170999999642362,0.43369999998807884,0.45009999996423744,0.46699999999999875,0.4835000000000065,0.5001999999880837,0.5168000000119264,0.5336999999880874,0.5503999999761646,0.5671999999880768,0.583899999976154,0.6004999999999967,0.6173999999761577,0.6338999999761654,0.6505000000000081,0.6671999999880853,0.683800000011928,0.7005999999642398,0.7173000000119174,0.7340000000000089,0.7506999999880861,0.767800000011917,0.7840999999642406,0.8008000000119182,0.8174999999999955,0.8340999999642378,0.8506999999880804,0.8673999999761577,0.8848000000119214,0.9008000000119267,0.9178000000119226,0.9341999999880812,0.9508999999761585,0.9678999999761544,0.9841999999880784,1.0010000000000048,1.0178999999761658,1.0343000000119247,1.051000000000002,1.0678000000119283,1.0845000000000056,1.100999999999999,1.1176999999880763,1.1343999999761536,1.1513000000119291,1.1681999999880759,1.1848999999761531,1.2016999999880795,1.218500000000006,1.2345999999642459,1.2511999999880743,1.2680000000000007]",12,0,12,0,1,0.2501,,,,
SSS,2024-10-24_08h33.30.766,GoFitts,2023.2.3,Win32,59.88023952,"[-463.01490242663454,-98.41685566178609]","[432.4349010470003,192.53242247468287]",24,946.7178616,6.32,1,0.8676,"[-461,-461,-461,-461,-461,-461,-461,-461,-455,-437,-405,-377,-261,-158,-55,62,135,198,268,307,336,357,364,369,370,371,372,372,375,381,402,424,443,464,473,478,483,486,487,487,486,485,484,480,474,464,454,447,442,441,441,441,440,439,438,437,436,436,436,436,436,436,436,436,436,436,436,436,436,436,436,436,436,436,436,436,436,436,436,436,436,436,436]","[-90,-90,-90,-90,-90,-90,-90,-90,-88,-87,-84,-82,-72,-66,-54,-38,-22,-5,21,39,53,66,73,77,81,83,85,85,87,89,95,104,117,137,150,161,172,179,182,183,184,184,184,184,184,184,184,184,184,184,184,184,184,185,187,189,190,190,190,190,190,190,190,190,190,191,191,191,191,191,191,191,191,191,191,191,191,191,191,191,191,191,191]","[0,0,0,0,0,0,0,0,0,0,0,0,0,0,0,0,0,0,0,0,0,0,0,0,0,0,0,0,0,0,0,0,0,0,0,0,0,0,0,0,0,0,0,0,0,0,0,0,0,0,0,0,0,0,0,0,0,0,0,0,0,1,1,1,0,0,0,0,0,1,1,1,0,0,0,0,0,0,0,0,0,0,0]","[0,0,0,0,0,0,0,0,0,0,0,0,0,0,0,0,0,0,0,0,0,0,0,0,0,0,0,0,0,0,0,0,0,0,0,0,0,0,0,0,0,0,0,0,0,0,0,0,0,0,0,0,0,0,0,0,0,0,0,0,0,0,0,0,0,0,0,0,0,0,0,0,0,0,0,0,0,0,0,0,0,0,0]","[0,0,0,0,0,0,0,0,0,0,0,0,0,0,0,0,0,0,0,0,0,0,0,0,0,0,0,0,0,0,0,0,0,0,0,0,0,0,0,0,0,0,0,0,0,0,0,0,0,0,0,0,0,0,0,0,0,0,0,0,0,0,0,0,0,0,0,0,0,0,0,0,0,0,0,0,0,0,0,0,0,0,0]","[0,0.016000000000005343,0.03290000003576665,0.049600000023843904,0.06630000001192116,0.08299999999999841,0.09999999999999432,0.11650000000000205,0.13320000004767962,0.14980000001192195,0.1664000000357646,0.18310000002384186,0.19990000003576824,0.21649999999999636,0.23320000004768815,0.25010000002384913,0.2667000000476918,0.2833000000119199,0.29990000003576256,0.3165000000000049,0.33330000001191706,0.35010000002384345,0.3667000000476861,0.38349999999999795,0.40020000004768974,0.416900000035767,0.4334999999999951,0.45010000002383777,0.46699999999999875,0.4835000000000065,0.5002000000476841,0.5168000000119264,0.5336000000238386,0.5503000000119158,0.5671000000238422,0.5837000000476849,0.6004999999999967,0.6172000000476885,0.6338000000119166,0.6508000000119267,0.6671000000238365,0.683800000011928,0.7004000000357706,0.7171000000238479,0.7339000000357601,0.7506000000238373,0.7674000000357637,0.784000000000006,0.8009000000357673,0.8177000000476795,0.8340000000000032,0.8506000000238458,0.8676000000238417,0.8841000000238495,0.9008000000119267,0.9176000000238389,0.9342000000476816,0.9508000000119239,0.9675000000000011,0.9842000000476787,1.000800000011921,1.0176000000238474,1.0343000000119247,1.051000000000002,1.0677000000476795,1.0846000000238405,1.100999999999999,1.1181000000238441,1.1344000000357681,1.1511000000238454,1.1681000000238413,1.184700000047684,1.2013000000119263,1.217900000035769,1.2348000000119157,1.2512000000476888,1.2681000000238498,1.2846000000238433,1.301200000047686,1.3183000000119165,1.3353000000119266,1.3514000000357669,1.3684000000357628]",13,0,13,0,1,0.1331,,,,
SSS,2024-10-24_08h33.30.766,GoFitts,2023.2.3,Win32,59.88023952,"[432.4349010470003,192.53242247468287]","[-382.9554194387336,-278.2333985523707]",24,946.7178616,6.32,1,1.0343,"[436,436,434,427,424,424,424,424,424,424,424,424,424,424,424,424,424,424,424,424,424,424,423,412,362,310,254,203,139,41,-37,-109,-167,-226,-254,-274,-295,-303,-312,-316,-316,-318,-322,-326,-330,-338,-343,-345,-349,-354,-356,-357,-357,-359,-362,-367,-368,-370,-370,-371,-375,-380,-388,-388,-388,-388,-389,-389,-389,-389,-389,-389,-389,-389,-389,-389,-389,-389,-389,-389,-389,-389,-389,-389,-389,-389,-389,-389,-389,-389,-389,-389,-389]","[191,191,191,191,191,191,191,191,191,191,191,191,191,191,191,191,191,191,191,191,191,191,191,191,191,185,159,133,100,60,40,28,21,14,11,7,1,-7,-17,-26,-38,-50,-67,-97,-125,-169,-200,-229,-259,-281,-295,-297,-299,-300,-303,-308,-311,-311,-311,-311,-305,-296,-284,-282,-280,-280,-280,-279,-279,-279,-278,-278,-278,-278,-278,-278,-278,-278,-278,-278,-278,-278,-278,-278,-278,-278,-278,-278,-278,-278,-278,-278,-278]","[0,0,0,0,0,0,0,0,0,0,0,0,0,0,0,0,0,0,0,0,0,0,0,0,0,0,0,0,0,0,0,0,0,0,0,0,0,0,0,0,0,0,0,0,0,0,0,0,0,0,0,0,0,0,0,0,0,0,0,0,0,0,0,0,0,0,0,0,0,0,0,0,0,1,1,1,1,0,0,0,0,1,1,1,1,1,0,0,0,0,0,0,0]","[0,0,0,0,0,0,0,0,0,0,0,0,0,0,0,0,0,0,0,0,0,0,0,0,0,0,0,0,0,0,0,0,0,0,0,0,0,0,0,0,0,0,0,0,0,0,0,0,0,0,0,0,0,0,0,0,0,0,0,0,0,0,0,0,0,0,0,0,0,0,0,0,0,0,0,0,0,0,0,0,0,0,0,0,0,0,0,0,0,0,0,0,0]","[0,0,0,0,0,0,0,0,0,0,0,0,0,0,0,0,0,0,0,0,0,0,0,0,0,0,0,0,0,0,0,0,0,0,0,0,0,0,0,0,0,0,0,0,0,0,0,0,0,0,0,0,0,0,0,0,0,0,0,0,0,0,0,0,0,0,0,0,0,0,0,0,0,0,0,0,0,0,0,0,0,0,0,0,0,0,0,0,0,0,0,0,0]","[0,0.01580000001192161,0.03239999997614973,0.04910000002384152,0.06580000001191877,0.08239999997614689,0.099399999976157,0.11580000001191593,0.13249999999999318,0.14939999997615416,0.16630000001191547,0.182800000011909,0.19950000000000045,0.21630000001191263,0.23260000002383663,0.24980000001191627,0.26599999999999113,0.2831000000238362,0.2996000000238297,0.316199999988072,0.3328000000119147,0.34949999999999193,0.3663000000119183,0.3831999999880793,0.3996999999880728,0.41630000001191547,0.4329999999999927,0.44999999999998863,0.4666000000238313,0.483100000023839,0.5,0.5166000000238427,0.5333999999761545,0.549899999976148,0.5666000000238398,0.5833000000119171,0.5999999999999943,0.616600000023837,0.6333999999761488,0.6501000000238406,0.6668000000119179,0.683399999976146,0.7003000000119215,0.7169999999999987,0.7334999999999923,0.7501000000238349,0.7668999999761468,0.7836000000238386,0.8003000000119158,0.8171000000238422,0.8336999999880703,0.8504999999999967,0.8671000000238394,0.8838000000119166,0.9004999999999939,0.9171000000238365,0.9336999999880788,0.9503999999761561,0.9671000000238337,0.9838999999761455,1.000699999988072,1.0173000000119146,1.0343000000119105,1.0508000000119182,1.0673000000119117,1.084100000023838,1.1006999999880804,1.1173999999761577,1.1343999999761536,1.1506999999880776,1.1679999999999922,1.1841000000238324,1.2006999999880748,1.217399999976152,1.234499999999997,1.250800000011921,1.2680000000000007,1.2843000000119105,1.3011000000238369,1.317800000011914,1.3346000000238405,1.3511999999880686,1.3681999999880787,1.384300000011919,1.4009999999999962,1.4183999999761454,1.4346000000238348,1.4511999999880771,1.4678999999761544,1.4848000000119157,1.5011999999880743,1.5183000000119193,1.534699999988078]",14,0,14,0,1,0.3831,,,,
SSS,2024-10-24_08h33.30.766,GoFitts,2023.2.3,Win32,59.88023952,,,,,,1,,,,,,,,,,,,,,1,0,0,1
SSS,2024-10-24_08h33.30.766,GoFitts,2023.2.3,Win32,59.88023952,"[-143,-160]","[426.9536283011447,190.09200261622806]",48,934.7178616,5.32,2,0.9673,"[-143,-143,-143,-143,-143,-143,-143,-143,-143,-143,-140,-137,-134,-125,-115,-99,-72,-40,26,55,114,192,242,277,293,289,287,287,287,287,287,287,290,300,320,338,380,420,466,519,544,553,553,548,526,509,495,487,485,484,484,484,481,476,470,461,450,439,430,424,423,423,423,423,423,423,423,423,423,423,423,423,423,423,423,423,424,424,424,424,424,425,425,426,426,426,427,427,429]","[-160,-160,-160,-160,-160,-160,-160,-160,-160,-160,-160,-160,-160,-161,-162,-163,-163,-164,-163,-160,-152,-137,-125,-114,-112,-117,-120,-120,-120,-120,-120,-104,-86,-72,-47,-17,50,113,184,274,313,330,332,332,326,320,311,304,301,300,296,292,284,273,261,245,229,214,203,198,195,195,195,195,195,195,195,195,195,195,195,195,195,195,195,195,195,195,195,195,194,194,194,194,194,194,194,194,196]","[0,0,0,0,0,0,0,0,0,0,0,0,0,0,0,0,0,0,0,0,0,0,0,0,0,0,0,0,0,0,0,0,0,0,0,0,0,0,0,0,0,0,0,0,0,0,0,0,0,0,0,0,0,0,0,0,0,0,0,0,0,0,0,0,0,1,1,1,1,0,0,0,0,0,1,1,1,1,0,0,0,0,0,0,0,0,0,0,0]","[0,0,0,0,0,0,0,0,0,0,0,0,0,0,0,0,0,0,0,0,0,0,0,0,0,0,0,0,0,0,0,0,0,0,0,0,0,0,0,0,0,0,0,0,0,0,0,0,0,0,0,0,0,0,0,0,0,0,0,0,0,0,0,0,0,0,0,0,0,0,0,0,0,0,0,0,0,0,0,0,0,0,0,0,0,0,0,0,0]","[0,0,0,0,0,0,0,0,0,0,0,0,0,0,0,0,0,0,0,0,0,0,0,0,0,0,0,0,0,0,0,0,0,0,0,0,0,0,0,0,0,0,0,0,0,0,0,0,0,0,0,0,0,0,0,0,0,0,0,0,0,0,0,0,0,0,0,0,0,0,0,0,0,0,0,0,0,0,0,0,0,0,0,0,0,0,0,0,0]","[0,0.016000000000005343,0.032299999952314806,0.04889999997615746,0.0660999999642371,0.0823999999761611,0.09889999997616883,0.11589999997616474,0.13229999995232333,0.1490000000000009,0.16609999996424563,0.18250000000000455,0.1991999999880818,0.21589999997615905,0.2325000000000017,0.24919999998807896,0.2658999999761562,0.2825999999642477,0.2991999999880903,0.3160999999642371,0.33279999995231435,0.349399999976157,0.3661999999880834,0.3827999999523257,0.3995000000000033,0.41629999995231515,0.4328999999761578,0.44950000000000045,0.4661999999880777,0.48339999997615735,0.5,0.516899999976161,0.5330999999642358,0.5496999999880785,0.5665000000000049,0.5831999999880821,0.5998999999761594,0.616500000000002,0.6332999999523281,0.6497999999523216,0.6664999999999992,0.6832999999523253,0.7000000000000028,0.7171999999880825,0.7333999999761573,0.7500999999642488,0.7666999999880773,0.7833999999761687,0.8002999999523155,0.8167999999523232,0.8333999999761659,0.8500999999642431,0.8668999999761695,0.8835999999642468,0.9001999999880894,0.9170999999642362,0.9336999999880788,0.9502999999523212,0.9672999999523171,0.9836999999880902,1.0003999999761675,1.0172999999523142,1.0336999999880874,1.0504999999999995,1.067199999988091,1.0837999999523191,1.1006999999880804,1.1171999999880882,1.1340000000000003,1.150500000000008,1.16729999995232,1.1841999999880812,1.2007999999523236,1.217299999952317,1.2340999999642435,1.2506999999880861,1.267699999988082,1.284000000000006,1.300899999976167,1.3176999999880792,1.334199999988087,1.350999999999999,1.3675000000000068,1.384799999952321,1.4008999999761613,1.41819999998809,1.4344999999999999,1.4511999999880771,1.4677999999523195]",0,0,0,0,1,0.1661,,,,
