身分證字號,date,expName,psychopyVersion,OS,frameRate,from,to,w,a,id,sequence_loop.thisN,enter_time,mouse.x,mouse.y,mouse.leftButton,mouse.midButton,mouse.rightButton,mouse.time,trial_loop.thisRepN,trial_loop.thisTrialN,trial_loop.thisN,trial_loop.thisIndex,trial_loop.ran,leave_time,sequence_loop.thisRepN,sequence_loop.thisTrialN,sequence_loop.thisIndex,sequence_loop.ran
T111111111,2024-11-28_11h03.22.460,GoFitts,2023.2.3,Win32,60.24096386,,,,,,,,,,,,,,,,,,,,,,,
T111111111,2024-11-28_11h03.22.460,GoFitts,2023.2.3,Win32,60.24096386,,,,,,,,,,,,,,,,,,,,,,,
T111111111,2024-11-28_11h03.22.460,GoFitts,2023.2.3,Win32,60.24096386,"[8.5,-10]","[-13.343791300321433,126.957693632343]",41,255.3140242,3.75,0,1.0137,"[8.5,8.5,8.5,8.5,8.5,8.5,8.5,8.5,8.5,8.5,8.5,8.5,8.5,8.5,8.5,8.5,8.5,8.5,8.5,8.5,8.5,8.5,8.5,8.5,8.5,8.5,8.5,8.5,8.5,8.5,8.5,8.5,8.5,8.5,8.5,8.5,8.5,8.5,8.5,8.5,6,2.5,1.5,0.5,-0.49993896484375,-2.99993896484375,-12,-12.5,-15.49993896484375,-16,-17,-18.5,-18.5,-20,-20,-20,-20,-20.49993896484375,-20.49993896484375,-25,-25,-27,-27,-29,-29,-29,-29,-29,-27.99993896484375,-27.99993896484375,-27.99993896484375,-27,-27,-25.49993896484375,-25,-25,-25,-23.5,-23.5,-23.5,-23.5,-23.5,-23.5,-23.5,-23.5,-23.5,-23.5,-23.5,-23.5,-23.5,-23.5,-23.5,-23.5]","[-10,-10,-10,-10,-10,-10,-10,-10,-10,-10,-10,-10,-10,-10,-10,-10,-10,-10,-10,-10,-10,-10,-10,-10,-10,-10,-10,-10,-10,-10,-10,-10,-10,-10,-10,-10,-10,-10,-10,-10,12,36,43.999969482421875,47.5,51,55.5,73.5,76,80.5,83.5,83.5,88,88.99996948242188,91,91.49996948242188,91.49996948242188,93,93,94.5,106,107.5,113.99996948242188,115.5,118,118,120,121.49996948242188,121.49996948242188,122.5,123,123,123.99996948242188,123.99996948242188,125,126,126,126,126.49996948242188,126.49996948242188,126.49996948242188,126.49996948242188,126.49996948242188,126.49996948242188,126.49996948242188,126.49996948242188,126.49996948242188,126.49996948242188,126.49996948242188,126.49996948242188,126.49996948242188,126.49996948242188,126.49996948242188,126.49996948242188]","[0,0,0,0,0,0,0,0,0,0,0,0,0,0,0,0,0,0,0,0,0,0,0,0,0,0,0,0,0,0,0,0,0,0,0,0,0,0,0,0,0,0,0,0,0,0,0,0,0,0,0,0,0,0,0,0,0,0,0,0,0,0,0,0,0,0,0,0,0,0,0,0,0,0,0,0,0,0,0,0,0,0,0,0,0,0,0,0,0,0,0,0,0]","[0,0,0,0,0,0,0,0,0,0,0,0,0,0,0,0,0,0,0,0,0,0,0,0,0,0,0,0,0,0,0,0,0,0,0,0,0,0,0,0,0,0,0,0,0,0,0,0,0,0,0,0,0,0,0,0,0,0,0,0,0,0,0,0,0,0,0,0,0,0,0,0,0,0,0,0,0,0,0,0,0,0,0,0,0,0,0,0,0,0,0,0,0]","[0,0,0,0,0,0,0,0,0,0,0,0,0,0,0,0,0,0,0,0,0,0,0,0,0,0,0,0,0,0,0,0,0,0,0,0,0,0,0,0,0,0,0,0,0,0,0,0,0,0,0,0,0,0,0,0,0,0,0,0,0,0,0,0,0,0,0,0,0,0,0,0,0,0,0,0,0,0,0,0,0,0,0,0,0,0,0,0,0,0,0,0,0]","[0.00020000001788034183,0.014900000005958702,0.030300000011919792,0.04680000001192042,0.06340000000595936,0.08010000002384032,0.09680000001192113,0.11340000000596007,0.129999999999999,0.14670000001787997,0.1633000000119189,0.18020000001788006,0.19670000001788068,0.2132000000178813,0.2301000000238389,0.24660000002383953,0.26330000001192033,0.2799999999999976,0.2968000000119204,0.31340000000595936,0.3299999999999983,0.34680000001192113,0.36340000000596007,0.379999999999999,0.39660000002384166,0.4134999999999991,0.4299999999999997,0.4467000000178807,0.46370000001788014,0.4799999999999969,0.4967000000178814,0.5132000000178785,0.529800000011921,0.5464999999999982,0.5632000000178792,0.5798000000119181,0.596600000023841,0.6131000000238416,0.6299000000059607,0.6464999999999996,0.6634000000059608,0.6801000000238417,0.6967000000178807,0.7134999999999998,0.7299999999999969,0.7466000000238395,0.7633000000119203,0.7805,0.7967000000178786,0.8132000000178792,0.8302000000178786,0.846600000023841,0.8633000000119182,0.8799000000059607,0.89670000001788,0.9131000000238387,0.9299999999999997,0.9464999999999968,0.9633000000119196,0.9799999999999969,0.9973000000119185,1.0137000000178809,1.029800000011921,1.04640000000596,1.0627000000178803,1.07990000000596,1.0964000000059606,1.1129000000059577,1.1297000000178805,1.1463000000119195,1.1629000000059584,1.1799000000059578,1.19610000002384,1.2129999999999974,1.2299000000059586,1.2464999999999975,1.2629999999999981,1.2796000000238408,1.2961000000238414,1.3129000000059605,1.3294999999999995,1.3461000000238421,1.3628000000119194,1.3794000000059583,1.3959999999999972,1.4127000000178782,1.429400000005959,1.445999999999998,1.4626000000238406,1.4792000000178795,1.4959999999999987,1.5127000000178796,1.5296000000238408]",0,0,0,0,1,,,,,
T111111111,2024-11-28_11h03.22.460,GoFitts,2023.2.3,Win32,60.24096386,"[-13.343791300321433,126.957693632343]","[39.44818619052554,-121.40903321000471]",41,255.3140242,3.75,0,0.4992,"[-23.5,-23.5,-22,-17,-7,-3.5,-0.49993896484375,2.5,3.5,15.5,18.5,21.5,22.5,24,26,29,32.00006103515625,33,33.5,35,38,42.00006103515625,42.00006103515625,42.5,43.5,44.50006103515625,44.50006103515625,44.50006103515625,44.50006103515625,44.50006103515625,44,44,43.5,43.5,43.5,43.5,42.5,42.5,42.00006103515625,39.50006103515625,39.50006103515625,39.50006103515625,38,38,38,38,38,38,38,38,38,38,38,38,38,38,38,38,38,38,38,38]","[126.49996948242188,126.49996948242188,122.5,106.49996948242188,81.49996948242188,72,63.999969482421875,57,51.499969482421875,17,4.5,-3.5,-8,-14.5,-21,-33,-40,-44,-48,-51,-65.5,-75,-75,-82,-86.5,-89.5,-90.5,-92.5,-97,-98.5,-108,-108,-110,-111.5,-111.5,-111.5,-113,-113,-113.5,-115,-115,-115,-116,-116,-116,-116,-116,-116,-116,-116,-116,-116,-116,-116,-116,-116,-116,-116,-116,-116,-116,-116]","[0,0,0,0,0,0,0,0,0,0,0,0,0,0,0,0,0,0,0,0,0,0,0,0,0,0,0,0,0,0,0,0,0,0,0,0,0,0,0,0,0,0,0,0,0,0,0,0,0,0,0,0,0,0,0,0,0,0,0,0,0,0]","[0,0,0,0,0,0,0,0,0,0,0,0,0,0,0,0,0,0,0,0,0,0,0,0,0,0,0,0,0,0,0,0,0,0,0,0,0,0,0,0,0,0,0,0,0,0,0,0,0,0,0,0,0,0,0,0,0,0,0,0,0,0]","[0,0,0,0,0,0,0,0,0,0,0,0,0,0,0,0,0,0,0,0,0,0,0,0,0,0,0,0,0,0,0,0,0,0,0,0,0,0,0,0,0,0,0,0,0,0,0,0,0,0,0,0,0,0,0,0,0,0,0,0,0,0]","[0,0.015400000005957537,0.03249999999999886,0.04960000002384035,0.06570000001788046,0.0823000000119194,0.09890000000595833,0.11620000001788,0.13250000000000028,0.14910000002383939,0.16570000001787832,0.18230000001192082,0.19899999999999807,0.21540000000596038,0.23220000001787966,0.2491000000238408,0.26560000002384143,0.2823000000119187,0.2989000000059576,0.3155000000000001,0.3321000000238392,0.34890000000595833,0.3652000000178788,0.38220000001787824,0.39880000001192073,0.4157000000178783,0.43220000001787895,0.44899999999999807,0.46570000001787903,0.48210000002384135,0.499300000011921,0.5152000000178809,0.5322000000178804,0.5489999999999995,0.5654000000059582,0.5819000000059589,0.5989000000059583,0.6153000000119206,0.6321000000238399,0.6488000000119207,0.6651000000238412,0.6818000000119184,0.6988000000119179,0.7153000000119185,0.7317000000178808,0.7484000000059581,0.7652000000178809,0.7818000000119198,0.7983000000119205,0.8149999999999977,0.8317000000178787,0.8484999999999978,0.8652000000178788,0.8819999999999979,0.8984999999999985,0.9152000000178795,0.9318000000119184,0.9484999999999992,0.9649999999999999,0.9818000000119191,0.9984000000059581,1.0153000000119192]",1,0,1,0,1,0.0495,,,,
T111111111,2024-11-28_11h03.22.460,GoFitts,2023.2.3,Win32,60.24096386,"[39.44818619052554,-121.40903321000471]","[-63.82850605080457,110.55421545121108]",41,255.3140242,3.75,0,0.9156,"[38,38,38,38,38,38,38,38,38,38,38,38,38,38,38,38,38,38,32.5,29,11,7.00006103515625,-7,-10.49993896484375,-16,-19,-20,-23.5,-27,-29,-32.5,-37.5,-39,-42.5,-46,-47.5,-47.99993896484375,-50,-52.5,-54.5,-57.99993896484375,-62,-63.5,-65,-66.5,-68.5,-70,-71.5,-72.99993896484375,-72.99993896484375,-72.99993896484375,-73.5,-75,-75,-75,-75,-74,-74,-74,-73.5,-72.5,-72.5,-72.5,-72,-72,-72,-68.5,-66,-63.5,-63.5,-63.5,-63.5,-63.5,-63.5,-63.5,-63.5,-63.5,-63.5,-63.5,-63.5,-63.5,-63.5,-63.5,-63.5,-63.5,-63.5,-63.5]","[-116,-116,-116,-116,-116,-116,-116,-116,-116,-116,-116,-116,-116,-116,-116,-116,-116,-116,-103,-97,-62.5,-52,-16.5,5.5,33,58,68.5,94.5,103,107,115.5,119.5,123.99996948242188,126.49996948242188,131,132,132,133.5,134.5,136.49996948242188,138,138.99996948242188,138.99996948242188,138.99996948242188,138.99996948242188,138.99996948242188,138.5,135.5,134.5,133,133,132.5,131,129.5,128,127,125.5,125,125,123.5,122,122,122,120.5,120.5,120.5,119.5,117.5,117,117,117,117,117,117,117,117,117,117,117,117,117,117,117,117,117,117,117]","[0,0,0,0,0,0,0,0,0,0,0,0,0,0,0,0,0,0,0,0,0,0,0,0,0,0,0,0,0,0,0,0,0,0,0,0,0,0,0,0,0,0,0,0,0,0,0,0,0,0,0,0,0,0,0,0,0,0,0,0,0,0,0,0,0,0,0,0,0,0,0,0,0,0,0,0,0,0,0,0,0,0,0,0,0,0,0]","[0,0,0,0,0,0,0,0,0,0,0,0,0,0,0,0,0,0,0,0,0,0,0,0,0,0,0,0,0,0,0,0,0,0,0,0,0,0,0,0,0,0,0,0,0,0,0,0,0,0,0,0,0,0,0,0,0,0,0,0,0,0,0,0,0,0,0,0,0,0,0,0,0,0,0,0,0,0,0,0,0,0,0,0,0,0,0]","[0,0,0,0,0,0,0,0,0,0,0,0,0,0,0,0,0,0,0,0,0,0,0,0,0,0,0,0,0,0,0,0,0,0,0,0,0,0,0,0,0,0,0,0,0,0,0,0,0,0,0,0,0,0,0,0,0,0,0,0,0,0,0,0,0,0,0,0,0,0,0,0,0,0,0,0,0,0,0,0,0,0,0,0,0,0,0]","[0,0.015499999999999403,0.03200000000000003,0.04880000001191931,0.06550000000000011,0.08190000000595887,0.09859999999403968,0.11550000000000082,0.13219999998807808,0.1486999999880787,0.16549999999999798,0.18209999999403692,0.1986999999880794,0.21519999998807648,0.23209999999403763,0.24869999998807657,0.2654000000059611,0.28190000000595816,0.2993000000119217,0.31540000000595825,0.33219999998807737,0.3490999999940385,0.36540000000595896,0.3819000000059596,0.3986999999880787,0.415499999999998,0.4319999999999986,0.44859999999403755,0.4653000000119185,0.48180000001191914,0.49869999998807657,0.5154999999999994,0.5323000000119187,0.5488000000119193,0.5655999999940384,0.5818000000119206,0.598699999988078,0.6155000000000008,0.6315999999940374,0.6484000000059602,0.6651999999880793,0.6820999999940369,0.6984999999999992,0.7154000000059604,0.7320999999940376,0.7485999999940383,0.7653000000119192,0.782,0.7985000000000007,0.8159000000059606,0.8320000000000007,0.8484000000059595,0.865400000005959,0.8819000000059596,0.8985999999940368,0.9155999999940398,0.9318000000119184,0.9484999999999992,0.9648000000119197,0.9815999999940388,0.9981999999880777,1.0148000000119204,1.0314999999999976,1.0484000000059588,1.064800000011921,1.0814999999999984,1.0984000000059595,1.1149999999999984,1.1318000000119213,1.1479999999999997,1.164699999988077,1.1813000000119196,1.1980000000000004,1.2146999999880776,1.2315000000000005,1.2481999999880777,1.26459999999404,1.281300000011921,1.2979999999999983,1.314800000011921,1.3311999999880797,1.3480999999940373,1.3648000000119183,1.381499999999999,1.398099999994038,1.4145000000000003,1.4311999999880776]",2,0,2,0,1,0.3154,,,,
T111111111,2024-11-28_11h03.22.460,GoFitts,2023.2.3,Win32,60.24096386,"[-63.82850605080457,110.55421545121108]","[85.41921391350989,-94.86764797921595]",41,255.3140242,3.75,0,0.5498,"[-63.5,-63.5,-63.5,-63.5,-63.5,-63.5,-63.5,-63.5,-63.5,-60,-60,-47.5,-42,-22.99993896484375,-17.99993896484375,2.00006103515625,4,13.5,19,31,33.5,38,40,45,47.5,49.50006103515625,52.00006103515625,53.5,56,57.00006103515625,57.5,58.5,62.00006103515625,66,69.5,70.5,72,72,72.5,72.5,72.5,74,75,75,77,77.5,77.5,77.5,79,79,80,80,80,80,80,80,80,80,80,80,80,80,80,80,80]","[117,117,117,117,117,117,117,117,117,111.49996948242188,111.49996948242188,94.5,85.5,62.5,55,33,28.999969482421875,17,7,-20.5,-29,-40.5,-44.5,-55,-61,-64.5,-69,-72.5,-77.5,-79,-79.5,-81,-87,-96.5,-101,-103.5,-106.5,-106.5,-107.00006103515625,-108,-108,-108,-108,-108,-108,-108,-108,-108,-108,-108,-108,-108,-108,-108,-108,-108,-108,-108,-108,-108,-108,-108,-108,-108,-108]","[0,0,0,0,0,0,0,0,0,0,0,0,0,0,0,0,0,0,0,0,0,0,0,0,0,0,0,0,0,0,0,0,0,0,0,0,0,0,0,0,0,0,0,0,0,0,0,0,0,0,0,0,0,0,0,0,0,0,0,0,0,0,0,0,0]","[0,0,0,0,0,0,0,0,0,0,0,0,0,0,0,0,0,0,0,0,0,0,0,0,0,0,0,0,0,0,0,0,0,0,0,0,0,0,0,0,0,0,0,0,0,0,0,0,0,0,0,0,0,0,0,0,0,0,0,0,0,0,0,0,0]","[0,0,0,0,0,0,0,0,0,0,0,0,0,0,0,0,0,0,0,0,0,0,0,0,0,0,0,0,0,0,0,0,0,0,0,0,0,0,0,0,0,0,0,0,0,0,0,0,0,0,0,0,0,0,0,0,0,0,0,0,0,0,0,0,0]","[0.0000999999940418661,0.016299999982120283,0.03269999998807904,0.049500000000001876,0.06619999998807913,0.08289999997615993,0.09939999997616056,0.11619999998807984,0.13279999998211878,0.1497999999821218,0.16600000000000037,0.1836999999880824,0.19959999999404232,0.21639999997616144,0.2328999999761585,0.24959999999403948,0.2663999999761586,0.28300000000000125,0.2995000000000019,0.316299999982121,0.33300000000000196,0.3497999999821211,0.36619999998807984,0.383099999994041,0.3995999999940416,0.41659999999404107,0.4327999999821195,0.44950000000000045,0.4662999999821196,0.4830999999940424,0.4995999999940395,0.5165999999940425,0.5328999999761592,0.5497999999821204,0.5660000000000025,0.583000000000002,0.5992999999821187,0.615699999988081,0.6327999999821188,0.6492999999821194,0.66579999998212,0.6826999999880812,0.6992999999821201,0.7156999999880789,0.73259999999404,0.7493999999761591,0.7655999999940413,0.7830000000000013,0.7993999999761598,0.815599999994042,0.8328999999761599,0.8491999999880804,0.8658999999761612,0.8823999999761583,0.8990000000000009,0.91579999998212,0.9325999999940429,0.9491999999880818,0.965899999976159,0.9825000000000017,0.9990999999940406,1.0158999999761598,1.0325999999940407,1.0490999999940414,1.0660000000000025]",3,0,3,0,1,0.1837,,,,
T111111111,2024-11-28_11h03.22.460,GoFitts,2023.2.3,Win32,60.24096386,"[85.41921391350989,-94.86764797921595]","[-103.27669224133015,75.03490906504767]",41,255.3140242,3.75,0,1.0327,"[80,80,80,80,80,80,80,80,80,80,80,80,80,80,80,80,80,80,68,47.5,11,-26.5,-50,-60.49993896484375,-71.5,-93.5,-97,-104.5,-115.49993896484375,-134,-151.5,-162.5,-169,-174,-174,-175.49993896484375,-175.49993896484375,-177,-177,-177,-177,-177,-177,-175,-164,-151.5,-145,-144,-142,-140.49993896484375,-139,-137.99993896484375,-137.5,-137.5,-136,-136,-135.49993896484375,-134.5,-132.99993896484375,-129.5,-127.99993896484375,-124.5,-117.5,-117.5,-113.5,-113.5,-112.5,-109.5,-107.99993896484375,-107,-105.49993896484375,-105.49993896484375,-105,-105,-105,-105,-105,-105,-105,-105,-105,-105,-105,-105,-105,-105,-105,-105,-105,-105,-105,-105,-105,-105]","[-108,-108,-108,-108,-108,-108,-108,-108,-108,-108,-108,-108,-108,-108,-108,-108,-108,-108,-98,-76,-42.5,-10.5,5.5,12.5,19,35.5,38.5,45,51.499969482421875,58.5,63.5,66,66.49996948242188,66.49996948242188,66.49996948242188,66.49996948242188,66.49996948242188,66.49996948242188,66.49996948242188,66.49996948242188,66.49996948242188,66.49996948242188,66.49996948242188,67.5,73.5,78.99996948242188,82.5,83.5,83.99996948242188,85.5,85.5,86.49996948242188,86.49996948242188,86.49996948242188,86.49996948242188,86.49996948242188,86,86,85.5,84.5,83.5,81,80,80,80,80,80,79.5,79.5,79.5,79.5,79.5,79.5,79.5,79.5,79.5,79.5,79.5,79.5,79.5,79.5,79.5,79.5,79.5,79.5,79.5,79.5,79.5,79.5,79.5,79.5,79.5,79.5,79.5]","[0,0,0,0,0,0,0,0,0,0,0,0,0,0,0,0,0,0,0,0,0,0,0,0,0,0,0,0,0,0,0,0,0,0,0,0,0,0,0,0,0,0,0,0,0,0,0,0,0,0,0,0,0,0,0,0,0,0,0,0,0,0,0,0,0,0,0,0,0,0,0,0,0,0,0,0,0,0,0,0,0,0,0,0,0,0,0,0,0,0,0,0,0,0]","[0,0,0,0,0,0,0,0,0,0,0,0,0,0,0,0,0,0,0,0,0,0,0,0,0,0,0,0,0,0,0,0,0,0,0,0,0,0,0,0,0,0,0,0,0,0,0,0,0,0,0,0,0,0,0,0,0,0,0,0,0,0,0,0,0,0,0,0,0,0,0,0,0,0,0,0,0,0,0,0,0,0,0,0,0,0,0,0,0,0,0,0,0,0]","[0,0,0,0,0,0,0,0,0,0,0,0,0,0,0,0,0,0,0,0,0,0,0,0,0,0,0,0,0,0,0,0,0,0,0,0,0,0,0,0,0,0,0,0,0,0,0,0,0,0,0,0,0,0,0,0,0,0,0,0,0,0,0,0,0,0,0,0,0,0,0,0,0,0,0,0,0,0,0,0,0,0,0,0,0,0,0,0,0,0,0,0,0,0]","[0.00009999999403831339,0.016099999994040104,0.03249999999999886,0.04899999999999949,0.06599999999999895,0.08249999999999957,0.09909999999403851,0.11589999997615763,0.13250000000000028,0.14909999999403922,0.16579999998212003,0.18239999997615897,0.19900000000000162,0.21559999999404056,0.2322999999821178,0.24919999998807896,0.2656999999880796,0.2821999999880802,0.29909999999404135,0.3160999999940408,0.33259999999404144,0.3492999999821187,0.36619999998807984,0.3825000000000003,0.39919999998807754,0.41600000000000037,0.432500000000001,0.44919999998807825,0.46569999998807887,0.4825000000000017,0.49919999998807896,0.5161999999880784,0.5323999999761568,0.5491999999880797,0.5655999999940384,0.5826999999880798,0.5987999999821199,0.6159999999999997,0.6322999999821199,0.6490000000000009,0.6653999999761595,0.682500000000001,0.6990999999940399,0.7154999999999987,0.7320999999940412,0.7490999999940406,0.7655999999940413,0.7823999999761568,0.7988999999761575,0.8156999999880803,0.8322999999821192,0.848699999988078,0.8653999999761588,0.8818999999761594,0.8987999999821206,0.9152999999821176,0.9318999999761601,0.9490999999940399,0.9657999999821172,0.9822999999821178,0.9988999999761567,1.0154999999999994,1.032699999988079,1.0485000000000007,1.0652999999821198,1.0820000000000007,1.0988999999761582,1.1155000000000008,1.1320999999940398,1.1487999999821206,1.1655000000000015,1.1819999999999986,1.1986999999880794,1.2149999999999999,1.2318999999761573,1.2485,1.2650999999940389,1.282,1.298599999994039,1.3150999999940396,1.3316999999880785,1.3483999999761593,1.3650999999940403,1.3818999999761594,1.3984999999999985,1.4151999999880793,1.4318999999761601,1.448599999994041,1.4652999999821184,1.4818999999761573,1.4985999999940383,1.515299999982119,1.5317999999821197,1.548599999994039]",4,0,4,0,1,0.3161,,,,
T111111111,2024-11-28_11h03.22.460,GoFitts,2023.2.3,Win32,60.24096386,"[-103.27669224133015,75.03490906504767]","[116.62048354165162,-51.922784567295324]",41,255.3140242,3.75,0,0.7498,"[-105,-105,-105,-105,-105,-105,-105,-105,-105,-105,-105,-105,-93.5,-80,-75.49993896484375,-64,-53.5,-41,-32.5,-21.5,-12.99993896484375,-6,9.50006103515625,22.5,25.5,29,33.5,35.5,39,44,48.5,54,55.5,58,62.00006103515625,62.5,72,73.5,78.5,81,84.5,86,87,91.5,93.5,96.5,96.5,97.5,97.5,99,99,99,100,100,100,100,101.5,103,103,103,104,104,104,104,104,104,104,104,104,104,104,104,104,104,104,104,104]","[79.5,79.5,79.5,79.5,79.5,79.5,79.5,79.5,79.5,79.5,79.5,79.5,73,63.5,58.999969482421875,50.5,42.5,36.499969482421875,31,25,20,15,6,-3,-4,-5.5,-8,-9,-10.5,-11.5,-13,-14.5,-14.5,-17,-18.5,-19.5,-26.5,-28.5,-32,-35.5,-39.5,-40.5,-43,-47.5,-52,-53.5,-54.5,-55,-55,-56.5,-56.5,-56.5,-56.5,-56.5,-56.5,-56.5,-56.5,-56.5,-56.5,-56.5,-56.5,-56.5,-56.5,-56.5,-56.5,-56.5,-56.5,-56.5,-56.5,-56.5,-56.5,-56.5,-56.5,-56.5,-56.5,-56.5,-56.5]","[0,0,0,0,0,0,0,0,0,0,0,0,0,0,0,0,0,0,0,0,0,0,0,0,0,0,0,0,0,0,0,0,0,0,0,0,0,0,0,0,0,0,0,0,0,0,0,0,0,0,0,0,0,0,0,0,0,0,0,0,0,0,0,0,0,0,0,0,0,0,0,0,0,0,0,0,0]","[0,0,0,0,0,0,0,0,0,0,0,0,0,0,0,0,0,0,0,0,0,0,0,0,0,0,0,0,0,0,0,0,0,0,0,0,0,0,0,0,0,0,0,0,0,0,0,0,0,0,0,0,0,0,0,0,0,0,0,0,0,0,0,0,0,0,0,0,0,0,0,0,0,0,0,0,0]","[0,0,0,0,0,0,0,0,0,0,0,0,0,0,0,0,0,0,0,0,0,0,0,0,0,0,0,0,0,0,0,0,0,0,0,0,0,0,0,0,0,0,0,0,0,0,0,0,0,0,0,0,0,0,0,0,0,0,0,0,0,0,0,0,0,0,0,0,0,0,0,0,0,0,0,0,0]","[0,0.015400000005957537,0.03200000000000003,0.04859999999403897,0.06530000001191993,0.08199999999999719,0.09859999999403968,0.11540000000595896,0.13190000000595958,0.14859999999403684,0.16549999999999798,0.18180000001191843,0.1988000000119179,0.21630000001191974,0.23220000001787966,0.2488000000119186,0.26599999999999824,0.2825999999940372,0.29940000000596,0.3155999999940384,0.33280000001191823,0.3484000000059595,0.36540000000595896,0.38209999999403976,0.39870000001787886,0.4155999999940363,0.4323000000119208,0.4487000000178796,0.46570000001787903,0.48249999999999815,0.49859999999403826,0.5159000000059599,0.5320999999940383,0.5488000000119193,0.5654000000059582,0.5817000000178787,0.5987000000178782,0.6152000000178788,0.6318000000119177,0.6484999999999985,0.6652000000178795,0.6819000000059603,0.6985999999940375,0.7149999999999999,0.7319999999999993,0.7498000000119198,0.7654000000059575,0.7815999999940395,0.7982000000178786,0.8152000000178816,0.8314999999999984,0.8487000000178782,0.8654999999999973,0.8818000000119177,0.8979000000059578,0.914800000011919,0.9317000000178801,0.948300000011919,0.9652000000178802,0.9817000000178808,0.9987000000178803,1.0147000000178785,1.0314000000059593,1.0482000000178786,1.0647000000178792,1.0817000000178787,1.0980999999940373,1.1148000000119183,1.1312000000178806,1.1479999999999997,1.1645999999940386,1.1812000000178813,1.1979999999999968,1.2145999999940393,1.2314000000059586,1.2479000000059592,1.2647000000178785]",5,0,5,0,1,0.2162,,,,
T111111111,2024-11-28_11h03.22.460,GoFitts,2023.2.3,Win32,60.24096386,"[116.62048354165162,-51.922784567295324]","[-124.86740010403544,26.54138523078873]",41,255.3140242,3.75,0,0.7826,"[104,104,104,104,104,104,104,104,104,104,104,101.5,84,60,47.00006103515625,32.00006103515625,22.5,13.5,9.50006103515625,-6.5,-12,-23.5,-26.5,-30.49993896484375,-47,-60,-65.49993896484375,-65.49993896484375,-67,-67,-67.99993896484375,-69,-69,-69,-69,-72.5,-77,-78.5,-81.5,-85,-87,-89.5,-91,-92.99993896484375,-99,-100.49993896484375,-104,-106.5,-109,-110.49993896484375,-112,-113.5,-113.5,-113.5,-113.5,-113.5,-113.5,-113.5,-113.5,-113.5,-113.5,-113.5,-113.5,-113.5,-113.5,-113.5,-113.5,-113.5,-113.5,-113.5,-113.5,-113.5,-113.5,-113.5,-113.5,-113.5,-113.5,-113.5,-113.5]","[-56.5,-56.5,-56.5,-56.5,-56.5,-56.5,-56.5,-56.5,-56.5,-56.5,-56.5,-55.5,-52,-43,-39.5,-34,-31,-30,-29,-24,-23,-20,-19,-17,-12.5,-10,-9,-9,-9,-9,-9,-8.5,-8.5,-8.5,-8.5,-4,2.5,6,8,11.5,13.5,14.5,14.5,15,16,16.5,16.5,18,18,17.5,17.5,17,17,17,17,17,17,17,17,17,17,17,17,17,17,17,17,17,17,17,17,17,17,17,17,17,17,17,17]","[0,0,0,0,0,0,0,0,0,0,0,0,0,0,0,0,0,0,0,0,0,0,0,0,0,0,0,0,0,0,0,0,0,0,0,0,0,0,0,0,0,0,0,0,0,0,0,0,0,0,0,0,0,0,0,0,0,0,0,0,0,0,0,0,0,0,0,0,0,0,0,0,0,0,0,0,0,0,0]","[0,0,0,0,0,0,0,0,0,0,0,0,0,0,0,0,0,0,0,0,0,0,0,0,0,0,0,0,0,0,0,0,0,0,0,0,0,0,0,0,0,0,0,0,0,0,0,0,0,0,0,0,0,0,0,0,0,0,0,0,0,0,0,0,0,0,0,0,0,0,0,0,0,0,0,0,0,0,0]","[0,0,0,0,0,0,0,0,0,0,0,0,0,0,0,0,0,0,0,0,0,0,0,0,0,0,0,0,0,0,0,0,0,0,0,0,0,0,0,0,0,0,0,0,0,0,0,0,0,0,0,0,0,0,0,0,0,0,0,0,0,0,0,0,0,0,0,0,0,0,0,0,0,0,0,0,0,0,0]","[0,0.01580000001192161,0.03240000000596055,0.04899999999999949,0.06580000001191877,0.08240000000596126,0.09909999999403851,0.11570000001788117,0.13240000000595842,0.14949999999999974,0.16600000000000037,0.18280000001191965,0.19909999999403993,0.21620000001788142,0.23290000000595867,0.24920000001787912,0.2659000000059599,0.28249999999999886,0.29920000001787983,0.31590000000596064,0.3325999999940379,0.3490999999940385,0.3664000000059602,0.38320000001787946,0.39920000001788125,0.4159000000059585,0.4325999999940393,0.44899999999999807,0.4659999999999975,0.48220000001787966,0.4992000000178791,0.5158000000119216,0.5324000000059605,0.5489000000059612,0.5655000000000001,0.5825999999940379,0.5990000000000002,0.616099999994038,0.6328000000119189,0.6492000000178813,0.6658000000119202,0.6830999999940381,0.6990999999940399,0.7159000000059592,0.7324000000059598,0.7490999999940371,0.7655999999940377,0.7825999999940372,0.7989999999999995,0.8155000000000001,0.8323000000119194,0.8489000000059583,0.8653000000119206,0.8819000000059596,0.8985999999940368,0.9153000000119214,0.9319999999999986,0.9485999999940375,0.9652000000178802,0.981900000005961,0.9987000000178803,1.0150999999940389,1.0319000000059582,1.048599999994039,1.06530000001192,1.0819000000059589,1.0985999999940397,1.1150999999940403,1.1319000000059596,1.1485999999940368,1.1654000000059597,1.1817000000178801,1.1988000000119214,1.2154999999999987,1.2319999999999993,1.2487000000178803,1.265200000017881,1.2817000000178815,1.298599999994039]",6,0,6,0,1,0.199,,,,
T111111111,2024-11-28_11h03.22.460,GoFitts,2023.2.3,Win32,60.24096386,"[-124.86740010403544,26.54138523078873]","[127.6570121016092,0]",41,255.3140242,3.75,0,0.566,"[-113.5,-113.5,-113.5,-113.5,-82.99993896484375,-74.5,-59.5,-37.5,-29,-8.5,-2,4.50006103515625,7.00006103515625,23,25.5,33.5,38,40,44.50006103515625,46,48.5,55,55,58,64.5,66.5,69.5,73.5,80.5,92.5,99,105.5,105.5,109.5,110.5,112.5,112.5,112.5,114,115.5,115.5,116,117,117,117.5,117.5,117.5,117.5,120,120,120,120,120,120,120,120,120,120,120,120,120,120,120,120,120,120]","[17,17,17,17,16,16,16,16,16,16,16,16,15,13,13,12,11.5,10.5,10,9,6.5,4,4,3,2.5,2.5,2.5,2.5,2.5,5.5,6.5,9,9,10,10,10,10,10,9.5,8,8,7.5,7.5,7.5,7,7,7,7,7,7,7,7,7,7,7,7,7,7,7,7,7,7,7,7,7,7]","[0,0,0,0,0,0,0,0,0,0,0,0,0,0,0,0,0,0,0,0,0,0,0,0,0,0,0,0,0,0,0,0,0,0,0,0,0,0,0,0,0,0,0,0,0,0,0,0,0,0,0,0,0,0,0,0,0,0,0,0,0,0,0,0,0,0]","[0,0,0,0,0,0,0,0,0,0,0,0,0,0,0,0,0,0,0,0,0,0,0,0,0,0,0,0,0,0,0,0,0,0,0,0,0,0,0,0,0,0,0,0,0,0,0,0,0,0,0,0,0,0,0,0,0,0,0,0,0,0,0,0,0,0]","[0,0,0,0,0,0,0,0,0,0,0,0,0,0,0,0,0,0,0,0,0,0,0,0,0,0,0,0,0,0,0,0,0,0,0,0,0,0,0,0,0,0,0,0,0,0,0,0,0,0,0,0,0,0,0,0,0,0,0,0,0,0,0,0,0,0]","[0,0.01580000001192161,0.03240000000596055,0.049300000011921696,0.06630000001192116,0.08259999999403789,0.0990000000000002,0.11590000000596135,0.1326999999880769,0.14919999998807754,0.16600000000000037,0.18280000001191965,0.1998000000119191,0.21590000000595921,0.23240000000595984,0.24930000001192099,0.2658000000119216,0.28249999999999886,0.29919999998807967,0.31640000000595947,0.3328000000119218,0.34930000001191885,0.3658000000119195,0.3825999999940386,0.39919999998807754,0.41569999998807816,0.43309999999403814,0.44950000000000045,0.4658000000119209,0.48249999999999815,0.49909999999404064,0.5159000000059599,0.532,0.5491999999880797,0.565999999999999,0.5824999999999996,0.5985999999940397,0.615400000005959,0.6321999999880781,0.648900000005959,0.6653000000119214,0.6823000000119208,0.6996999999880771,0.7154000000059604,0.7323000000119215,0.7510000000000012,0.7653000000119192,0.7821999999880802,0.7994999999999983,0.8155000000000001,0.8319000000059589,0.848699999988078,0.865400000005959,0.8818000000119213,0.8985999999940404,0.9150999999940375,0.9319000000059603,0.9484999999999992,0.96519999998808,0.9819999999999993,0.9986999999880801,1.0153000000119192,1.0319000000059617,1.0486999999880773,1.06530000001192,1.0820000000000007]",7,0,7,0,1,0.0662,,,,
T111111111,2024-11-28_11h03.22.460,GoFitts,2023.2.3,Win32,60.24096386,"[127.6570121016092,0]","[-124.86740010403544,-26.5413852307887]",41,255.3140242,3.75,0,0.499,"[120,120,120,120,120,119.5,117,114.5,102,92.5,82.5,68.5,65,52.00006103515625,45,38.5,32.00006103515625,17.5,-2,-17.5,-24.5,-40,-55.49993896484375,-67.99993896484375,-81,-82.99993896484375,-84.5,-86,-92,-96,-107,-110.49993896484375,-117,-130.49993896484375,-135,-137,-137,-138.5,-139,-139,-139,-140.49993896484375,-140.49993896484375,-142,-142,-142,-142,-142,-142,-142,-142,-142,-142,-142,-142,-142,-142,-142,-142,-142,-142,-142]","[7,7,7,7,7,6,3.5,2.5,0,-3.5,-4.5,-5.5,-5.5,-6.5,-6.5,-6.5,-7.5,-9.5,-14,-16.5,-16.5,-19,-21,-22,-24,-24,-24,-24,-24,-22.5,-22,-22,-21,-19,-17,-16.5,-16.5,-16.5,-15.5,-15.5,-15.5,-15.5,-15.5,-15.5,-15.5,-15.5,-15.5,-15.5,-15.5,-15.5,-15.5,-15.5,-15.5,-15.5,-15.5,-15.5,-15.5,-15.5,-15.5,-15.5,-15.5,-15.5]","[0,0,0,0,0,0,0,0,0,0,0,0,0,0,0,0,0,0,0,0,0,0,0,0,0,0,0,0,0,0,0,0,0,0,0,0,0,0,0,0,0,0,0,0,0,0,0,0,0,0,0,0,0,0,0,0,0,0,0,0,0,0]","[0,0,0,0,0,0,0,0,0,0,0,0,0,0,0,0,0,0,0,0,0,0,0,0,0,0,0,0,0,0,0,0,0,0,0,0,0,0,0,0,0,0,0,0,0,0,0,0,0,0,0,0,0,0,0,0,0,0,0,0,0,0]","[0,0,0,0,0,0,0,0,0,0,0,0,0,0,0,0,0,0,0,0,0,0,0,0,0,0,0,0,0,0,0,0,0,0,0,0,0,0,0,0,0,0,0,0,0,0,0,0,0,0,0,0,0,0,0,0,0,0,0,0,0,0]","[0.0000999999940418661,0.015199999988080748,0.031900000005961715,0.04869999998808083,0.06519999998808146,0.08200000000000074,0.09859999999403968,0.11529999998212048,0.13219999998808163,0.14879999998212057,0.1652999999821212,0.18209999999404047,0.19850000000000279,0.21519999998808004,0.23209999999404118,0.2485999999940418,0.2654000000059611,0.2817999999821197,0.3075999999940393,0.3190000000000026,0.3321999999880809,0.34850000000000136,0.3652999999821205,0.38200000000000145,0.3985999999940404,0.4152999999821212,0.43169999998807995,0.4485999999940411,0.46529999998211835,0.481799999982119,0.4989999999999988,0.5150999999940389,0.5315999999940395,0.5485999999940425,0.5650000000000013,0.5820000000000043,0.5984999999999978,0.6150999999940403,0.6320999999940433,0.6482999999821182,0.6649000000059608,0.6817999999821218,0.6980999999940387,0.7149999999999999,0.7314000000059586,0.7480000000000011,0.7646999999880784,0.7814999999999976,0.7979000000059635,0.8147999999821174,0.831299999982118,0.8480000000000025,0.8645999999940379,0.8814999999999991,0.8979000000059649,0.9145999999940422,0.9314000000059615,0.948000000000004,0.9646999999880812,0.9814000000059586,0.9980000000000011,1.0150000000000041]",8,0,8,0,1,0.1321,,,,
T111111111,2024-11-28_11h03.22.460,GoFitts,2023.2.3,Win32,60.24096386,"[-124.86740010403544,-26.5413852307887]","[116.62048354165161,51.922784567295324]",41,255.3140242,3.75,0,0.5327,"[-142,-142,-142,-142,-142,-142,-142,-142,-117,-97.99993896484375,-77.5,-52.5,-40.49993896484375,-24,-15,-5.49993896484375,4.50006103515625,12.00006103515625,24,33,42.00006103515625,51.5,54,66,72,74.5,78.5,79.5,80,86,90.5,93,101.5,108.5,112,117.5,117.5,117.5,119,119,120,121.5,121.5,121.5,121.5,121.5,121.5,121.5,121.5,121.5,121.5,121.5,121.5,121.5,121.5,121.5,121.5,121.5,121.5,121.5,121.5,121.5,121.5,121.5]","[-15.5,-15.5,-15.5,-15.5,-15.5,-15.5,-15.5,-15.5,-11,-7,-0.5,5.5,8,11.5,13.5,14.5,15.5,16,18,19,21,23,23,25,26,27,27.5,28.5,28.5,31.499969482421875,33.5,34.5,38.999969482421875,42,44.5,48,48,48,48.999969482421875,48.999969482421875,48.999969482421875,50,50.5,50.5,50.5,50.5,50.5,50.5,50.5,50.5,50.5,50.5,50.5,50.5,50.5,50.5,50.5,50.5,50.5,50.5,50.5,50.5,50.5,50.5]","[0,0,0,0,0,0,0,0,0,0,0,0,0,0,0,0,0,0,0,0,0,0,0,0,0,0,0,0,0,0,0,0,0,0,0,0,0,0,0,0,0,0,0,0,0,0,0,0,0,0,0,0,0,0,0,0,0,0,0,0,0,0,0,0]","[0,0,0,0,0,0,0,0,0,0,0,0,0,0,0,0,0,0,0,0,0,0,0,0,0,0,0,0,0,0,0,0,0,0,0,0,0,0,0,0,0,0,0,0,0,0,0,0,0,0,0,0,0,0,0,0,0,0,0,0,0,0,0,0]","[0,0,0,0,0,0,0,0,0,0,0,0,0,0,0,0,0,0,0,0,0,0,0,0,0,0,0,0,0,0,0,0,0,0,0,0,0,0,0,0,0,0,0,0,0,0,0,0,0,0,0,0,0,0,0,0,0,0,0,0,0,0,0,0]","[0,0.015500000000002956,0.03210000002384561,0.04890000000596473,0.06540000000596535,0.08220000001788463,0.09880000001192002,0.11550000000000438,0.13240000000596552,0.1492000000178848,0.16550000000000153,0.18240000000596268,0.19900000000000517,0.2157000000178826,0.23230000001192508,0.24890000000596046,0.2658000000119216,0.28230000001192224,0.2989999999999995,0.31560000002384214,0.33220000001788463,0.34870000001788526,0.3659000000059649,0.38210000002384703,0.39910000002384294,0.41570000001788543,0.43220000001788605,0.44880000001192144,0.46540000000596393,0.48240000000595984,0.499300000011921,0.515500000000003,0.5327000000178828,0.5488000000119229,0.5653000000119235,0.5821000000238428,0.5986000000238434,0.615100000023844,0.6323000000119237,0.648900000005959,0.6654000000059597,0.6819000000059603,0.6986000000238448,0.7151000000238454,0.7322000000178832,0.7487000000178838,0.7654000000059611,0.7817000000178851,0.7983000000119205,0.8150000000000048,0.8317000000178822,0.8486000000238434,0.8652000000178859,0.882000000000005,0.8986000000238406,0.9153000000119249,0.9320000000000022,0.9485000000000028,0.9653000000119221,0.9819999999999993,0.998600000023842,1.0152000000178845,1.0320000000000036,1.048700000017881]",9,0,9,0,1,0.1492,,,,
T111111111,2024-11-28_11h03.22.460,GoFitts,2023.2.3,Win32,60.24096386,"[116.62048354165161,51.922784567295324]","[-103.27669224133018,-75.03490906504764]",41,255.3140242,3.75,0,0.5484,"[121.5,121.5,121.5,121.5,121.5,118,114,88.5,75.5,51,45.5,38,21,12.5,2.00006103515625,-2.5,-6,-7.5,-12.99993896484375,-15,-17,-26.5,-34.5,-39,-42.5,-45,-49.5,-52.99993896484375,-55.49993896484375,-59,-62.99993896484375,-70.49993896484375,-76,-87,-91,-94,-96.5,-96.5,-97.99993896484375,-97.99993896484375,-100,-101.5,-101.5,-102.99993896484375,-102.99993896484375,-102.99993896484375,-104.5,-104.5,-104.5,-104.5,-104.5,-104.5,-104.5,-104.5,-104.5,-104.5,-104.5,-104.5,-104.5,-104.5,-104.5,-104.5,-104.5,-104.5,-104.5]","[50.5,50.5,50.5,50.5,50.5,48.5,46.499969482421875,37,33.5,27.5,25,21.5,12,9,3.5,2.5,1,1,-2,-5,-6.5,-14,-19.5,-23,-27,-29.5,-34.5,-40,-41,-45.5,-51,-56.5,-61.5,-67,-70.5,-71,-71,-71,-71,-71,-71,-71,-71,-71,-71,-71,-71,-71,-71,-71,-71,-71,-71,-71,-71,-71,-71,-71,-71,-71,-71,-71,-71,-71,-71]","[0,0,0,0,0,0,0,0,0,0,0,0,0,0,0,0,0,0,0,0,0,0,0,0,0,0,0,0,0,0,0,0,0,0,0,0,0,0,0,0,0,0,0,0,0,0,0,0,0,0,0,0,0,0,0,0,0,0,0,0,0,0,0,0,0]","[0,0,0,0,0,0,0,0,0,0,0,0,0,0,0,0,0,0,0,0,0,0,0,0,0,0,0,0,0,0,0,0,0,0,0,0,0,0,0,0,0,0,0,0,0,0,0,0,0,0,0,0,0,0,0,0,0,0,0,0,0,0,0,0,0]","[0,0,0,0,0,0,0,0,0,0,0,0,0,0,0,0,0,0,0,0,0,0,0,0,0,0,0,0,0,0,0,0,0,0,0,0,0,0,0,0,0,0,0,0,0,0,0,0,0,0,0,0,0,0,0,0,0,0,0,0,0,0,0,0,0]","[0.0000999999940418661,0.01479999998212378,0.03159999999404306,0.048099999994043685,0.06519999998808146,0.08159999999404022,0.09869999998807799,0.11519999998807862,0.13169999998807924,0.14840000000596376,0.16550000000000153,0.18149999999999977,0.1982999999821189,0.21479999998211952,0.23169999998808066,0.24829999998212315,0.26500000000000057,0.28159999999404306,0.29819999998807845,0.31490000000596297,0.3320999999940426,0.34809999999404084,0.3649000000059601,0.3815000000000026,0.39829999998212173,0.4146999999880805,0.4316999999880835,0.44819999998808413,0.46469999998807765,0.48150000000000404,0.4980999999940394,0.5154000000059611,0.5312999999821173,0.5484000000059623,0.5646999999880791,0.5814000000059636,0.5981999999880827,0.6144000000059648,0.6312999999821187,0.6479000000059614,0.6645000000000039,0.681299999982123,0.6975000000000051,0.7145999999940429,0.7309000000059598,0.7480000000000047,0.7646999999880819,0.7809999999999988,0.7976999999880832,0.8141999999880838,0.8309000000059612,0.8475999999940385,0.8644000000059648,0.8809000000059655,0.8975000000000009,0.9141999999880781,0.9310000000000045,0.9475000000000051,0.9641999999880824,0.9809000000059598,0.9975000000000023,1.0142999999821214,1.0310999999940407,1.0476999999880832,1.0641999999880838]",10,0,10,0,1,0.1152,,,,
T111111111,2024-11-28_11h03.22.460,GoFitts,2023.2.3,Win32,60.24096386,"[-103.27669224133018,-75.03490906504764]","[85.41921391350986,94.86764797921597]",41,255.3140242,3.75,0,1.2159,"[-104.5,-104.5,-104.5,-104.5,-104.5,-104.5,-104.5,-104.5,-104.5,-104.5,-104.5,-104.5,-104.5,-104.5,-100.49993896484375,-96,-91.5,-85,-82.5,-76.5,-62.5,-49.5,-25,-19.5,-16.5,-13.5,-0.49993896484375,3.5,13,13,15,21.5,33.5,44,47.5,50.5,52.00006103515625,52.00006103515625,52.5,52.5,52.5,54,54,63,74.5,86,94.5,102,102.5,104,105.5,105.5,105.5,105.5,105.5,105.5,105.5,105.5,105.5,105.5,105.5,105.5,105.5,105.5,105.5,105.5,105.5,106,106,106,106,104.5,104.5,103.5,103.5,100.5,97,96.5,95.5,92.5,92.5,92.5,92,92,90.5,90.5,90.5,90.5,90.5,90.5,90.5,90.5,90.5,90.5,90.5,90.5,90.5,90.5,90.5,90.5,90.5,90.5,90.5,90.5,90.5]","[-71,-71,-71,-71,-71,-71,-71,-71,-71,-71,-71,-71,-71,-71,-68,-64.5,-60,-53.5,-51,-47.5,-31,-17,8.5,13.5,15.5,19.5,29.5,31.499969482421875,38.999969482421875,38.999969482421875,41.499969482421875,46,57,68.99996948242188,73.5,77,78.5,78.5,78.99996948242188,78.99996948242188,78.99996948242188,80.5,80.5,83,88.99996948242188,94.5,100,102.5,103.5,103.99996948242188,105.5,105.5,106.49996948242188,106.49996948242188,106.49996948242188,106.49996948242188,106.49996948242188,106.49996948242188,106.49996948242188,106.49996948242188,106.49996948242188,106.49996948242188,106.49996948242188,106.49996948242188,106.49996948242188,106.49996948242188,106.49996948242188,106,106,106,106,104.5,104.5,104.5,104.5,101.49996948242188,98.99996948242188,98,97.5,96,96,96,95,95,94.5,94.5,94.5,94.5,94.5,94.5,94.5,94.5,94.5,94.5,94.5,94.5,94.5,94.5,94.5,94.5,94.5,94.5,94.5,94.5,94.5]","[0,0,0,0,0,0,0,0,0,0,0,0,0,0,0,0,0,0,0,0,0,0,0,0,0,0,0,0,0,0,0,0,0,0,0,0,0,0,0,0,0,0,0,0,0,0,0,0,0,0,0,0,0,0,0,0,0,0,0,0,0,0,0,0,0,0,0,0,0,0,0,0,0,0,0,0,0,0,0,0,0,0,0,0,0,0,0,0,0,0,0,0,0,0,0,0,0,0,0,0,0,0,0,0,0]","[0,0,0,0,0,0,0,0,0,0,0,0,0,0,0,0,0,0,0,0,0,0,0,0,0,0,0,0,0,0,0,0,0,0,0,0,0,0,0,0,0,0,0,0,0,0,0,0,0,0,0,0,0,0,0,0,0,0,0,0,0,0,0,0,0,0,0,0,0,0,0,0,0,0,0,0,0,0,0,0,0,0,0,0,0,0,0,0,0,0,0,0,0,0,0,0,0,0,0,0,0,0,0,0,0]","[0,0,0,0,0,0,0,0,0,0,0,0,0,0,0,0,0,0,0,0,0,0,0,0,0,0,0,0,0,0,0,0,0,0,0,0,0,0,0,0,0,0,0,0,0,0,0,0,0,0,0,0,0,0,0,0,0,0,0,0,0,0,0,0,0,0,0,0,0,0,0,0,0,0,0,0,0,0,0,0,0,0,0,0,0,0,0,0,0,0,0,0,0,0,0,0,0,0,0,0,0,0,0,0,0]","[0,0.016099999994040104,0.032800000011924624,0.04940000000596001,0.06609999999404437,0.08300000000000551,0.09949999999999903,0.11609999999404153,0.13280000001192604,0.1495000000000033,0.16590000000596206,0.18270000001788134,0.19990000000596098,0.21600000000000108,0.23320000001788088,0.24980000001192337,0.266300000011924,0.2830999999940431,0.29980000001192053,0.3165000000000049,0.3330000000000055,0.3495999999940409,0.36620000001788355,0.38300000000000267,0.3997000000178801,0.4162000000178807,0.43290000000596507,0.44950000000000045,0.46670000001788026,0.48259999999404357,0.4995999999940395,0.5162000000178821,0.5330000000000013,0.5495999999940437,0.566400000005963,0.5829000000059636,0.5997000000178829,0.615800000011923,0.6327000000178842,0.6493000000119196,0.6658000000119202,0.6829999999999998,0.699200000017882,0.7160000000000011,0.7329000000059622,0.7494000000059629,0.7659000000059635,0.7827000000178828,0.7993000000119252,0.816400000005963,0.832700000017887,0.8490999999940385,0.8660999999940415,0.8825999999940422,0.8990999999940428,0.9158000000119202,0.9325000000000045,0.9490999999940399,0.9658000000119245,0.9827000000178856,0.9995000000000047,1.0158000000119216,1.0324999999999989,1.0493000000119252,1.065599999994042,1.0824000000059613,1.0989000000059619,1.1159999999999997,1.1322000000178818,1.149000000000001,1.1655000000000015,1.1824000000059627,1.1989000000059633,1.2159000000059592,1.2320999999940412,1.2492000000178862,1.2658000000119216,1.2823000000119222,1.2989999999999995,1.3155000000000001,1.3325000000000031,1.3489000000059619,1.365800000011923,1.3822000000178818,1.398900000005959,1.4155999999940434,1.432099999994044,1.4485999999940447,1.4654999999999987,1.4820999999940412,1.4988000000119257,1.515400000005961,1.5320000000000036,1.548700000017881,1.5654000000059654,1.5820000000000007,1.5987000000178853,1.6155000000000044,1.6322000000178818,1.648900000005959,1.6655999999940434,1.682099999994044,1.6989000000059633,1.7154999999999987,1.7322000000178832]",11,0,11,0,1,0.2831,,,,
T111111111,2024-11-28_11h03.22.460,GoFitts,2023.2.3,Win32,60.24096386,"[85.41921391350986,94.86764797921597]","[-63.828506050804656,-110.55421545121104]",41,255.3140242,3.75,0,1.1983,"[90.5,90.5,90.5,90.5,90.5,90.5,90.5,90.5,90.5,90.5,90.5,90.5,90.5,90.5,88,72,62.5,49.50006103515625,29,23,18,7.00006103515625,-15,-22.99993896484375,-30,-33.5,-41,-52.99993896484375,-60.49993896484375,-60.49993896484375,-62.5,-65,-65.49993896484375,-66.5,-67.99993896484375,-69.5,-73.5,-77.99993896484375,-82,-84.5,-86,-86.5,-86.5,-86.5,-87.99993896484375,-87.99993896484375,-87.99993896484375,-87.99993896484375,-87.99993896484375,-87.99993896484375,-87.99993896484375,-87.99993896484375,-87.99993896484375,-87.99993896484375,-87.99993896484375,-87.99993896484375,-87.99993896484375,-87.99993896484375,-87.99993896484375,-87.99993896484375,-87.99993896484375,-87.99993896484375,-87.99993896484375,-87.99993896484375,-87.99993896484375,-87.99993896484375,-87.99993896484375,-87.99993896484375,-87.99993896484375,-87.99993896484375,-87.99993896484375,-86,-77.5,-72.99993896484375,-69.5,-67,-67,-65.49993896484375,-65,-65,-65,-62.5,-62.5,-62.5,-62.5,-62.5,-62.5,-62.5,-62.5,-62.5,-62.5,-62.5,-62.5,-62.5,-62.5,-62.5,-62.5,-62.5,-62.5,-62.5,-62.5,-62.5,-62.5,-62.5]","[94.5,94.5,94.5,94.5,94.5,94.5,94.5,94.5,94.5,94.5,94.5,94.5,94.5,94.5,91.49996948242188,70.5,58.5,43.5,20,14,6.5,-7,-31.5,-39.5,-46.5,-52.5,-60,-76,-84,-84,-86.5,-90.5,-91,-92,-92.5,-94,-99,-102.5,-108.5,-110.5,-111,-111.5,-112.5,-112.5,-113,-113,-114.50006103515625,-114.50006103515625,-114.50006103515625,-114.50006103515625,-114.50006103515625,-114.50006103515625,-114.50006103515625,-114.50006103515625,-114.50006103515625,-114.50006103515625,-114.50006103515625,-114.50006103515625,-114.50006103515625,-114.50006103515625,-114.50006103515625,-114.50006103515625,-114.50006103515625,-114.50006103515625,-114.50006103515625,-114.50006103515625,-114.50006103515625,-114.50006103515625,-114.50006103515625,-114.50006103515625,-114.50006103515625,-114.50006103515625,-109.50006103515625,-108,-105,-103.5,-103.5,-103,-103,-103,-103,-102.5,-102.5,-102.5,-102.5,-102.5,-102.5,-102.5,-102.5,-102.5,-102.5,-102.5,-102.5,-102.5,-102.5,-102.5,-102.5,-102.5,-102.5,-102.5,-102.5,-102.5,-102.5,-102.5]","[0,0,0,0,0,0,0,0,0,0,0,0,0,0,0,0,0,0,0,0,0,0,0,0,0,0,0,0,0,0,0,0,0,0,0,0,0,0,0,0,0,0,0,0,0,0,0,0,0,0,0,0,0,0,0,0,0,0,0,0,0,0,0,0,0,0,0,0,0,0,0,0,0,0,0,0,0,0,0,0,0,0,0,0,0,0,0,0,0,0,0,0,0,0,0,0,0,0,0,0,0,0,0,0]","[0,0,0,0,0,0,0,0,0,0,0,0,0,0,0,0,0,0,0,0,0,0,0,0,0,0,0,0,0,0,0,0,0,0,0,0,0,0,0,0,0,0,0,0,0,0,0,0,0,0,0,0,0,0,0,0,0,0,0,0,0,0,0,0,0,0,0,0,0,0,0,0,0,0,0,0,0,0,0,0,0,0,0,0,0,0,0,0,0,0,0,0,0,0,0,0,0,0,0,0,0,0,0,0]","[0,0,0,0,0,0,0,0,0,0,0,0,0,0,0,0,0,0,0,0,0,0,0,0,0,0,0,0,0,0,0,0,0,0,0,0,0,0,0,0,0,0,0,0,0,0,0,0,0,0,0,0,0,0,0,0,0,0,0,0,0,0,0,0,0,0,0,0,0,0,0,0,0,0,0,0,0,0,0,0,0,0,0,0,0,0,0,0,0,0,0,0,0,0,0,0,0,0,0,0,0,0,0,0]","[0,0.015100000023842597,0.03180000001191985,0.0484999999999971,0.06520000001788162,0.08170000001788225,0.09820000001788287,0.11530000001192064,0.1319999999999979,0.14870000001788242,0.16560000002384356,0.1821000000238442,0.19870000001787957,0.21530000001192207,0.23170000001788082,0.2488000000119186,0.26520000001788446,0.28249999999999886,0.2984999999999971,0.31510000002383975,0.3318000000119241,0.34830000001192474,0.3652000000178788,0.3817000000178794,0.39840000000596376,0.4149000000059644,0.4314999999999998,0.4484000000059609,0.46530000001192207,0.4813000000119203,0.4983000000119233,0.5154000000059611,0.5315000000000012,0.5482000000178786,0.5651000000238398,0.5822000000178846,0.5985000000000014,0.6149000000059601,0.6314000000059607,0.6486000000238406,0.6649000000059644,0.6817000000178837,0.698300000011919,0.7147000000178849,0.7317000000178808,0.7483000000119233,0.7650000000000006,0.7814000000059593,0.79790000000596,0.8146000000238445,0.8311000000238451,0.8478000000119224,0.8649000000059601,0.8813000000119189,0.8980000000000032,0.9145000000000039,0.9317000000178837,0.9482000000178843,0.9649000000059615,0.9812000000178784,0.9979999999999976,1.0144999999999982,1.0309999999999988,1.04790000000596,1.0644000000059606,1.0813000000119217,1.0979000000059642,1.114300000011923,1.1311000000238423,1.1478000000119195,1.164400000005962,1.1811000000238394,1.198300000011919,1.214600000023843,1.2311000000238437,1.2479999999999976,1.2644999999999982,1.2812000000178827,1.29790000000596,1.3144000000059606,1.3312000000178799,1.3478000000119224,1.3648000000119183,1.3814000000059607,1.3981000000238453,1.4143000000119201,1.431400000005958,1.4481000000238424,1.464600000023843,1.481600000023839,1.497800000011921,1.514100000023845,1.5308000000119222,1.5474999999999994,1.564200000017884,1.5814000000059636,1.598100000023841,1.6147000000178835,1.6314000000059607,1.6477000000178847,1.6643000000119201,1.6809999999999974,1.6978000000119238,1.714500000000001]",12,0,12,0,1,0.2487,,,,
T111111111,2024-11-28_11h03.22.460,GoFitts,2023.2.3,Win32,60.24096386,"[-63.828506050804656,-110.55421545121104]","[39.44818619052557,121.4090332100047]",41,255.3140242,3.75,0,1.0983,"[-62.5,-62.5,-62.5,-62.5,-62.5,-62.5,-62.5,-62.5,-62.5,-62.5,-62.5,-62.5,-62.5,-62.5,-62.5,-62.5,-62.5,-62.5,-62.5,-62.5,-62.5,-60.49993896484375,-49.5,-42.99993896484375,-37,-32,-31.5,-29.5,-26.5,-26,-26,-25,-25,-22,-18.5,-17,-13.5,-11,-10.49993896484375,-9,-9,-7.99993896484375,-7.5,0.5,9.50006103515625,14,19.50006103515625,21.5,22.5,22.5,25.5,25.5,28,30,33.5,35,36,36.5,36.5,37.5,37.5,37.5,37.5,37.5,38,38,38,38,38,38,38,38,38,38,38,38,38,38,38,38,38,38,38,38,38,38,38,38,38,38,38,38,38,38,38,38,38,38]","[-102.5,-102.5,-102.5,-102.5,-102.5,-102.5,-102.5,-102.5,-102.5,-102.5,-102.5,-102.5,-102.5,-102.5,-102.5,-102.5,-102.5,-102.5,-102.5,-102.5,-102.5,-93,-53,-25,-12,4,6.5,15.5,25,27.5,30.5,32,33.5,40,43.999969482421875,49.5,55.5,58,59.5,61,61,61,63.5,69.5,76,78.99996948242188,81.49996948242188,83,83.5,83.5,85,85,87.5,92.5,93.99996948242188,95.5,96.49996948242188,98,98,99.5,99.5,99.5,99.5,99.5,100.5,100.5,101.49996948242188,101.49996948242188,101.49996948242188,103,106,106.49996948242188,106.49996948242188,106.49996948242188,108,108,108.99996948242188,108.99996948242188,108.99996948242188,108.99996948242188,108.99996948242188,108.99996948242188,108.99996948242188,108.99996948242188,108.99996948242188,108.99996948242188,108.99996948242188,108.99996948242188,108.99996948242188,108.99996948242188,108.99996948242188,108.99996948242188,108.99996948242188,108.99996948242188,108.99996948242188,108.99996948242188,108.99996948242188,108.99996948242188]","[0,0,0,0,0,0,0,0,0,0,0,0,0,0,0,0,0,0,0,0,0,0,0,0,0,0,0,0,0,0,0,0,0,0,0,0,0,0,0,0,0,0,0,0,0,0,0,0,0,0,0,0,0,0,0,0,0,0,0,0,0,0,0,0,0,0,0,0,0,0,0,0,0,0,0,0,0,0,0,0,0,0,0,0,0,0,0,0,0,0,0,0,0,0,0,0,0,0]","[0,0,0,0,0,0,0,0,0,0,0,0,0,0,0,0,0,0,0,0,0,0,0,0,0,0,0,0,0,0,0,0,0,0,0,0,0,0,0,0,0,0,0,0,0,0,0,0,0,0,0,0,0,0,0,0,0,0,0,0,0,0,0,0,0,0,0,0,0,0,0,0,0,0,0,0,0,0,0,0,0,0,0,0,0,0,0,0,0,0,0,0,0,0,0,0,0,0]","[0,0,0,0,0,0,0,0,0,0,0,0,0,0,0,0,0,0,0,0,0,0,0,0,0,0,0,0,0,0,0,0,0,0,0,0,0,0,0,0,0,0,0,0,0,0,0,0,0,0,0,0,0,0,0,0,0,0,0,0,0,0,0,0,0,0,0,0,0,0,0,0,0,0,0,0,0,0,0,0,0,0,0,0,0,0,0,0,0,0,0,0,0,0,0,0,0,0]","[0,0.015299999982119061,0.031900000005961715,0.04859999999403897,0.06519999998808146,0.08190000000595887,0.09850000000000136,0.11509999999403675,0.1317999999821211,0.14829999998211463,0.165099999994041,0.1816999999880764,0.1982999999821189,0.2149999999999963,0.2315999999940388,0.24829999998211605,0.26500000000000057,0.2816999999880778,0.2989999999999995,0.3155000000000001,0.33200000000000074,0.3484000000059595,0.3651999999880786,0.3817999999821211,0.3982999999821146,0.4151999999880758,0.4316999999880764,0.4484999999999957,0.46519999998808004,0.48169999998808066,0.4984000000059581,0.5150999999940353,0.531599999994036,0.5482999999821203,0.5650999999940396,0.5815999999940402,0.5984000000059595,0.6149000000059601,0.6317999999821211,0.6481999999880799,0.6651999999880758,0.6822999999821207,0.6982999999821189,0.7149999999999963,0.7315999999940388,0.7484000000059581,0.7647999999821167,0.781599999994036,0.7980999999940366,0.8145999999940372,0.8317999999821168,0.847999999999999,0.8647999999821181,0.8815999999940374,0.8981999999880799,0.9147999999821153,0.9314999999999998,0.9480999999940423,0.964500000000001,0.9814999999999969,0.9979000000059628,1.0144999999999982,1.0312999999821173,1.047799999982118,1.064799999982121,1.0811999999880797,1.0982999999821175,1.1145999999940415,1.1311999999880769,1.1479999999999961,1.1645999999940386,1.181400000005958,1.1979000000059585,1.214500000000001,1.2316999999880807,1.2479999999999976,1.26459999999404,1.2810999999940407,1.297799999982118,1.3145000000000024,1.330999999999996,1.347999999999999,1.364799999982118,1.3810000000000002,1.3977999999821193,1.4144999999999968,1.4311999999880811,1.4477999999821165,1.4644000000059592,1.4811999999880783,1.4980999999940394,1.5147999999821167,1.5315000000000012,1.5481999999880784,1.564799999982121,1.5812999999821145,1.5976999999880803,1.6142999999821157]",13,0,13,0,1,0.3652,,,,
T111111111,2024-11-28_11h03.22.460,GoFitts,2023.2.3,Win32,60.24096386,"[39.44818619052557,121.4090332100047]","[-13.343791300321548,-126.95769363234298]",41,255.3140242,3.75,0,0.7995,"[38,38,38,38,38,38,38,37.5,36.5,33,26.5,25.5,23.5,21,15,12.5,4,-1.5,-4,-12.99993896484375,-17.99993896484375,-25,-27,-27.5,-27.5,-28.5,-30,-32.5,-32.5,-32.99993896484375,-32.99993896484375,-32.99993896484375,-32.99993896484375,-32.99993896484375,-32.99993896484375,-32.99993896484375,-32.99993896484375,-32.99993896484375,-32.99993896484375,-32.99993896484375,-32,-31.5,-25,-21.5,-19.5,-17.99993896484375,-16,-15,-15,-14.5,-13.5,-13.5,-13.5,-13.5,-12,-12,-12,-12,-12,-12,-12,-12,-12,-12,-12,-12,-12,-12,-12,-12,-12,-12,-12,-12,-12]","[108.99996948242188,108.99996948242188,108.99996948242188,108.99996948242188,108.99996948242188,108.99996948242188,108.99996948242188,106,98.99996948242188,81,52,49.5,38.999969482421875,25,-1,-17,-49,-70.5,-77.5,-105.5,-121.5,-138.5,-142.00006103515625,-143.5,-144,-146.5,-148.5,-154,-155.5,-155.5,-155.5,-155.5,-157.00006103515625,-157.5,-157.5,-157.5,-157.5,-157.5,-157.5,-157.5,-156.5,-156,-148,-143.5,-141.5,-139,-135.5,-134.50006103515625,-134.50006103515625,-133,-133,-133,-132.00006103515625,-132.00006103515625,-131,-131,-131,-131,-131,-131,-131,-131,-131,-131,-131,-131,-131,-131,-131,-131,-131,-131,-131,-131,-131]","[0,0,0,0,0,0,0,0,0,0,0,0,0,0,0,0,0,0,0,0,0,0,0,0,0,0,0,0,0,0,0,0,0,0,0,0,0,0,0,0,0,0,0,0,0,0,0,0,0,0,0,0,0,0,0,0,0,0,0,0,0,0,0,0,0,0,0,0,0,0,0,0,0,0,0]","[0,0,0,0,0,0,0,0,0,0,0,0,0,0,0,0,0,0,0,0,0,0,0,0,0,0,0,0,0,0,0,0,0,0,0,0,0,0,0,0,0,0,0,0,0,0,0,0,0,0,0,0,0,0,0,0,0,0,0,0,0,0,0,0,0,0,0,0,0,0,0,0,0,0,0]","[0,0,0,0,0,0,0,0,0,0,0,0,0,0,0,0,0,0,0,0,0,0,0,0,0,0,0,0,0,0,0,0,0,0,0,0,0,0,0,0,0,0,0,0,0,0,0,0,0,0,0,0,0,0,0,0,0,0,0,0,0,0,0,0,0,0,0,0,0,0,0,0,0,0,0]","[0,0.015699999988079583,0.032900000005959384,0.049099999994041355,0.06590000000596064,0.08259999999404499,0.09919999998808038,0.11780000001192548,0.1331999999880793,0.15340000000595921,0.1723000000119228,0.18940000000596058,0.20809999999404027,0.22519999998807805,0.24450000000000216,0.2586999999880817,0.28300000000000125,0.31590000000596064,0.3371999999880799,0.355000000000004,0.3726999999880789,0.3894000000059634,0.4066999999880778,0.42409999999404135,0.44209999999404204,0.4594000000059637,0.4773000000119225,0.49890000000596046,0.5148000000119239,0.5338000000119223,0.5490999999940414,0.5656999999880838,0.5825000000000031,0.5991999999880804,0.615699999988081,0.6323000000119237,0.6655000000000015,0.677500000000002,0.6941999999880792,0.7156999999880824,0.7490000000000023,0.7654000000059611,0.7834000000059618,0.7995000000000019,0.8166999999880815,0.8334000000059589,0.8499000000059596,0.865699999988081,0.882800000011926,0.9010000000000034,0.9170999999940435,0.932099999994044,0.9490000000000052,0.9653000000119221,0.9824000000059598,0.9988000000119257,1.015400000005961,1.0320999999940383,1.0488000000119229,1.0654000000059654,1.0824000000059613,1.0990000000000038,1.115699999988081,1.1323000000119237,1.149000000000001,1.1655000000000015,1.1823000000119208,1.1986999999880794,1.21519999998808,1.2319999999999993,1.2485,1.2651999999880843,1.2819000000059617,1.2985000000000042,1.3153000000119235]",14,0,14,0,1,0.1332,,,,
T111111111,2024-11-28_11h03.22.460,GoFitts,2023.2.3,Win32,60.24096386,,,,,,0,,,,,,,,,,,,,,0,0,0,1
T111111111,2024-11-28_11h03.22.460,GoFitts,2023.2.3,Win32,60.24096386,"[-5,-46]","[176.70859599979244,-196.2547781952652]",20,528.1737058,5.75,1,1.8307,"[-5,-5,-5,-5,-5,-5,-5,-5,-5,-5,-5,-5,-5,-5,-5,-5,-5,-5,-5,-5,-5,-5,-5,-5,-5,-5,-5,-5,-5,-5,-5,-5,-5,-5,-5,-5,-5,-5,-5,-5,-5,1,11.5,58,79,104.5,117.5,125.5,128.5,135,143,145,151.5,155,162,163.5,166.5,168,169,170.5,170.5,170.5,170.5,170.5,170.5,170.5,170.5,170.5,170.5,170.5,170.5,170.5,170.5,170.5,170.5,170.5,170.5,170.5,170.5,170.5,170.5,170.5,170.5,170.5,170.5,172.5,182,184,191.5,192.5,192.5,192.5,193,194,194,194.5,194.5,195,195,195,195,195,194.5,194.5,193.5,193,191.5,188.5,183.5,179,176,173.5,173.5,172,172,172,172,172,172,172,172,172,172,172,172,172,172,172,172,172,172,172,172,172,172,172,172,172,172]","[-46,-46,-46,-46,-46,-46,-46,-46,-46,-46,-46,-46,-46,-46,-46,-46,-46,-46,-46,-46,-46,-46,-46,-46,-46,-46,-46,-46,-46,-46,-46,-46,-46,-46,-46,-46,-46,-46,-46,-46,-46,-50,-58,-88,-97,-108.5,-116,-119,-120.5,-124.50006103515625,-128,-129,-133,-135,-138,-138,-141.5,-142.5,-143,-144,-144,-144,-144,-144,-144,-144,-144,-144,-144,-144,-144,-144,-144,-144,-144,-144,-144,-144,-144,-144,-144,-144,-144,-144,-144,-146,-160,-164,-173,-175,-175,-175,-176.5,-176.5,-176.5,-177.5,-177.5,-178.5,-179,-180.5,-182.00006103515625,-185,-186,-186.5,-186.5,-188,-188,-188.5,-189.50006103515625,-189.50006103515625,-190.5,-190.5,-190.5,-190.5,-190.5,-190.5,-190.5,-190.5,-190.5,-190.5,-190.5,-190.5,-190.5,-190.5,-190.5,-190.5,-190.5,-190.5,-190.5,-190.5,-190.5,-190.5,-190.5,-190.5,-190.5,-190.5,-190.5,-190.5,-190.5]","[0,0,0,0,0,0,0,0,0,0,0,0,0,0,0,0,0,0,0,0,0,0,0,0,0,0,0,0,0,0,0,0,0,0,0,0,0,0,0,0,0,0,0,0,0,0,0,0,0,0,0,0,0,0,0,0,0,0,0,0,0,0,0,0,0,0,0,0,0,0,0,0,0,0,0,0,0,0,0,0,0,0,0,0,0,0,0,0,0,0,0,0,0,0,0,0,0,0,0,0,0,0,0,0,0,0,0,0,0,0,0,0,0,0,0,0,0,0,0,0,0,0,0,0,0,0,0,0,0,0,0,0,0,0,0,0,0,0,0]","[0,0,0,0,0,0,0,0,0,0,0,0,0,0,0,0,0,0,0,0,0,0,0,0,0,0,0,0,0,0,0,0,0,0,0,0,0,0,0,0,0,0,0,0,0,0,0,0,0,0,0,0,0,0,0,0,0,0,0,0,0,0,0,0,0,0,0,0,0,0,0,0,0,0,0,0,0,0,0,0,0,0,0,0,0,0,0,0,0,0,0,0,0,0,0,0,0,0,0,0,0,0,0,0,0,0,0,0,0,0,0,0,0,0,0,0,0,0,0,0,0,0,0,0,0,0,0,0,0,0,0,0,0,0,0,0,0,0,0]","[0,0,0,0,0,0,0,0,0,0,0,0,0,0,0,0,0,0,0,0,0,0,0,0,0,0,0,0,0,0,0,0,0,0,0,0,0,0,0,0,0,0,0,0,0,0,0,0,0,0,0,0,0,0,0,0,0,0,0,0,0,0,0,0,0,0,0,0,0,0,0,0,0,0,0,0,0,0,0,0,0,0,0,0,0,0,0,0,0,0,0,0,0,0,0,0,0,0,0,0,0,0,0,0,0,0,0,0,0,0,0,0,0,0,0,0,0,0,0,0,0,0,0,0,0,0,0,0,0,0,0,0,0,0,0,0,0,0,0]","[0.00010000002384202844,0.014500000000005286,0.03110000002384794,0.04790000000595995,0.06460000002384447,0.0811000000238451,0.09770000001788759,0.1144999999999996,0.13110000002384226,0.14760000002384288,0.164400000005962,0.1810000000000045,0.1977000000178819,0.21440000000596626,0.23100000000000165,0.24770000001788617,0.2644000000059634,0.2810000000000059,0.29760000002384146,0.3144000000059606,0.33100000000000307,0.3477000000178876,0.36440000000596484,0.3810000000000002,0.3978000000119266,0.414400000005962,0.4312000000178813,0.4477000000178819,0.46440000000596626,0.4811000000238437,0.4976000000238443,0.5143000000119216,0.530900000005964,0.5475000000000065,0.5643000000119258,0.5808000000119264,0.5975000000000037,0.6142000000178811,0.6308000000119236,0.6475000000000009,0.6640000000000015,0.6811000000238465,0.6976000000238471,0.7143000000119244,0.7310000000000016,0.7475000000000023,0.7643000000119216,0.7810000000000059,0.7975000000000065,0.814200000017884,0.8309000000059612,0.8476000000238457,0.864300000011923,0.8809000000059655,0.8976000000238429,0.9142000000178854,0.9308000000119208,0.9483000000119262,0.9647000000178849,0.9809000000059669,0.9974000000059604,1.014000000000003,1.0307000000178874,1.0477000000178833,1.0645000000000024,1.094300000011927,1.1052000000178879,1.1188000000119231,1.132000000000005,1.1477000000178847,1.177600000023844,1.1888000000119234,1.2109000000059638,1.2217000000178828,1.2353000000119252,1.2608000000119262,1.271700000017887,1.290200000017883,1.3106000000238467,1.3208000000119213,1.3408000000119245,1.3613000000119229,1.372100000023842,1.3965000000000032,1.4077000000178828,1.4226000000238415,1.4613000000119243,1.4775000000000063,1.4962000000178861,1.5120000000000005,1.5289000000059616,1.5450000000000017,1.561800000011921,1.5787000000178821,1.594900000005964,1.61190000000596,1.6281000000238421,1.6384000000059658,1.6546000000238479,1.6817000000178837,1.698400000005961,1.7158000000119245,1.7318000000119227,1.7483000000119233,1.764800000011924,1.7807000000178874,1.7970000000000041,1.8137000000178816,1.8307000000178846,1.8470000000000013,1.8637000000178858,1.880500000000005,1.8968000000119218,1.9136000000238482,1.9302000000178836,1.946800000011926,1.9639000000059639,1.980800000011925,1.9973000000119256,2.028100000023848,2.0450000000000017,2.0567000000178837,2.071200000017882,2.0859000000059638,2.100500000000004,2.115100000023844,2.1449000000059613,2.1562000000178827,2.17740000000596,2.1872000000178815,2.2109000000059638,2.220800000011927,2.235300000011925,2.2612000000178867,2.271600000023845,2.2862000000178853,2.3004999999999995,2.315000000000005,2.344200000017885]",0,0,0,0,1,0.6811,,,,
T111111111,2024-11-28_11h03.22.460,GoFitts,2023.2.3,Win32,60.24096386,"[176.70859599979244,-196.2547781952652]","[-213.65075197187818,155.22635744789477]",20,528.1737058,5.75,1,2.0828,"[172,172,172,172,172,172,172,172,172,172,172,172,172,172,172,172,172,172,172,172,172,172,172,172,172,172,172,172,172,172,172,172,172,172,172,172,172,172,172,156,145,97.5,85,62.00006103515625,38.5,1.5,-19.5,-50,-67,-85,-98.5,-117.99993896484375,-132,-144,-159.5,-164.5,-169,-176,-182.5,-182.5,-184.5,-196.5,-200,-202.5,-204.5,-205.49993896484375,-205.49993896484375,-205.49993896484375,-205.49993896484375,-205.49993896484375,-205.49993896484375,-205.49993896484375,-205.49993896484375,-205.49993896484375,-205.49993896484375,-205.49993896484375,-205.49993896484375,-205.49993896484375,-205.49993896484375,-205.49993896484375,-205.49993896484375,-205.49993896484375,-205.49993896484375,-205.49993896484375,-205.49993896484375,-205.49993896484375,-205.49993896484375,-205.49993896484375,-205.49993896484375,-205.49993896484375,-205.49993896484375,-205.49993896484375,-205.49993896484375,-205.49993896484375,-205.49993896484375,-219.5,-224.5,-232,-234.5,-238.5,-239.5,-242.5,-242.5,-242.5,-242,-240.49993896484375,-237.99993896484375,-237,-235,-235,-234,-234,-232.5,-232.5,-232.5,-230.49993896484375,-227.99993896484375,-225,-225,-223.5,-222,-217.5,-215.49993896484375,-215.49993896484375,-215,-215,-215,-215,-215,-215,-215,-215,-215,-215,-215,-215,-215,-215,-215,-215,-215,-215,-215,-215,-215,-215,-215,-215,-215,-215,-215,-215,-215,-215,-215]","[-190.5,-190.5,-190.5,-190.5,-190.5,-190.5,-190.5,-190.5,-190.5,-190.5,-190.5,-190.5,-190.5,-190.5,-190.5,-190.5,-190.5,-190.5,-190.5,-190.5,-190.5,-190.5,-190.5,-190.5,-190.5,-190.5,-190.5,-190.5,-190.5,-190.5,-190.5,-190.5,-190.5,-190.5,-190.5,-190.5,-190.5,-190.5,-190.5,-183,-176.5,-146.5,-139.50006103515625,-124.50006103515625,-108,-87.5,-75.5,-58.5,-47,-36.5,-26.5,-12,-1,10,25.5,30,36,43.999969482421875,48.999969482421875,48.999969482421875,50.5,60,63.5,65,65.5,66.49996948242188,66.49996948242188,66.49996948242188,66.49996948242188,66.49996948242188,66.49996948242188,66.49996948242188,66.49996948242188,66.49996948242188,66.49996948242188,66.49996948242188,66.49996948242188,66.49996948242188,66.49996948242188,66.49996948242188,66.49996948242188,66.49996948242188,66.49996948242188,66.49996948242188,66.49996948242188,66.49996948242188,66.49996948242188,66.49996948242188,66.49996948242188,66.49996948242188,66.49996948242188,66.49996948242188,66.49996948242188,66.49996948242188,66.49996948242188,105.5,118,134.5,141.49996948242188,153,157.5,163.5,166,167.5,170,173.5,177,181.49996948242188,184.5,184.5,186,186,187.5,187.5,187.5,187.5,186,185,185,183.5,182.5,171.49996948242188,166,163.5,162,162,160.5,158.99996948242188,158.99996948242188,158.99996948242188,158.99996948242188,158.99996948242188,158.99996948242188,158.99996948242188,158.99996948242188,158.99996948242188,158.99996948242188,158.99996948242188,158.99996948242188,158.99996948242188,158.99996948242188,158.99996948242188,158.99996948242188,158.99996948242188,158.99996948242188,158.99996948242188,158.99996948242188,158.99996948242188,158.99996948242188,158.99996948242188,158.99996948242188,158.99996948242188,158.99996948242188,158.99996948242188,158.99996948242188]","[0,0,0,0,0,0,0,0,0,0,0,0,0,0,0,0,0,0,0,0,0,0,0,0,0,0,0,0,0,0,0,0,0,0,0,0,0,0,0,0,0,0,0,0,0,0,0,0,0,0,0,0,0,0,0,0,0,0,0,0,0,0,0,0,0,0,0,0,0,0,0,0,0,0,0,0,1,1,1,1,1,1,1,1,1,1,0,0,0,0,0,0,0,0,0,0,0,0,0,0,0,0,0,0,0,0,0,0,0,0,0,0,0,0,0,0,0,0,0,0,0,0,0,0,0,0,0,0,0,0,0,0,0,0,0,0,0,0,0,0,0,0,0,0,0,0,0,0,0,0,0,0,0,0,0]","[0,0,0,0,0,0,0,0,0,0,0,0,0,0,0,0,0,0,0,0,0,0,0,0,0,0,0,0,0,0,0,0,0,0,0,0,0,0,0,0,0,0,0,0,0,0,0,0,0,0,0,0,0,0,0,0,0,0,0,0,0,0,0,0,0,0,0,0,0,0,0,0,0,0,0,0,0,0,0,0,0,0,0,0,0,0,0,0,0,0,0,0,0,0,0,0,0,0,0,0,0,0,0,0,0,0,0,0,0,0,0,0,0,0,0,0,0,0,0,0,0,0,0,0,0,0,0,0,0,0,0,0,0,0,0,0,0,0,0,0,0,0,0,0,0,0,0,0,0,0,0,0,0,0,0]","[0,0,0,0,0,0,0,0,0,0,0,0,0,0,0,0,0,0,0,0,0,0,0,0,0,0,0,0,0,0,0,0,0,0,0,0,0,0,0,0,0,0,0,0,0,0,0,0,0,0,0,0,0,0,0,0,0,0,0,0,0,0,0,0,0,0,0,0,0,0,0,0,0,0,0,0,0,0,0,0,0,0,0,0,0,0,0,0,0,0,0,0,0,0,0,0,0,0,0,0,0,0,0,0,0,0,0,0,0,0,0,0,0,0,0,0,0,0,0,0,0,0,0,0,0,0,0,0,0,0,0,0,0,0,0,0,0,0,0,0,0,0,0,0,0,0,0,0,0,0,0,0,0,0,0]","[0,0.01580000001192161,0.03259999999404073,0.042499999999996874,0.06590000000596064,0.07680000001192155,0.09899999999999665,0.11580000001192303,0.13270000001788418,0.1499000000059567,0.16190000000595717,0.17640000000596245,0.19930000001192383,0.21590000000595921,0.23240000000595984,0.2490999999940371,0.2658000000119216,0.28259999999404073,0.29909999999404135,0.31590000000596064,0.32559999999404,0.3489000000059619,0.3659000000059578,0.38280000001191894,0.39450000000000074,0.4092000000178828,0.4330999999940417,0.4494000000059586,0.46649999999999636,0.48330000001192275,0.4950999999940393,0.5095999999940375,0.5244000000059614,0.5440999999940388,0.565700000017884,0.5754000000059634,0.5990999999940385,0.6159000000059578,0.6325000000000003,0.6502000000178825,0.6678000000119226,0.6859000000059581,0.7042000000178774,0.7222000000178781,0.7385000000000019,0.7544000000059583,0.7710000000000008,0.7869000000059572,0.8027000000178788,0.8185999999940421,0.8350000000000009,0.8515000000000015,0.8682000000178789,0.8849000000059632,0.9014000000059568,0.9183000000119179,0.9345999999940418,0.9518000000119216,0.9694000000059617,0.9863000000119229,1.0044000000059583,1.0207000000178823,1.037200000017883,1.0532000000178812,1.0704000000059608,1.085800000011922,1.101099999994041,1.1183000000119208,1.1350999999940399,1.1515999999940405,1.1827000000178813,1.1993000000119238,1.210800000011922,1.2255999999940386,1.2395999999940415,1.2658000000119216,1.2829000000059594,1.3025999999940368,1.331800000011917,1.3487000000178782,1.3653000000119206,1.3819000000059631,1.3987000000178824,1.4085999999940384,1.432099999994037,1.4420000000000002,1.456800000011917,1.4825999999940365,1.499300000011921,1.5103000000119238,1.5320999999940383,1.5420999999940364,1.5653000000119235,1.5753000000119215,1.5904999999999987,1.6157000000178812,1.6322000000178818,1.649000000000001,1.6655999999940363,1.6824000000059627,1.6997000000178772,1.7157000000178826,1.7328000000119204,1.750800000011921,1.7673000000119217,1.783099999994036,1.7989999999999995,1.8159000000059606,1.8324000000059613,1.84880000001192,1.866500000000002,1.8823000000119237,1.8990999999940357,1.9153000000119178,1.9324999999999974,1.9488000000119214,1.9654999999999987,1.9825000000000017,2.000099999994042,2.0173000000119217,2.0325999999940407,2.0490999999940414,2.065599999994042,2.0829000000059565,2.099700000017883,2.115700000017881,2.131999999999998,2.148300000011922,2.165200000017883,2.1814999999999998,2.198400000005961,2.214700000017878,2.2254999999999967,2.2395999999940415,2.2653000000119192,2.277099999994036,2.291599999994041,2.306300000011923,2.3208000000119213,2.3354000000059614,2.3648000000119183,2.375200000017884,2.3979000000059614,2.4147000000178807,2.4248000000119205,2.439,2.4534999999999982,2.46780000001192,2.4840000000000018,2.515400000005961,2.5264999999999986,2.5407000000178783,2.5553000000119184,2.58159999999404,2.598200000017883]",1,0,1,0,1,0.6502,,,,
T111111111,2024-11-28_11h03.22.460,GoFitts,2023.2.3,Win32,60.24096386,"[-213.65075197187818,155.22635744789477]","[241.25534487273976,-107.41380002134738]",20,528.1737058,5.75,1,1.8481,"[-215,-215,-215,-215,-215,-215,-215,-215,-215,-215,-215,-215,-215,-215,-215,-215,-215,-215,-212.5,-211.5,-208.5,-201.5,-188.5,-173.5,-151.5,-137,-113.5,-99,-87.5,-70.49993896484375,-61,-52.99993896484375,-42.5,-37,-15.49993896484375,-5.49993896484375,6,15,28.5,44.50006103515625,56.5,77.5,95,106,121,139.5,149.5,161,170.5,188.5,200.5,208.5,208.5,208.5,208.5,208.5,208.5,208.5,208.5,208.5,208.5,208.5,208.5,208.5,208.5,208.5,208.5,208.5,208.5,208.5,208.5,208.5,208.5,208.5,208.5,208.5,208.5,208.5,210.5,212,213.5,215,218,220,224,224,226.5,227.5,227.5,229,231.5,232,233.5,233.5,235,236.5,238.5,239.5,240,240,240,240.5,241.5,241.5,241.5,241.5,241.5,241.5,241.5,242,242,242,242,242,242,242,242,242,242,242,242,242,242,242,242,242,242,242,242,242,242,242,242,242,242,242,242,242,242,242,242,242]","[158.99996948242188,158.99996948242188,158.99996948242188,158.99996948242188,158.99996948242188,158.99996948242188,158.99996948242188,158.99996948242188,158.99996948242188,158.99996948242188,158.99996948242188,158.99996948242188,158.99996948242188,158.99996948242188,158.99996948242188,158.99996948242188,158.99996948242188,158.99996948242188,156.49996948242188,156,153.5,148.5,138.99996948242188,131.49996948242188,120,113,103,97,93.5,86.49996948242188,83.5,80.5,76.49996948242188,73.99996948242188,65.5,61.499969482421875,55.5,52,42,34.5,25,12.5,2,-2.5,-10,-18,-22.5,-28,-32.5,-44.5,-57,-64.5,-64.5,-64.5,-64.5,-64.5,-64.5,-64.5,-64.5,-64.5,-64.5,-64.5,-64.5,-64.5,-64.5,-64.5,-64.5,-64.5,-64.5,-64.5,-64.5,-64.5,-64.5,-64.5,-64.5,-64.5,-64.5,-64.5,-66.5,-67,-68.5,-69.5,-72.5,-74,-77.5,-77.5,-80,-81.5,-81.5,-83,-83.5,-85,-85.5,-87,-89,-89.5,-91,-92.5,-93,-94.5,-94.5,-95.5,-95.5,-95.5,-95.5,-95.5,-95.5,-95.5,-95.5,-96.5,-97.5,-97.5,-97.5,-97.5,-97.5,-97.5,-97.5,-97.5,-97.5,-97.5,-97.5,-97.5,-97.5,-97.5,-97.5,-97.5,-97.5,-97.5,-97.5,-97.5,-97.5,-97.5,-97.5,-97.5,-97.5,-97.5,-97.5,-97.5,-97.5,-97.5,-97.5,-97.5]","[0,0,0,0,0,0,0,0,0,0,0,0,0,0,0,0,0,0,0,0,0,0,0,0,0,0,0,0,0,0,0,0,0,0,0,0,0,0,0,0,0,0,0,0,0,0,0,0,0,0,0,0,0,0,0,0,0,0,0,0,0,0,0,0,0,0,0,0,0,0,0,0,0,0,0,0,0,0,0,0,0,0,0,0,0,0,0,0,0,0,0,0,0,0,0,0,0,0,0,0,0,0,0,0,0,0,0,0,0,0,0,0,0,0,0,0,0,0,0,0,0,0,0,0,0,0,0,0,0,0,0,0,0,0,0,0,0,0,0,0,0,0]","[0,0,0,0,0,0,0,0,0,0,0,0,0,0,0,0,0,0,0,0,0,0,0,0,0,0,0,0,0,0,0,0,0,0,0,0,0,0,0,0,0,0,0,0,0,0,0,0,0,0,0,0,0,0,0,0,0,0,0,0,0,0,0,0,0,0,0,0,0,0,0,0,0,0,0,0,0,0,0,0,0,0,0,0,0,0,0,0,0,0,0,0,0,0,0,0,0,0,0,0,0,0,0,0,0,0,0,0,0,0,0,0,0,0,0,0,0,0,0,0,0,0,0,0,0,0,0,0,0,0,0,0,0,0,0,0,0,0,0,0,0,0]","[0,0,0,0,0,0,0,0,0,0,0,0,0,0,0,0,0,0,0,0,0,0,0,0,0,0,0,0,0,0,0,0,0,0,0,0,0,0,0,0,0,0,0,0,0,0,0,0,0,0,0,0,0,0,0,0,0,0,0,0,0,0,0,0,0,0,0,0,0,0,0,0,0,0,0,0,0,0,0,0,0,0,0,0,0,0,0,0,0,0,0,0,0,0,0,0,0,0,0,0,0,0,0,0,0,0,0,0,0,0,0,0,0,0,0,0,0,0,0,0,0,0,0,0,0,0,0,0,0,0,0,0,0,0,0,0,0,0,0,0,0,0]","[0,0.015000000000000568,0.025599999994042832,0.04800000000000182,0.0645999999940372,0.08219999998807737,0.09919999998808038,0.11090000000596234,0.12530000001191866,0.14800000000000324,0.165099999994041,0.1755999999940414,0.19019999998808146,0.20430000001191928,0.21890000000595933,0.23380000001191803,0.2644000000059634,0.28159999999404306,0.29840000000596234,0.3148000000119211,0.3323000000119194,0.34900000000000375,0.3654000000059625,0.38219999998808163,0.3985999999940404,0.41540000000595967,0.43159999999404164,0.4486999999880794,0.46509999999403817,0.4819999999999993,0.49890000000596046,0.5154000000059611,0.5316999999880778,0.5481999999880784,0.5649999999999977,0.5820000000000007,0.5990000000000038,0.6153000000119206,0.6318000000119213,0.6495999999940381,0.6655999999940363,0.6820000000000022,0.6985000000000028,0.7166999999880801,0.7333000000119227,0.749199999988079,0.7653000000119192,0.7815000000000012,0.7980000000000018,0.8168000000119235,0.8328000000119218,0.847999999999999,0.864199999988081,0.8810000000000002,0.8975999999940427,0.9080000000000013,0.9224999999999994,0.9369999999999976,0.9511999999880771,0.966900000005964,0.9979000000059628,1.0084000000059632,1.0228000000119195,1.0373000000119177,1.0519999999999996,1.0666999999880815,1.0983000000119247,1.1099000000059576,1.1244999999999976,1.1390999999940377,1.153599999994043,1.168300000011918,1.1834000000059604,1.2149000000059615,1.2319000000059575,1.2434000000059626,1.2579000000059608,1.2820999999940383,1.2989000000059576,1.314699999988079,1.333400000005959,1.3509000000059572,1.3669000000059626,1.3833000000119213,1.3999999999999986,1.4164999999999992,1.4334000000059604,1.449900000005961,1.466900000005964,1.4840999999940365,1.5005999999940371,1.5173000000119217,1.5331999999880779,1.5499000000059624,1.5671999999880768,1.5844999999999985,1.6011999999880828,1.6174999999999997,1.6339000000059585,1.6500999999940404,1.6664000000059573,1.6834000000059604,1.699800000011919,1.7164000000059616,1.732999999999997,1.7496999999880813,1.7665000000000006,1.7831999999880779,1.7999999999999972,1.8166999999880815,1.8480999999940408,1.8635999999940367,1.8806999999880816,1.8970999999940403,1.9070999999940383,1.9304000000059602,1.9470000000000027,1.96369999998808,1.9803000000119226,1.9969999999999999,2.013800000011919,2.023900000005959,2.0381999999880804,2.0643000000119187,2.074900000005961,2.0890999999940405,2.103499999999997,2.1175999999940416,2.1399000000059587,2.1639000000059596,2.1746999999880785,2.189599999994037,2.2043000000119193,2.2188000000119246,2.2334999999999994,2.249900000005958,2.280800000011922,2.292400000005962,2.307000000000002,2.321800000011919,2.3360999999940404,2.3506999999880804]",2,0,2,0,1,0.349,,,,
T111111111,2024-11-28_11h03.22.460,GoFitts,2023.2.3,Win32,60.24096386,"[241.25534487273976,-107.41380002134738]","[-258.31592153107624,54.90674410526879]",20,528.1737058,5.75,1,2.4299,"[242,242,242,242,242,242,242,242,242,242,242,242,242,242,242,242,242,242,242,242,242,242,242,239,228,213,205,197,194,186,180.5,173.5,169,166,159.5,153.5,150,143,136,132.5,126,120,113.5,107,97.5,92,84,67.5,53.5,38.5,15.5,2.5,-29,-36.5,-42,-67,-70,-74,-84.5,-92,-101.5,-107,-112.5,-119,-123.5,-126,-131,-132.99993896484375,-134.5,-136,-138.5,-141.5,-146,-146.5,-147.99993896484375,-150.49993896484375,-152.99993896484375,-154.5,-157.5,-161,-162.99993896484375,-166,-170,-172.5,-176.5,-181,-183.5,-184.5,-187.99993896484375,-192.5,-194,-195.49993896484375,-200.49993896484375,-202.5,-203.5,-204.5,-207,-207,-208.5,-209,-209,-209,-210.49993896484375,-210.49993896484375,-212,-213.5,-214,-216.5,-221.5,-222.99993896484375,-229,-232.5,-236,-242.5,-246.5,-249,-255,-256.5,-257.5,-259,-259,-262,-262,-262,-262.5,-263.5,-263.5,-263.5,-263.5,-263.5,-263.5,-263.5,-263.5,-263.5,-263.5,-263.5,-263.5,-263.5,-263.5,-263.5,-263.5,-263.5,-263.5,-263.5,-263.5,-262.99993896484375,-262.5,-262.5,-261.5,-261,-261,-261,-261,-259.5,-259.5,-259.5,-259.5,-257.99993896484375,-256.5,-256,-255,-255,-255,-255,-252.99993896484375,-252.99993896484375,-252.5,-252.5,-252.5,-252.5,-252.5,-252.5,-251,-250,-250,-248.5]","[-97.5,-97.5,-97.5,-97.5,-97.5,-97.5,-97.5,-97.5,-97.5,-97.5,-97.5,-97.5,-97.5,-97.5,-97.5,-97.5,-97.5,-97.5,-97.5,-97.5,-97.5,-97.5,-97.5,-97,-93.5,-88,-85,-82,-81,-78,-76.5,-73.5,-72.5,-72,-69,-69,-69,-68.5,-67.5,-66.5,-65.5,-64,-62,-58,-54.5,-51.5,-49,-43.5,-40,-34,-25.5,-19.5,-6.5,-4,-2,7,10,11,15,16.5,20.5,23,25,28.5,30.5,32,34.5,36,38,38.999969482421875,39.5,41,42,42.5,43,45,46,47,48.5,49.5,50,52.5,53.999969482421875,54.5,56.499969482421875,57.5,57.5,58.5,60,61,61,61.499969482421875,62.5,63.5,63.5,63.5,63.5,63.5,63.5,63.5,63.5,63.5,63.5,63.5,63,63,62.5,61.499969482421875,58.999969482421875,58.5,57.5,56.499969482421875,56.499969482421875,56.499969482421875,56.499969482421875,57,58.5,58.999969482421875,61,61.499969482421875,61.499969482421875,62.5,62.5,63,63.999969482421875,63.999969482421875,63.999969482421875,63.999969482421875,63.999969482421875,63.999969482421875,63.999969482421875,63.999969482421875,63.999969482421875,63.999969482421875,63.999969482421875,63.999969482421875,63.999969482421875,63.999969482421875,63.999969482421875,63.999969482421875,63.999969482421875,63.999969482421875,63.999969482421875,63.999969482421875,63.999969482421875,63.5,63.5,63.5,62,62,62,62,62,61.499969482421875,61.499969482421875,60,60,60,58.999969482421875,58.5,58.5,58.5,58.5,58.5,58,58,58,58,58,58,58,58,58,58,58,58]","[0,0,0,0,0,0,0,0,0,0,0,0,0,0,0,0,0,0,0,0,0,0,0,0,0,0,0,0,0,0,0,0,0,0,0,0,0,0,0,0,0,0,0,0,0,0,0,0,0,0,0,0,0,0,0,0,0,0,0,0,0,0,0,0,0,0,0,0,0,0,0,0,0,0,0,0,0,0,0,0,0,0,0,0,0,0,0,0,0,0,0,0,0,0,0,0,0,0,0,0,0,0,0,0,0,0,0,0,0,0,0,0,0,0,0,0,0,0,0,0,0,0,0,0,0,0,0,0,0,0,0,0,0,0,0,0,0,0,0,0,0,0,0,0,0,0,0,0,0,0,0,0,0,0,0,0,0,0,0,0,0,0,0,0,0,0,0,0,0,0,0,0,0,0,0,0]","[0,0,0,0,0,0,0,0,0,0,0,0,0,0,0,0,0,0,0,0,0,0,0,0,0,0,0,0,0,0,0,0,0,0,0,0,0,0,0,0,0,0,0,0,0,0,0,0,0,0,0,0,0,0,0,0,0,0,0,0,0,0,0,0,0,0,0,0,0,0,0,0,0,0,0,0,0,0,0,0,0,0,0,0,0,0,0,0,0,0,0,0,0,0,0,0,0,0,0,0,0,0,0,0,0,0,0,0,0,0,0,0,0,0,0,0,0,0,0,0,0,0,0,0,0,0,0,0,0,0,0,0,0,0,0,0,0,0,0,0,0,0,0,0,0,0,0,0,0,0,0,0,0,0,0,0,0,0,0,0,0,0,0,0,0,0,0,0,0,0,0,0,0,0,0,0]","[0,0,0,0,0,0,0,0,0,0,0,0,0,0,0,0,0,0,0,0,0,0,0,0,0,0,0,0,0,0,0,0,0,0,0,0,0,0,0,0,0,0,0,0,0,0,0,0,0,0,0,0,0,0,0,0,0,0,0,0,0,0,0,0,0,0,0,0,0,0,0,0,0,0,0,0,0,0,0,0,0,0,0,0,0,0,0,0,0,0,0,0,0,0,0,0,0,0,0,0,0,0,0,0,0,0,0,0,0,0,0,0,0,0,0,0,0,0,0,0,0,0,0,0,0,0,0,0,0,0,0,0,0,0,0,0,0,0,0,0,0,0,0,0,0,0,0,0,0,0,0,0,0,0,0,0,0,0,0,0,0,0,0,0,0,0,0,0,0,0,0,0,0,0,0,0]","[0,0.0277000000178802,0.03759999999403618,0.06090000000595808,0.07080000001192133,0.08509999999403561,0.11090000000596234,0.12780000001191638,0.13830000001191678,0.16080000001191763,0.177500000000002,0.19390000000596075,0.21090000000595666,0.2208000000119199,0.2444000000059603,0.25470000001787696,0.2688000000119217,0.2940999999940388,0.31150000000000233,0.3230000000000004,0.3379000000059591,0.36090000000596234,0.3773000000119211,0.3948000000119194,0.4110999999940361,0.42759999999403675,0.44509999999403504,0.4617000000178777,0.47800000000000153,0.49520000001788134,0.5115999999940399,0.5278000000119221,0.5450999999940365,0.5613000000119186,0.5779999999999959,0.5960999999940384,0.6124000000059624,0.6288000000119212,0.6454999999999984,0.6623000000119177,0.6784000000059578,0.6948000000119166,0.7110999999940404,0.7283000000119202,0.7449999999999974,0.761700000017882,0.7779000000059568,0.7944999999999993,0.811800000011921,0.8285999999940401,0.8459000000059618,0.8614999999999995,0.8780999999940349,0.8948000000119194,0.9110000000000014,0.9284999999999997,0.9448000000119166,0.9620999999940381,0.9785999999940387,0.9950999999940393,1.0112000000178796,1.0277000000178802,1.044800000011918,1.0612000000178767,1.0777000000178774,1.094200000017878,1.111099999994039,1.1274000000059559,1.1444000000059589,1.1617000000178805,1.1780999999940391,1.1940999999940374,1.2110999999940404,1.227700000017883,1.2442000000178837,1.261499999999998,1.2790999999940382,1.2953000000119204,1.311,1.3287000000178821,1.3447000000178804,1.3615999999940414,1.3779000000059582,1.3944000000059589,1.4110000000000014,1.4275999999940368,1.4448000000119166,1.4609999999999985,1.472099999994036,1.494599999994037,1.5125999999940376,1.5304000000059617,1.5483000000119205,1.564800000011921,1.5810999999940378,1.5969000000059594,1.612800000011923,1.629599999994035,1.6464000000059613,1.66280000001192,1.6790999999940368,1.6962000000178818,1.7143000000119173,1.7303000000119226,1.746900000005958,1.7628000000119215,1.7800000000000011,1.7960999999940412,1.8127000000178768,1.8293000000119193,1.8462000000178804,1.863500000000002,1.8800999999940373,1.8960999999940356,1.9125999999940362,1.9297000000178812,1.9463000000119166,1.9628000000119172,1.9794000000059597,1.9960000000000022,2.012400000005961,2.029400000005957,2.0460999999940412,2.0629999999999953,2.079499999999996,2.0959000000059618,2.1124000000059624,2.128999999999998,2.1457000000178823,2.1623000000119177,2.179000000000002,2.1955999999940374,2.212300000011922,2.229099999994041,2.2457000000178837,2.262300000011919,2.2789999999999964,2.295599999994039,2.3123000000119163,2.3292000000178774,2.3463000000119223,2.362599999994039,2.3793000000119164,2.3960999999940356,2.4133000000119225,2.4299999999999997,2.459900000005959,2.4769999999999968,2.4934000000059626,2.509999999999998,2.527099999994036,2.543099999994041,2.560400000005963,2.577300000011917,2.5930999999940383,2.6050999999940387,2.6268000000119187,2.643599999994038,2.6603000000119224,2.676800000011923,2.6935000000000002,2.7104000000059614,2.7270999999940386,2.743200000017879,2.759999999999998,2.776300000011922,2.793099999994041,2.810099999994037,2.826499999999996,2.84280000001192,2.852800000011918,2.867400000005958,2.881999999999998,2.909700000017878,2.9269000000059577,2.9435000000000002]",3,0,3,0,1,0.3948,,,,
T111111111,2024-11-28_11h03.22.460,GoFitts,2023.2.3,Win32,60.24096386,"[-258.31592153107624,54.90674410526879]","[264.0868528811887,0]",20,528.1737058,5.75,1,2.2673,"[-248.5,-248.5,-248.5,-248.5,-248.5,-247.5,-247.5,-246,-246,-245,-245,-245,-245,-243.5,-243.5,-243.5,-243.5,-243.5,-241.5,-241,-237,-232.99993896484375,-226.5,-210.49993896484375,-205,-194,-181.5,-169,-151.5,-141,-127.5,-117,-102.99993896484375,-81,-61.5,-42.5,-11,7.5,31.5,45,57.5,68.5,87,90.5,95,106,108.5,118.5,125,128,133,140,145.5,148.5,155.5,164,166,167.5,174.5,179.5,185.5,191,195.5,201,206.5,210,216,218.5,223.5,224.5,228.5,230.5,233,234.5,235,235,236.5,236.5,236.5,241.5,242.5,247,248.5,253.5,254.5,256,257.5,259,259.5,261,261.5,263,264,264,264,265.5,265.5,265.5,265.5,265.5,265.5,265.5,265.5,265.5,265.5,265.5,265.5,265,265,265,264.5,264.5,263.5,263.5,263.5,263.5,263.5,263.5,263.5,263.5,263.5,263.5,263,263,263,263,263,263,263,263,263,263,263,262,262,262,262,262,262,262,262,262,262,262,262,261.5,261.5,261.5,260,260,260,260,260,260,260,260,260,260,260,260,260,260,260,260,260,260,260]","[58,58,58,58,58,58,58,58,58,58,58,58,58,58,58,58,58,58,58,58,58,58,58,56.499969482421875,55,53,49.5,47.5,46.499969482421875,46.499969482421875,46.499969482421875,43.999969482421875,42,33.5,25.5,20.5,11.5,9,7.5,8.5,9.5,13,16,16.5,17.5,19.5,20.5,21.5,23,24,24,24,25,25,26,26,26,26,26,26,26,27,27,28,28.999969482421875,29.5,30.5,32,33,33.5,33.5,34.5,34.5,34.5,34.5,34.5,34.5,34.5,34.5,34.5,34.5,34.5,34.5,33.5,33.5,33.5,33.5,33.5,32.5,32.5,31,31,30.5,29.5,29.5,28.999969482421875,28.5,28.5,27.5,27.5,27.5,26,26,26,26,23,23,22.5,22.5,21,21,21,19,19,17.5,16,16,14.5,14.5,14.5,13,13,12.5,12.5,12.5,11,11,11,11,11,11,11,11,10.5,10.5,9.5,9.5,8,7.5,7.5,7.5,6,6,6,6,4.5,4.5,4.5,4,4,4,4,4,4,4,4,4,4,4,4,4,4,4,4,4,4,4]","[0,0,0,0,0,0,0,0,0,0,0,0,0,0,0,0,0,0,0,0,0,0,0,0,0,0,0,0,0,0,0,0,0,0,0,0,0,0,0,0,0,0,0,0,0,0,0,0,0,0,0,0,0,0,0,0,0,0,0,0,0,0,0,0,0,0,0,0,0,0,0,0,0,0,0,0,0,0,0,0,0,0,0,0,0,0,0,0,0,0,0,0,0,0,0,0,0,0,0,0,0,0,0,0,0,0,0,0,0,0,0,0,0,0,0,0,0,0,0,0,0,0,0,0,0,0,0,0,0,0,0,0,0,0,0,0,0,0,0,0,0,0,0,0,0,0,0,0,0,0,0,0,0,0,0,0,0,0,0,0,0,0,0,0,0,0,0]","[0,0,0,0,0,0,0,0,0,0,0,0,0,0,0,0,0,0,0,0,0,0,0,0,0,0,0,0,0,0,0,0,0,0,0,0,0,0,0,0,0,0,0,0,0,0,0,0,0,0,0,0,0,0,0,0,0,0,0,0,0,0,0,0,0,0,0,0,0,0,0,0,0,0,0,0,0,0,0,0,0,0,0,0,0,0,0,0,0,0,0,0,0,0,0,0,0,0,0,0,0,0,0,0,0,0,0,0,0,0,0,0,0,0,0,0,0,0,0,0,0,0,0,0,0,0,0,0,0,0,0,0,0,0,0,0,0,0,0,0,0,0,0,0,0,0,0,0,0,0,0,0,0,0,0,0,0,0,0,0,0,0,0,0,0,0,0]","[0,0,0,0,0,0,0,0,0,0,0,0,0,0,0,0,0,0,0,0,0,0,0,0,0,0,0,0,0,0,0,0,0,0,0,0,0,0,0,0,0,0,0,0,0,0,0,0,0,0,0,0,0,0,0,0,0,0,0,0,0,0,0,0,0,0,0,0,0,0,0,0,0,0,0,0,0,0,0,0,0,0,0,0,0,0,0,0,0,0,0,0,0,0,0,0,0,0,0,0,0,0,0,0,0,0,0,0,0,0,0,0,0,0,0,0,0,0,0,0,0,0,0,0,0,0,0,0,0,0,0,0,0,0,0,0,0,0,0,0,0,0,0,0,0,0,0,0,0,0,0,0,0,0,0,0,0,0,0,0,0,0,0,0,0,0,0]","[0,0.015999999999998238,0.02630000001192201,0.049199999988076115,0.05940000000595802,0.08249999999999602,0.09949999999999903,0.11580000001191593,0.13250000000000028,0.14880000001191718,0.16569999998807816,0.17600000000000193,0.1989000000059562,0.21540000000595683,0.23219999998807594,0.24259999999404158,0.2656999999880796,0.2758000000119196,0.29980000001192053,0.31590000000596064,0.3328000000119218,0.3495999999940409,0.36599999999999966,0.3826999999880769,0.39980000001192195,0.4159999999999968,0.43290000000595796,0.4496999999880771,0.4661999999880777,0.48269999998807833,0.4995999999940395,0.517800000011917,0.5334999999999965,0.54940000000596,0.5663000000119212,0.5835999999940356,0.5995999999940409,0.6161999999880763,0.6326999999880769,0.6499999999999986,0.6660999999940387,0.6823000000119208,0.6990999999940399,0.7155999999940406,0.7320999999940412,0.749300000011921,0.7658000000119216,0.783099999994036,0.7999999999999972,0.8163000000119212,0.8333000000119171,0.8489999999999966,0.8660999999940415,0.882599999994035,0.898900000005959,0.9159000000059621,0.9324000000059556,0.9495999999940352,0.9663000000119197,0.9825000000000017,0.999199999988079,1.0159999999999982,1.032400000005957,1.0491999999880761,1.0659999999999954,1.0823000000119194,1.0998000000119177,1.117199999988081,1.1335999999940398,1.1491999999880775,1.1655000000000015,1.182699999988074,1.1995000000000005,1.2154999999999987,1.2326999999880783,1.2488000000119186,1.2658000000119216,1.283099999994036,1.294800000011918,1.3320999999940355,1.34880000001192,1.365800000011916,1.3824000000059584,1.3986999999880751,1.4163000000119226,1.4323000000119208,1.4491999999880747,1.4659000000059592,1.4824000000059598,1.4985999999940347,1.517699999988075,1.534599999994036,1.5514999999999972,1.567900000005956,1.583999999999996,1.600999999999999,1.6174999999999997,1.6339000000059585,1.6508000000119196,1.6670999999940364,1.6838000000119209,1.70059999999404,1.7173000000119174,1.733699999988076,1.7504999999999953,1.7673000000119217,1.7836999999880803,1.8008000000119182,1.8173000000119188,1.833999999999996,1.8508000000119225,1.867199999988081,1.8839000000059585,1.900500000000001,1.9173000000119202,1.9339999999999975,1.9503000000119215,1.9671999999880754,1.98390000000596,2.000599999994037,2.0171999999880796,2.0336999999880803,2.0505999999940414,2.067099999994035,2.0838000000119195,2.1008000000119225,2.117099999994039,2.1336999999880746,2.150199999988075,2.1670000000000016,2.183599999994037,2.2003000000119215,2.216800000011922,2.2340000000000018,2.2503000000119187,2.2673000000119217,2.2835999999940384,2.3004999999999995,2.317099999994035,2.3335999999940356,2.3509000000059572,2.367400000005958,2.383499999999998,2.400199999988075,2.416699999988076,2.433599999994037,2.4500999999940376,2.466900000005957,2.4835999999940412,2.5004000000059605,2.5168000000119193,2.5334999999999965,2.550099999994039,2.5669000000059583,2.583500000000001,2.600099999994036,2.6168000000119207,2.633499999999998,2.6500999999940404,2.666599999994041,2.6834000000059604,2.6999999999999957,2.7165999999940382,2.7334000000059575,2.75,2.7668000000119193,2.7834999999999965]",4,0,4,0,1,,,,,
T111111111,2024-11-28_11h03.22.460,GoFitts,2023.2.3,Win32,60.24096386,"[264.0868528811887,0]","[-258.31592153107624,-54.90674410526873]",20,528.1737058,5.75,1,2.9649,"[260,260,260,260,260,260,260,260,260,260,260,260,260,260,260,260,260,260,260,260,260,260,260,260,260,260,260,260,260,260,260,260,260,260,246,234.5,230.5,217,208,189,178,159.5,145.5,120,106,91,70,59.50006103515625,48,32.5,25,17.5,6,0.5,0.5,0.5,0.5,0.5,0.5,0.5,0.5,0.5,0.5,0.5,0.5,0.5,0.5,0.5,0.5,0.5,0.5,0.5,0.5,0.5,0.5,0.5,0.5,0.5,0.5,0.5,0.5,0.5,0.5,0.5,0.5,0.5,0.5,0.5,0.5,0.5,0.5,0.5,0.5,0.5,0.5,0.5,-27.99993896484375,-37,-47.5,-59,-65.49993896484375,-76,-84.5,-86,-92,-96.5,-99.5,-102.99993896484375,-108.5,-117.99993896484375,-124,-127,-130,-132.99993896484375,-136,-137.5,-143.5,-147.5,-150.49993896484375,-153.5,-154.5,-157.5,-159,-161,-162,-162.99993896484375,-164,-167,-170,-173.5,-177,-182,-186.5,-190,-191.5,-196.5,-202,-206,-207.5,-209,-214.5,-216.5,-218.5,-220.49993896484375,-221.5,-221.5,-221.5,-222.99993896484375,-222.99993896484375,-224.5,-226,-226,-226,-226.5,-226.5,-226.5,-226.5,-226.5,-227.99993896484375,-227.99993896484375,-227.99993896484375,-231,-232.99993896484375,-234.5,-236,-237,-239,-240.49993896484375,-241.5,-241.5,-243.5,-244,-244,-245.49993896484375,-245.49993896484375,-247.99993896484375,-247.99993896484375,-247.99993896484375,-249,-249,-249,-249,-249,-249,-249,-249,-249,-249,-249,-249,-249,-249,-249,-249,-249,-249,-250,-250,-250,-251.5,-251.5,-253.5,-254.5,-254.5,-254.5,-254.5,-254.5,-254.5,-254.5,-254.5]","[4,4,4,4,4,4,4,4,4,4,4,4,4,4,4,4,4,4,4,4,4,4,4,4,4,4,4,4,4,4,4,4,4,4,4.5,5.5,5.5,7,8,11,12.5,15.5,17,18,20.5,21.5,24,24,25,24.5,24.5,22.5,20.5,20,20,20,20,20,20,20,20,20,20,20,20,20,20,20,20,20,20,20,20,20,20,20,20,20,20,20,20,20,20,20,20,20,20,20,20,20,20,20,20,20,20,20,8,5.5,3.5,0,-3,-6,-7.5,-8.5,-10,-12,-13,-13.5,-15.5,-21,-22.5,-24,-24.5,-26,-27,-27,-30,-31,-31.5,-32.5,-32.5,-34,-34.5,-34.5,-35.5,-36,-36,-38.5,-39,-40.5,-41.5,-43,-46,-47.5,-48.5,-50,-51.5,-52,-54,-54.5,-55.5,-56,-57,-57.5,-57.5,-57.5,-57.5,-58.5,-58.5,-58.5,-58.5,-58.5,-58.5,-58.5,-58.5,-58.5,-58.5,-58.5,-57.5,-57.5,-57.5,-56.5,-56.5,-56.5,-56.5,-56.5,-56.5,-56.5,-56.5,-56.5,-56.5,-56.5,-56.5,-56.5,-56.5,-56.5,-56.5,-56.5,-56.5,-56.5,-56,-56,-56,-56,-56,-56,-56,-56,-56,-56,-56,-56,-56,-56,-56,-56,-54.5,-54.5,-54.5,-53,-53,-53,-53,-53,-53,-53,-53,-53,-53,-53]","[0,0,0,0,0,0,0,0,0,0,0,0,0,0,0,0,0,0,0,0,0,0,0,0,0,0,0,0,0,0,0,0,0,0,0,0,0,0,0,0,0,0,0,0,0,0,0,0,0,0,0,0,0,0,0,0,0,0,0,0,0,0,0,0,0,0,0,0,0,0,0,0,0,0,0,0,0,0,0,0,0,0,0,0,0,0,0,0,0,0,0,0,0,0,0,0,0,0,0,0,0,0,0,0,0,0,0,0,0,0,0,0,0,0,0,0,0,0,0,0,0,0,0,0,0,0,0,0,0,0,0,0,0,0,0,0,0,0,0,0,0,0,0,0,0,0,0,0,0,0,0,0,0,0,0,0,0,0,0,0,0,0,0,0,0,0,0,0,0,0,0,0,0,0,0,0,0,0,0,0,0,0,0,0,0,0,0,0,0,0,0,0,0,0,0,0,0,0,0,0,0,0,0,0,0,0,0,0,0,0]","[0,0,0,0,0,0,0,0,0,0,0,0,0,0,0,0,0,0,0,0,0,0,0,0,0,0,0,0,0,0,0,0,0,0,0,0,0,0,0,0,0,0,0,0,0,0,0,0,0,0,0,0,0,0,0,0,0,0,0,0,0,0,0,0,0,0,0,0,0,0,0,0,0,0,0,0,0,0,0,0,0,0,0,0,0,0,0,0,0,0,0,0,0,0,0,0,0,0,0,0,0,0,0,0,0,0,0,0,0,0,0,0,0,0,0,0,0,0,0,0,0,0,0,0,0,0,0,0,0,0,0,0,0,0,0,0,0,0,0,0,0,0,0,0,0,0,0,0,0,0,0,0,0,0,0,0,0,0,0,0,0,0,0,0,0,0,0,0,0,0,0,0,0,0,0,0,0,0,0,0,0,0,0,0,0,0,0,0,0,0,0,0,0,0,0,0,0,0,0,0,0,0,0,0,0,0,0,0,0,0]","[0,0,0,0,0,0,0,0,0,0,0,0,0,0,0,0,0,0,0,0,0,0,0,0,0,0,0,0,0,0,0,0,0,0,0,0,0,0,0,0,0,0,0,0,0,0,0,0,0,0,0,0,0,0,0,0,0,0,0,0,0,0,0,0,0,0,0,0,0,0,0,0,0,0,0,0,0,0,0,0,0,0,0,0,0,0,0,0,0,0,0,0,0,0,0,0,0,0,0,0,0,0,0,0,0,0,0,0,0,0,0,0,0,0,0,0,0,0,0,0,0,0,0,0,0,0,0,0,0,0,0,0,0,0,0,0,0,0,0,0,0,0,0,0,0,0,0,0,0,0,0,0,0,0,0,0,0,0,0,0,0,0,0,0,0,0,0,0,0,0,0,0,0,0,0,0,0,0,0,0,0,0,0,0,0,0,0,0,0,0,0,0,0,0,0,0,0,0,0,0,0,0,0,0,0,0,0,0,0,0]","[0,0.01580000001192161,0.0324000000059641,0.04910000002384152,0.06580000001192587,0.08240000000596126,0.09910000002384578,0.11570000001788117,0.13240000000596552,0.1490000000000009,0.1658000000119202,0.18240000000596268,0.19900000000000517,0.2157000000178826,0.23260000002384373,0.24910000002384436,0.265600000023845,0.2824000000059641,0.2989999999999995,0.31560000002384214,0.3323000000119265,0.3489000000059619,0.36580000001192303,0.3825000000000003,0.39890000000595904,0.41590000000596206,0.4328000000119232,0.46370000001788014,0.48070000001788316,0.4923000000119231,0.507000000000005,0.5216000000238452,0.5470000000000041,0.5593000000119233,0.5806000000238427,0.5967000000178828,0.6137000000178858,0.6304000000059631,0.6470000000000056,0.663700000017883,0.6803000000119255,0.6969000000059609,0.7134000000059615,0.7306000000238413,0.7475000000000023,0.7637000000178844,0.7804000000059617,0.7972000000178809,0.8139000000059653,0.8305000000000007,0.8470000000000013,0.8637000000178858,0.880600000023847,0.8964000000059613,0.9128000000119201,0.9296000000238465,0.9471000000238448,0.9634000000059615,0.972999999999999,0.9966000000238466,1.0074000000059655,1.02170000001788,1.0357000000178829,1.0628000000119258,1.0801000000238474,1.091000000000001,1.1057000000178832,1.1295000000000002,1.1461000000238428,1.1558000000119222,1.170500000000004,1.185300000011921,1.2126000000238406,1.2225000000000037,1.2460000000000022,1.2560000000000002,1.2793000000119221,1.2961000000238414,1.312700000017884,1.3294000000059611,1.3461000000238457,1.362700000017881,1.3790000000000049,1.395900000005966,1.4126000000238434,1.4224000000059647,1.446100000023847,1.463100000023843,1.479300000011925,1.4963000000119209,1.5129000000059634,1.52320000001788,1.5461000000238414,1.562600000023842,1.5800000000000054,1.5909000000059592,1.6129999999999995,1.629700000017884,1.6469000000059637,1.6649999999999991,1.6801000000238417,1.6917000000178817,1.70770000001788,1.723100000023841,1.738500000000002,1.7538000000119212,1.7691000000238404,1.784100000023841,1.7989999999999995,1.8151000000238469,1.8315000000000055,1.8485000000000014,1.865000000000002,1.8818000000119213,1.8984000000059638,1.9149000000059644,1.9314999999999998,1.9483000000119262,1.9652000000178802,1.981500000000004,1.9983000000119233,2.0151000000238426,2.031700000017885,2.0484000000059623,2.065000000000005,2.081900000005966,2.0983000000119247,2.115000000000002,2.1316000000238446,2.148300000011922,2.164999999999999,2.181400000005965,2.198300000011926,2.21520000001788,2.231600000023846,2.2481000000238467,2.2650000000000006,2.2816000000238432,2.298100000023844,2.314900000005963,2.3316000000238404,2.3485000000000014,2.36490000000596,2.381300000011926,2.3981000000238453,2.414600000023846,2.4318000000119255,2.448300000011926,2.464700000017885,2.481400000005962,2.4983000000119233,2.514700000017882,2.5313000000119246,2.548100000023844,2.5645000000000024,2.5814000000059636,2.5978000000119224,2.6146000000238416,2.6314000000059607,2.6478000000119195,2.664400000005962,2.6812000000178813,2.6979000000059656,2.7148000000119197,2.7313000000119203,2.7480000000000047,2.7646000000238473,2.7812000000178827,2.7982000000178857,2.8144000000059606,2.8314000000059636,2.848100000023841,2.864300000011923,2.881200000017884,2.8977000000178847,2.914500000000004,2.9310000000000045,2.947700000017882,2.9649000000059615,2.9810000000000016,2.997900000005963,3.014700000017882,3.031100000023841,3.0476000000238415,3.064300000011926,3.081000000000003,3.0976000000238457,3.114400000005965,3.1310000000000002,3.147600000023843,3.16430000001192,3.1808000000119208,3.197600000023847,3.2142000000178825,3.2310000000000016,3.247700000017886,3.2645000000000053,3.280900000005964,3.2976000000238415,3.3144000000059606,3.331000000000003,3.3477000000178805,3.364400000005965,3.3808000000119236,3.397500000000001,3.4140000000000015,3.4308000000119208,3.447700000017882,3.4642000000178825,3.480800000011925]",5,0,5,0,1,0.5805,,,,
T111111111,2024-11-28_11h03.22.460,GoFitts,2023.2.3,Win32,60.24096386,"[-258.31592153107624,-54.90674410526873]","[241.25534487273973,107.41380002134738]",20,528.1737058,5.75,1,2.1654,"[-254.5,-254.5,-254.5,-254.5,-254.5,-254.5,-254.5,-254.5,-254.5,-254.5,-254.5,-254.5,-254.5,-254.5,-254.5,-254.5,-254.5,-254.5,-254.5,-254.5,-254.5,-254.5,-254.5,-254.5,-254.5,-250.49993896484375,-247.99993896484375,-236,-224.5,-216.5,-200,-192.5,-164,-152.5,-148.5,-142,-138.5,-134,-133.5,-132.5,-131,-131,-131,-127.5,-125,-122.5,-117.99993896484375,-114,-105,-98.5,-87,-79.5,-67.99993896484375,-46.5,-31,-18.5,1,14,25,44,52.5,65,72,78,81.5,84,85.5,85.5,85.5,85.5,85.5,85.5,85.5,85.5,85.5,85.5,85.5,85.5,85.5,85.5,85.5,85.5,85.5,85.5,85.5,85.5,85.5,85.5,85.5,89.5,95,105,112,122,126,130.5,134,136,147,153,154,159,162.5,162.5,171.5,174,175.5,179.5,184.5,187.5,191.5,199,203,208.5,213,219,220.5,220.5,223.5,224,224,225.5,227,227.5,227.5,229,231,232,232.5,232.5,232.5,232.5,234,235,235,235,235,235,235,235,235,235,235,235,235,235,235,235,235,235,237,237.5,237.5,237.5,237.5,237.5,237.5,237.5,237.5]","[-53,-53,-53,-53,-53,-53,-53,-53,-53,-53,-53,-53,-53,-53,-53,-53,-53,-53,-53,-53,-53,-53,-53,-53,-53,-51.5,-50.5,-45.5,-39.5,-36.5,-32,-28.5,-20,-16.5,-14.5,-14,-12,-11.5,-11.5,-11.5,-11.5,-11.5,-11.5,-10.5,-10.5,-10.5,-11,-11,-11,-11,-11,-11,-10.5,-6,-3.5,-1,5,8.5,13,21,27.5,33.5,38.999969482421875,42.5,43.999969482421875,45,46.499969482421875,46.499969482421875,46.499969482421875,46.499969482421875,46.499969482421875,46.499969482421875,46.499969482421875,46.499969482421875,46.499969482421875,46.499969482421875,46.499969482421875,46.499969482421875,46.499969482421875,46.499969482421875,46.499969482421875,46.499969482421875,46.499969482421875,46.499969482421875,46.499969482421875,46.499969482421875,46.499969482421875,46.499969482421875,46.499969482421875,50.5,53.5,58.999969482421875,63,68.5,70.5,73,75.5,77,81.49996948242188,83.99996948242188,84.5,86,86.49996948242188,86.49996948242188,90,90,90,91.49996948242188,91.49996948242188,92.5,93.5,95,96,97,98.5,101,102,102,102.5,103.5,103.5,103.5,103.99996948242188,105,105,105.5,106,106,108,108,108,108,108.99996948242188,110,110,110,110,110,110,110,110,110,110,110,110,110,110,110,110,110,110.5,110.5,110.5,110.5,110.5,110.5,110.5,110.5,110.5]","[0,0,0,0,0,0,0,0,0,0,0,0,0,0,0,0,0,0,0,0,0,0,0,0,0,0,0,0,0,0,0,0,0,0,0,0,0,0,0,0,0,0,0,0,0,0,0,0,0,0,0,0,0,0,0,0,0,0,0,0,0,0,0,0,0,0,0,0,0,0,0,0,0,0,0,0,0,0,0,0,0,0,0,0,0,0,0,0,0,0,0,0,0,0,0,0,0,0,0,0,0,0,0,0,0,0,0,0,0,0,0,0,0,0,0,0,0,0,0,0,0,0,0,0,0,0,0,0,0,0,0,0,0,0,0,0,0,0,0,0,0,0,0,0,0,0,0,0,0,0,0,0,0,0,0,0,0,0,0]","[0,0,0,0,0,0,0,0,0,0,0,0,0,0,0,0,0,0,0,0,0,0,0,0,0,0,0,0,0,0,0,0,0,0,0,0,0,0,0,0,0,0,0,0,0,0,0,0,0,0,0,0,0,0,0,0,0,0,0,0,0,0,0,0,0,0,0,0,0,0,0,0,0,0,0,0,0,0,0,0,0,0,0,0,0,0,0,0,0,0,0,0,0,0,0,0,0,0,0,0,0,0,0,0,0,0,0,0,0,0,0,0,0,0,0,0,0,0,0,0,0,0,0,0,0,0,0,0,0,0,0,0,0,0,0,0,0,0,0,0,0,0,0,0,0,0,0,0,0,0,0,0,0,0,0,0,0,0,0]","[0,0,0,0,0,0,0,0,0,0,0,0,0,0,0,0,0,0,0,0,0,0,0,0,0,0,0,0,0,0,0,0,0,0,0,0,0,0,0,0,0,0,0,0,0,0,0,0,0,0,0,0,0,0,0,0,0,0,0,0,0,0,0,0,0,0,0,0,0,0,0,0,0,0,0,0,0,0,0,0,0,0,0,0,0,0,0,0,0,0,0,0,0,0,0,0,0,0,0,0,0,0,0,0,0,0,0,0,0,0,0,0,0,0,0,0,0,0,0,0,0,0,0,0,0,0,0,0,0,0,0,0,0,0,0,0,0,0,0,0,0,0,0,0,0,0,0,0,0,0,0,0,0,0,0,0,0,0,0]","[0,0.016200000017882132,0.03270000001788276,0.04940000000596001,0.06620000001787929,0.08309999999404027,0.09990000000595955,0.11609999999404153,0.1329000000059608,0.14970000001788009,0.16609999999403868,0.18290000000595796,0.19950000000000045,0.21590000000595921,0.23259999999403647,0.2490999999940371,0.26599999999999824,0.28249999999999886,0.29959999999403664,0.3162000000178793,0.33290000000596365,0.3490999999940385,0.3659000000059578,0.3825000000000003,0.39890000000595904,0.4159999999999968,0.4325999999940393,0.4494000000059586,0.4660000000000011,0.4827000000178785,0.49940000000596285,0.5160999999940401,0.5325999999940407,0.5490999999940414,0.5660000000000025,0.5827000000178799,0.5994000000059643,0.6159999999999997,0.6325999999940422,0.6493000000119196,0.6660999999940387,0.6824000000059627,0.6989000000059633,0.7159000000059592,0.7325999999940365,0.7492000000178791,0.7659000000059635,0.7825999999940407,0.7992000000178834,0.8159000000059606,0.8325999999940379,0.849499999999999,0.865800000011923,0.8827000000178842,0.8992000000178848,0.9159999999999968,0.9325999999940393,0.9495000000000005,0.9657000000178826,0.9825999999940365,0.9990000000000023,1.0158000000119216,1.0324999999999989,1.0492000000178834,1.0658000000119188,1.0824000000059613,1.0990000000000038,1.1154999999999973,1.1320999999940398,1.148900000005959,1.1657000000178783,1.182200000017879,1.1987000000178796,1.215400000005964,1.2324000000059598,1.2490000000000023,1.2659999999999982,1.2820999999940383,1.298599999994039,1.3154000000059582,1.3320999999940426,1.3489000000059619,1.3655999999940391,1.3825999999940422,1.400400000005959,1.4189000000059622,1.433700000017879,1.4500000000000028,1.4654999999999987,1.4825000000000017,1.4990000000000023,1.5183000000119193,1.5395999999940386,1.5573000000119208,1.5745000000000005,1.5924000000059593,1.6099999999999994,1.6244999999999976,1.649800000011922,1.6818000000119184,1.6980000000000004,1.7209000000059618,1.7418000000119207,1.7604000000059585,1.781700000017885,1.798499999999997,1.8168000000119235,1.8377000000178825,1.8555999999940411,1.8730999999940394,1.8887000000178844,1.9047000000178826,1.9197000000178832,1.9327000000178813,1.9485000000000028,1.965300000011922,1.9819000000059575,1.9983000000119233,2.015500000000003,2.0319000000059617,2.048700000017881,2.0653000000119235,2.0817000000178822,2.0983000000119247,2.1148000000119183,2.1317000000178794,2.1484000000059638,2.1654000000059597,2.1818000000119184,2.198300000011919,2.2149000000059615,2.231400000005962,2.2485,2.2650999999940424,2.281599999994043,2.2982000000178786,2.314800000011921,2.3314000000059636,2.348200000017883,2.3648000000119183,2.3814000000059607,2.398099999994038,2.4148000000119225,2.4314999999999998,2.4482000000178843,2.4648000000119197,2.481499999999997,2.4980999999940394,2.514700000017882,2.5314000000059593,2.5482000000178786,2.564900000005963,2.5813000000119217,2.5984000000059595,2.6148000000119183,2.6314000000059607,2.6480000000000032,2.6647000000178807,2.681400000005958]",6,0,6,0,1,0.4325,,,,
