key_resp_4.keys,key_resp_4.rt,mouse_2.x,mouse_2.y,mouse_2.leftButton,mouse_2.midButton,mouse_2.rightButton,mouse_2.time,cont.keys,cont.rt,retry_testing.thisRepN,retry_testing.thisTrialN,retry_testing.thisN,retry_testing.thisIndex,retry_testing.ran,受試者編號,date,expName,psychopyVersion,OS,frameRate,key_resp.keys,key_resp.rt,key_resp_3.keys,key_resp_3.rt,from,to,w,a,sequence_loop.thisN,mouse.x,mouse.y,mouse.leftButton,mouse.midButton,mouse.rightButton,mouse.time,key_resp_2.keys,trial_loop.thisRepN,trial_loop.thisTrialN,trial_loop.thisN,trial_loop.thisIndex,trial_loop.ran,sequence_loop.thisRepN,sequence_loop.thisTrialN,sequence_loop.thisIndex,sequence_loop.ran
return,3.8438,"[154,154,154,153,153,152,152,150,149,148,147,146,145,142,139,132,129,125,122,120,117,115,115,115,115,115,115,112,108,104,103,100,94,85,73,63,58,55,51,49,48,49,60,79,107,138,193,230,253,261,261,261,261,262,262,262,262,263,267,274,281,286,289,290,290,290,290,290,290,290,290,290,290,291,295,301,307,315,325,329,329,330,330,330,330,330,330,330,330,330,330,330,330,330,330,330,330,330,330,330,330,330,330,331,334,339,343,344,345,345,345,345,345,345,345,345,345,345,345,345,345,345,345,345,345,345,345,345,345,345,345,345,345,345,345,345,345,345,345,345,345,345,345,345,345,345,345,345,345,345,345,345,345,345,345,345,345,345,345,345,345,345,345,345,345,345,345,345,339,328,306,287,190,190,22,-13,-88,-115,-123,-123,-123,-125,-125,-125,-122,-115,-106,-98,-89,-75,-70,-53,-45,-42,-36,-33,-30,-29,-28,-25,-24,-21,-18,-15,-14,-11,-8,-8,-6,-5,-5,-5,-5,-5,-5,-5,-7,-14,-17,-39,-61,-61,-118,-134,-179,-192,-211,-218,-222,-229,-239,-252,-269,-283,-296,-305,-315,-325,-330,-335,-342,-357,-361,-364,-367,-367,-367,-367,-367,-363,-359,-357,-357,-357,-357,-357,-357,-357,-357,-357,-357,-357,-354,-349,-340,-312,-288,-172,-133,-44,-27,2]","[105,105,105,105,105,105,105,105,105,105,105,105,105,105,105,106,107,108,108,109,109,109,109,109,109,109,109,109,109,108,107,106,102,96,89,83,78,71,60,45,31,17,8,2,-2,-2,-2,-6,-9,-11,-11,-11,-12,-13,-13,-13,-13,-13,-14,-16,-18,-20,-22,-23,-23,-23,-23,-23,-23,-23,-23,-23,-23,-23,-21,-19,-17,-15,-12,-10,-10,-10,-10,-10,-10,-10,-10,-10,-10,-10,-10,-10,-10,-10,-10,-10,-10,-10,-10,-10,-10,-10,-10,-8,-7,-5,-2,-2,-2,-2,-2,-2,-2,-2,-2,-2,-2,-2,-2,-2,-2,-2,-2,-2,-2,-2,-2,-2,-2,-2,-2,-2,-2,-2,-2,-2,-2,-2,-2,-2,-2,-2,-2,-2,-2,-2,-2,-2,-2,-2,-2,-2,-2,-2,-2,-2,-2,-2,-2,-2,-2,-2,-2,-2,-2,-2,-2,-2,2,12,38,65,172,172,323,350,394,410,415,415,415,414,408,401,392,380,372,370,367,366,366,366,366,366,366,366,366,364,363,359,358,357,356,356,356,356,354,354,352,352,352,352,352,352,352,352,351,350,347,328,311,311,238,213,143,124,80,63,52,42,32,23,16,11,8,5,2,0,-2,-3,-3,-3,-4,-4,-4,-4,-4,-4,3,12,16,18,18,18,18,18,18,17,16,14,14,12,7,4,-4,-26,-43,-136,-173,-267,-292,-335]","[0,0,0,0,0,0,0,0,0,0,0,0,0,0,0,0,0,0,0,0,0,0,0,0,0,0,0,0,0,0,0,0,0,0,0,0,0,0,0,0,0,0,0,0,0,0,0,0,0,0,0,0,0,0,0,0,0,0,0,0,0,0,0,0,0,0,0,0,0,0,0,0,0,0,0,0,0,0,0,0,0,0,0,0,0,0,0,0,0,0,0,0,0,0,0,0,0,0,0,0,0,0,0,0,0,0,0,0,0,0,0,0,0,0,0,0,0,0,0,0,0,0,0,0,0,0,0,0,0,0,0,0,0,0,0,0,0,0,0,0,0,0,0,0,0,0,0,0,0,0,0,0,0,0,0,0,0,0,0,0,0,0,0,0,0,0,0,0,0,0,0,0,0,0,0,0,0,0,0,0,0,0,0,0,0,0,0,0,0,0,0,0,0,0,0,0,0,0,0,0,0,0,0,0,0,0,0,0,0,0,0,0,0,0,0,0,0,0,0,0,0,0,0,0,0,0,0,0,0,0,0,0,0,0,0,0,0,0,0,0,0,0,0,0,0,0,0,0,0,0,0,0,0,0,0,0,0,0,0,0,0,0,0,0,0,0,0,0,0,0,0,0]","[0,0,0,0,0,0,0,0,0,0,0,0,0,0,0,0,0,0,0,0,0,0,0,0,0,0,0,0,0,0,0,0,0,0,0,0,0,0,0,0,0,0,0,0,0,0,0,0,0,0,0,0,0,0,0,0,0,0,0,0,0,0,0,0,0,0,0,0,0,0,0,0,0,0,0,0,0,0,0,0,0,0,0,0,0,0,0,0,0,0,0,0,0,0,0,0,0,0,0,0,0,0,0,0,0,0,0,0,0,0,0,0,0,0,0,0,0,0,0,0,0,0,0,0,0,0,0,0,0,0,0,0,0,0,0,0,0,0,0,0,0,0,0,0,0,0,0,0,0,0,0,0,0,0,0,0,0,0,0,0,0,0,0,0,0,0,0,0,0,0,0,0,0,0,0,0,0,0,0,0,0,0,0,0,0,0,0,0,0,0,0,0,0,0,0,0,0,0,0,0,0,0,0,0,0,0,0,0,0,0,0,0,0,0,0,0,0,0,0,0,0,0,0,0,0,0,0,0,0,0,0,0,0,0,0,0,0,0,0,0,0,0,0,0,0,0,0,0,0,0,0,0,0,0,0,0,0,0,0,0,0,0,0,0,0,0,0,0,0,0,0,0]","[0,0,0,0,0,0,0,0,0,0,0,0,0,0,0,0,0,0,0,0,0,0,0,0,0,0,0,0,0,0,0,0,0,0,0,0,0,0,0,0,0,0,0,0,0,0,0,0,0,0,0,0,0,0,0,0,0,0,0,0,0,0,0,0,0,0,0,0,0,0,0,0,0,0,0,0,0,0,0,0,0,0,0,0,0,0,0,0,0,0,0,0,0,0,0,0,0,0,0,0,0,0,0,0,0,0,0,0,0,0,0,0,0,0,0,0,0,0,0,0,0,0,0,0,0,0,0,0,0,0,0,0,0,0,0,0,0,0,0,0,0,0,0,0,0,0,0,0,0,0,0,0,0,0,0,0,0,0,0,0,0,0,0,0,0,0,0,0,0,0,0,0,0,0,0,0,0,0,0,0,0,0,0,0,0,0,0,0,0,0,0,0,0,0,0,0,0,0,0,0,0,0,0,0,0,0,0,0,0,0,0,0,0,0,0,0,0,0,0,0,0,0,0,0,0,0,0,0,0,0,0,0,0,0,0,0,0,0,0,0,0,0,0,0,0,0,0,0,0,0,0,0,0,0,0,0,0,0,0,0,0,0,0,0,0,0,0,0,0,0,0,0]","[0.0012000000476888317,0.012200000047684512,0.02690000009536675,0.04479999995231765,0.06220000004768167,0.07699999999999818,0.09390000009537403,0.10670000004768099,0.1264000000953729,0.14370000004768713,0.1599999999999966,0.17729999995232504,0.19370000004768428,0.20570000004768474,0.22709999990463814,0.2444000000953679,0.2617000000476821,0.27729999995231935,0.29390000009536266,0.31129999995231117,0.3267999999523141,0.3440000000000083,0.3544000000953673,0.3757999999523207,0.3877999999523212,0.4050999999046354,0.42279999995231776,0.44440000009537073,0.4607000000476802,0.4769000000953696,0.49540000009537266,0.5057999999523162,0.5287000000476922,0.5392000000476855,0.5600000000000023,0.5755000000000052,0.5922000000476828,0.6087999999523248,0.6214999999999975,0.6440000000000055,0.660700000047683,0.6765000000000043,0.6922000000476913,0.7104000000953761,0.7275999999046405,0.7424000000953725,0.7587999999523163,0.776799999952317,0.7922999999523199,0.8094000000953656,0.8207999999523139,0.8377000000476897,0.8555999999046406,0.8767999999523113,0.8922999999523142,0.9040999999046306,0.9207999999523224,0.9385000000000048,0.9599000000953737,0.9717999999523244,0.9927000000476909,1.0049000000953754,1.027000000000001,1.0435999999046288,1.0589999999999975,1.0762000000476917,1.0874000000953714,1.1042000000476833,1.1217999999523158,1.1389999999999958,1.1554000000953693,1.1709000000953722,1.187700000047684,1.204499999999996,1.2265999999046358,1.2432999999523133,1.2600000000000051,1.2754000000953738,1.2879000000953624,1.3090999999046318,1.3262000000476917,1.3380999999046281,1.3589000000953746,1.370700000047691,1.3875000000000028,1.40620000004769,1.4267999999523227,1.4392000000476912,1.4599000000953737,1.4722999999523125,1.4890000000000043,1.5100000000000051,1.5220000000000056,1.5389000000953672,1.5602000000476863,1.5772000000476822,1.5885999999046305,1.6052999999523223,1.6225000000000023,1.6437999999523214,1.659000000000006,1.672200000047681,1.6935000000000002,1.704499999999996,1.7230999999046333,1.7450999999046388,1.7597000000476868,1.777000000000001,1.7879999999999967,1.8100000000000023,1.820799999952314,1.8377000000476897,1.8542999999523175,1.870900000095375,1.8885000000000076,1.9097000000476925,1.9224000000953652,1.938799999952323,1.960400000095376,1.9720000000000084,1.9890999999046386,2.0105000000000075,2.022599999904628,2.0390999999046358,2.059700000047684,2.072200000047687,2.093500000000006,2.1059000000953745,2.1257999999523207,2.1387000000476917,2.1540999999046306,2.170900000095372,2.188799999952323,2.210400000095376,2.2222000000476925,2.2422000000476885,2.254200000047689,2.271000000000001,2.2877000000476926,2.3047999999523228,2.3217999999523187,2.3429000000953693,2.3557999999523247,2.3725000000000023,2.393500000000003,2.4055000000000035,2.4220999999046313,2.4435999999046345,2.4555000000000007,2.477099999904638,2.4934999999999974,2.5045999999046415,2.521500000000003,2.5422000000476856,2.5545999999046387,2.5709000000953637,2.5877000000476897,2.6042000000476833,2.6214000000953632,2.6422999999523142,2.6539999999999964,2.6710999999046408,2.6890999999046414,2.710200000047692,2.727099999904638,2.7377999999523155,2.754299999952323,2.7722000000476896,2.7935000000000088,2.8092000000476816,2.8264000000953757,2.8385999999046305,2.859299999952313,2.8735999999046413,2.8922999999523142,2.9069999999999965,2.92940000009537,2.9425999999046297,2.9592000000476872,2.976400000095367,2.987400000095363,3.0045999999046415,3.0262000000476803,3.042500000000004,3.0592000000476816,3.075400000095371,3.088099999904628,3.109099999904629,3.1212999999523134,3.1424999999999983,3.1544000000953645,3.1762999999523203,3.1922999999523114,3.205900000095369,3.227400000095372,3.238299999952318,3.2595000000000027,3.275400000095374,3.289900000095372,3.3092000000476816,3.3217999999523187,3.3427999999523195,3.359000000000009,3.372400000095368,3.393900000095371,3.4104000000953647,3.4257000000476836,3.438599999904639,3.454499999999996,3.4762999999523174,3.4922999999523228,3.505299999952314,3.5209000000953665,3.538900000095367,3.5540999999046363,3.571200000047682,3.588099999904628,3.61090000009537,3.620999999999995,3.6425999999046326,3.65920000004769,3.6729000000953675,3.6925999999046297,3.704499999999996,3.7260999999046334,3.740200000047679,3.7590999999046346,3.7760999999046305,3.792500000000004,3.8047000000476885,3.8257999999523236,3.842500000000001,3.855400000095372,3.8757000000476864,3.887900000095371,3.9089000000953718,3.921500000000009,3.9424000000953754,3.9565000000000055,3.977000000000004,3.990200000047679,4.011400000095364,4.027400000095369,4.038900000095367,4.055400000095375,4.075799999952324,4.093500000000006,4.105599999904641,4.1259000000953705,4.14209999990463,4.157099999904631,4.175799999952318,4.1875,4.204099999904628,4.221000000000004,4.237700000047681,4.259500000000003,4.272500000000008,4.29240000009537,4.305000000000007,4.325799999952324,4.338400000095376,4.359000000000009,4.3757000000476864,4.388200000047689,4.40909999990464,4.4227000000476835,4.442400000095375,4.455200000047682,4.4775999999046405,4.488200000047684,4.5094000000953685]",return,5.986,0,0,0,0,1,test,2022-11-03_13h05.30.219,GoFitts,2022.1.4,Win32,60.28454304,,,,,,,,,,,,,,,,,,,,,,,,,
,,,,,,,,,,,,,,,test,2022-11-03_13h05.30.219,GoFitts,2022.1.4,Win32,60.28454304,return,2.5386,return,1.1877,"[-74,-204]","[-16.985875280993813,-161.6098079973444]",60.5,325,0,"[-74,-74,-74,-74,-74,-74,-74,-74,-74,-75,-75,-75,-75,-75,-75,-75,-75,-75,-76,-76,-76,-76,-76,-76,-76,-76,-77,-78,-79,-79,-79,-79,-79,-68,-62,-33]","[-204,-204,-204,-204,-204,-204,-204,-204,-204,-202,-202,-202,-202,-202,-201,-201,-201,-201,-200,-200,-200,-200,-200,-199,-199,-199,-198,-197,-196,-194,-193,-191,-188,-186,-185,-184]","[0,0,0,0,0,0,0,0,0,0,0,0,0,0,0,0,0,0,0,0,0,0,0,0,0,0,0,0,0,0,0,0,0,0,0,0]","[0,0,0,0,0,0,0,0,0,0,0,0,0,0,0,0,0,0,0,0,0,0,0,0,0,0,0,0,0,0,0,0,0,0,0,0]","[0,0,0,0,0,0,0,0,0,0,0,0,0,0,0,0,0,0,0,0,0,0,0,0,0,0,0,0,0,0,0,0,0,0,0,0]","[0.0040000000000048885,0.02109999990463507,0.0315000000000083,0.049299999952324924,0.07139999985695056,0.08639999985695113,0.10259999990464053,0.11950000000000216,0.13559999990464178,0.1495000000000033,0.169200000047681,0.18209999990463643,0.20379999995232367,0.21620000004769224,0.23799999999999955,0.252599999904632,0.26470000004768224,0.2830999999046355,0.30479999995232276,0.32089999985694817,0.3327000000476943,0.3527000000476903,0.364599999904641,0.3820999999046393,0.40279999995232174,0.4190999999046312,0.4317999999523181,0.4535999999046396,0.4667999999523147,0.48620000004768826,0.501099999904639,0.5215000000000032,0.5324999999999989,0.5529999999999973,0.5660999999046368,0.5862000000476826]",,0,0,0,0,1,,,,
,,,,,,,,,,,,,,,test,2022-11-03_13h05.30.219,GoFitts,2022.1.4,Win32,60.28454304,,,,,"[-16.985875280993813,-161.6098079973444]","[-16.985875280993668,161.60980799734443]",60.5,325,0,"[-33,-17,-15,-14,-14,-14,-14,-14,-16,-19,-22,-24,-25,-26,-26,-26,-27,-27,-27,-27,-27,-27,-27,-27,-27,-27,-27,-27,-27,-27,-27,-29,-29,-29,-37,-44,-58,-61,-63,-63,-57,-51,-46,-40,-36,-34,-34,-32,-31,-23,-18]","[-184,-183,-183,-183,-183,-183,-183,-182,-181,-179,-177,-175,-172,-169,-168,-166,-166,-164,-164,-164,-164,-164,-164,-164,-164,-164,-164,-164,-164,-163,-162,-141,-123,-6,85,122,191,209,216,219,226,227,228,230,230,232,232,232,229,207,185]","[0,0,0,0,0,0,0,0,0,0,0,0,0,0,0,0,0,0,0,0,0,0,0,0,0,0,0,0,0,0,0,0,0,0,0,0,0,0,0,0,0,0,0,0,0,0,0,0,0,0,0]","[0,0,0,0,0,0,0,0,0,0,0,0,0,0,0,0,0,0,0,0,0,0,0,0,0,0,0,0,0,0,0,0,0,0,0,0,0,0,0,0,0,0,0,0,0,0,0,0,0,0,0]","[0,0,0,0,0,0,0,0,0,0,0,0,0,0,0,0,0,0,0,0,0,0,0,0,0,0,0,0,0,0,0,0,0,0,0,0,0,0,0,0,0,0,0,0,0,0,0,0,0,0,0]","[0.0003999998569526042,0.01739999985694851,0.032799999952317194,0.050499999999999545,0.06619999980927105,0.07869999980927389,0.10059999990463098,0.11289999985694976,0.13359999990463223,0.15019999980927423,0.16789999985695658,0.17839999985694988,0.1992999999523164,0.21209999990463757,0.2328999998569543,0.24509999990463882,0.2673999998569485,0.28389999985695624,0.29919999980927514,0.3111999998092614,0.3281999998092715,0.34459999990463075,0.36129999995232254,0.37959999990464155,0.4006999998092624,0.41189999985695636,0.4326999998092731,0.4445999999046393,0.4618999998569535,0.48449999999999704,0.4960999999046294,0.5160999999046396,0.5346999998092627,0.5504999999999995,0.5663999998569551,0.578899999856958,0.5997999999523245,0.6161999998092682,0.6326999998092617,0.6491999998092695,0.6620000000000061,0.6826999998092731,0.6992999999523164,0.7160999999046425,0.7326999998092703,0.75,0.7668999998569461,0.7785000000000082,0.8013999998569545,0.8162999999523208,0.8325999999046303]",,1,0,1,0,1,,,,
,,,,,,,,,,,,,,,test,2022-11-03_13h05.30.219,GoFitts,2022.1.4,Win32,60.28454304,,,,,"[-16.985875280993668,161.60980799734443]","[50.21526158592892,-154.54668389796245]",60.5,325,0,"[-18,-15,-14,-14,-14,-14,-15,-15,-15,-15,-15,-15,-15,-15,-15,-15,-15,-15,-15,-15,-15,-15,-15,-14,-3,26,40,74,86,90,90,90,90,87,84,82,80,77,74,68,60,52]","[185,170,159,155,150,149,148,147,146,146,146,146,146,146,146,146,146,146,146,146,146,146,142,119,57,-41,-92,-206,-236,-244,-244,-244,-237,-232,-229,-228,-226,-223,-217,-204,-187,-172]","[0,0,0,0,0,0,0,0,0,0,0,0,0,0,0,0,0,0,0,0,0,0,0,0,0,0,0,0,0,0,0,0,0,0,0,0,0,0,0,0,0,0]","[0,0,0,0,0,0,0,0,0,0,0,0,0,0,0,0,0,0,0,0,0,0,0,0,0,0,0,0,0,0,0,0,0,0,0,0,0,0,0,0,0,0]","[0,0,0,0,0,0,0,0,0,0,0,0,0,0,0,0,0,0,0,0,0,0,0,0,0,0,0,0,0,0,0,0,0,0,0,0,0,0,0,0,0,0]","[0.00029999995231833054,0.01679999995232606,0.0331999998092698,0.0458999998569567,0.06650000000000489,0.07889999985695795,0.10089999985694931,0.11229999995232731,0.13479999995232106,0.15149999999999864,0.16150000000000375,0.17859999990463393,0.1950000000000074,0.2128999998569583,0.22929999995231753,0.2468999998569501,0.2674999999999983,0.27949999999999875,0.296199999809275,0.3173999998569599,0.3325999999046303,0.3457999999523196,0.3645000000000067,0.38400000000000034,0.40019999980927423,0.4164999999999992,0.428799999952318,0.4501999998092714,0.4666999998092649,0.4830000000000041,0.49939999985694783,0.5123999998569531,0.534000000000006,0.5505999999046338,0.5665999999046392,0.5828999998569486,0.5955999999046355,0.6167999999523204,0.6330000000000098,0.6454999999999984,0.6666999998092678,0.6830000000000069]",,2,0,2,0,1,,,,
,,,,,,,,,,,,,,,test,2022-11-03_13h05.30.219,GoFitts,2022.1.4,Win32,60.28454304,,,,,"[50.21526158592892,-154.54668389796245]","[-81.24999999999996,140.7291281149713]",60.5,325,0,"[52,48,46,44,44,44,44,44,44,44,44,44,44,44,44,44,44,44,44,44,44,40,32,10,-32,-70,-100,-114,-119,-121,-121,-120,-119,-116,-114,-114,-110,-109,-106,-101,-95,-93,-82]","[-172,-162,-158,-154,-154,-154,-154,-154,-154,-154,-154,-154,-154,-154,-154,-154,-154,-154,-154,-154,-154,-150,-143,-118,-51,33,101,140,157,164,167,169,171,174,179,182,188,190,190,188,180,175,155]","[0,0,0,0,0,0,0,0,0,0,0,0,0,0,0,0,0,0,0,0,0,0,0,0,0,0,0,0,0,0,0,0,0,0,0,0,0,0,0,0,0,0,0]","[0,0,0,0,0,0,0,0,0,0,0,0,0,0,0,0,0,0,0,0,0,0,0,0,0,0,0,0,0,0,0,0,0,0,0,0,0,0,0,0,0,0,0]","[0,0,0,0,0,0,0,0,0,0,0,0,0,0,0,0,0,0,0,0,0,0,0,0,0,0,0,0,0,0,0,0,0,0,0,0,0,0,0,0,0,0,0]","[0.00040000009536811376,0.01740000009536402,0.03300000000000125,0.049900000095362884,0.06170000004767928,0.07860000014304092,0.0957000000476711,0.11640000009536777,0.12880000019072213,0.15020000004767553,0.16190000009535765,0.17960000014304,0.20120000004767746,0.21180000019073475,0.2289999999999992,0.24980000019073145,0.2627000000476727,0.27870000004767803,0.2967000000476787,0.31790000009536357,0.329900000095364,0.3452000000476829,0.3622000000476788,0.38299999999999557,0.3998000001907229,0.41680000019073304,0.4332000000476768,0.44599999999999795,0.4667000000476804,0.4794000000953673,0.501499999999993,0.5123000001907343,0.5333000001907351,0.5469000000953628,0.5678000001907293,0.5819000000953594,0.6004999999999967,0.6129000000953653,0.6339000000953661,0.6502000000476755,0.6664999999999992,0.6788000001907335,0.7003000001907225]",,3,0,3,0,1,,,,
,,,,,,,,,,,,,,,test,2022-11-03_13h05.30.219,GoFitts,2022.1.4,Win32,60.28454304,,,,,"[-81.24999999999996,140.7291281149713]","[108.7337235333145,-120.76103414007653]",60.5,325,0,"[-82,-78,-77,-77,-77,-77,-77,-77,-77,-77,-77,-77,-77,-77,-77,-77,-77,-77,-77,-77,-77,-77,-77,-77,-69,-62,-29,2,36,64,88]","[155,149,147,147,147,147,147,147,147,147,147,147,147,147,147,147,147,147,147,147,147,147,147,146,135,126,81,32,-21,-67,-103]","[0,0,0,0,0,0,0,0,0,0,0,0,0,0,0,0,0,0,0,0,0,0,0,0,0,0,0,0,0,0,0]","[0,0,0,0,0,0,0,0,0,0,0,0,0,0,0,0,0,0,0,0,0,0,0,0,0,0,0,0,0,0,0]","[0,0,0,0,0,0,0,0,0,0,0,0,0,0,0,0,0,0,0,0,0,0,0,0,0,0,0,0,0,0,0]","[0.00029999995231833054,0.016599999904642004,0.03259999990463314,0.04909999990464087,0.0628999998569526,0.07939999985696033,0.10059999990463098,0.11309999990463382,0.13289999985696,0.1454999999999984,0.1612999999523197,0.17889999985695226,0.19459999990463928,0.21229999995232163,0.23259999990463598,0.24900000000000944,0.2613999998569483,0.277899999856956,0.2957999999523224,0.31139999985695965,0.3277999999523189,0.34470000004769474,0.36129999995232254,0.3802999999523138,0.3995000000000033,0.4133999998569493,0.43289999985695715,0.44520000004769145,0.4662999999523265,0.4823999998569519,0.4992000000476935]",,4,0,4,0,1,,,,
,,,,,,,,,,,,,,,test,2022-11-03_13h05.30.219,GoFitts,2022.1.4,Win32,60.28454304,,,,,"[108.7337235333145,-120.76103414007653]","[-131.46526158592894,95.51510349752691]",60.5,325,0,"[88,109,126,131,131,132,131,131,130,127,125,124,123,123,123,123,123,123,123,123,123,123,123,123,123,123,123,123,122,119,111,88,33,-48,-178,-206,-244,-244,-244,-244,-244,-242,-242,-235,-233,-223,-215,-209,-194,-185,-177,-172,-169,-167,-164,-163,-163,-161,-160,-158]","[-103,-120,-126,-127,-127,-127,-126,-126,-123,-120,-119,-118,-118,-118,-117,-117,-117,-117,-117,-117,-117,-117,-117,-117,-117,-117,-117,-117,-117,-112,-102,-79,-40,8,65,75,88,89,92,92,94,99,99,100,100,98,97,96,94,95,99,105,110,113,114,114,114,114,111,107]","[0,0,0,0,0,0,0,0,0,0,0,0,0,0,0,0,0,0,0,0,0,0,0,0,0,0,0,0,0,0,0,0,0,0,0,0,0,0,0,0,0,0,0,0,0,0,0,0,0,0,0,0,0,0,0,0,0,0,0,0]","[0,0,0,0,0,0,0,0,0,0,0,0,0,0,0,0,0,0,0,0,0,0,0,0,0,0,0,0,0,0,0,0,0,0,0,0,0,0,0,0,0,0,0,0,0,0,0,0,0,0,0,0,0,0,0,0,0,0,0,0]","[0,0,0,0,0,0,0,0,0,0,0,0,0,0,0,0,0,0,0,0,0,0,0,0,0,0,0,0,0,0,0,0,0,0,0,0,0,0,0,0,0,0,0,0,0,0,0,0,0,0,0,0,0,0,0,0,0,0,0,0]","[0.00029999995231833054,0.016000000000005343,0.028799999952326516,0.049899999856961585,0.06239999985695022,0.07869999980927389,0.1000999999046428,0.11750000000000682,0.13129999995231856,0.1498999998569559,0.1673999998569542,0.1844999999999999,0.20000000000000284,0.21300000000000807,0.2295000000000016,0.24969999980926616,0.2622999999523188,0.27939999985694897,0.29479999995231765,0.311699999809278,0.32969999980927867,0.34639999985695624,0.36339999985695215,0.3797999999523256,0.3965000000000032,0.4126999998092771,0.4291999998092706,0.4461999998092665,0.46359999990464473,0.4847999999523296,0.4950999999046388,0.5117999999523164,0.5335000000000036,0.5453999998569543,0.5665000000000049,0.5787999999523237,0.6002999999523269,0.6177999999523252,0.633099999904644,0.6446999998092764,0.665799999952327,0.6832999999523253,0.6960999999046322,0.7160000000000082,0.7290000000000134,0.7497999999523159,0.7665000000000077,0.7790000000000106,0.7996999998092775,0.8166999998092734,0.8328999998569486,0.8493999998569564,0.8636999998092705,0.8832999999523281,0.8953999998569486,0.9161999998092654,0.9292999999523204,0.9498999998569531,0.9663999998569608,0.9796999998092701]",,5,0,5,0,1,,,,
,,,,,,,,,,,,,,,test,2022-11-03_13h05.30.219,GoFitts,2022.1.4,Win32,60.28454304,,,,,"[-131.46526158592894,95.51510349752691]","[148.45113686692267,-66.09470449981752]",60.5,325,0,"[-158,-153,-147,-142,-140,-139,-138,-137,-137,-137,-137,-137,-137,-137,-137,-137,-137,-137,-137,-137,-137,-137,-134,-127,-111,-78,8,57,87,107,114,129]","[107,99,94,92,91,90,90,90,90,90,90,90,90,90,90,90,90,90,90,90,90,90,87,84,77,62,20,-6,-24,-36,-41,-52]","[0,0,0,0,0,0,0,0,0,0,0,0,0,0,0,0,0,0,0,0,0,0,0,0,0,0,0,0,0,0,0,0]","[0,0,0,0,0,0,0,0,0,0,0,0,0,0,0,0,0,0,0,0,0,0,0,0,0,0,0,0,0,0,0,0]","[0,0,0,0,0,0,0,0,0,0,0,0,0,0,0,0,0,0,0,0,0,0,0,0,0,0,0,0,0,0,0,0]","[0.000999999999990564,0.01970000004767769,0.030799999952307644,0.051700000047674166,0.06839999985695044,0.0852000000476778,0.09979999995231026,0.11859999990463166,0.13570000004767735,0.14829999995231447,0.16489999985694226,0.18639999985694544,0.19859999990462995,0.21479999995230514,0.23189999985694953,0.24839999985694305,0.26509999990463484,0.28159999990462836,0.29829999995230594,0.3149999999999977,0.33139999985694146,0.3485999999046214,0.36989999985694055,0.3807000000476819,0.40309999990462586,0.41499999999999204,0.4365999999046295,0.45129999995231174,0.4683999998569419,0.4857000000476859,0.49879999995231117,0.5197000000476777]",,6,0,6,0,1,,,,
,,,,,,,,,,,,,,,test,2022-11-03_13h05.30.219,GoFitts,2022.1.4,Win32,60.28454304,,,,,"[148.45113686692267,-66.09470449981752]","[-158.94898511924342,33.78564975788589]",60.5,325,0,"[129,137,137,138,138,140,141,142,142,142,142,142,142,142,142,142,142,142,142,142,142,142,142,142,142,142,136,114,64,-2,-65,-107,-133,-138,-149,-151,-152]","[-52,-56,-56,-56,-56,-56,-57,-57,-57,-57,-57,-57,-57,-57,-57,-57,-57,-57,-57,-57,-57,-57,-57,-57,-57,-57,-57,-55,-47,-35,-24,-15,-5,-2,3,4,5]","[0,0,0,0,0,0,0,0,0,0,0,0,0,0,0,0,0,0,0,0,0,0,0,0,0,0,0,0,0,0,0,0,0,0,0,0,0]","[0,0,0,0,0,0,0,0,0,0,0,0,0,0,0,0,0,0,0,0,0,0,0,0,0,0,0,0,0,0,0,0,0,0,0,0,0]","[0,0,0,0,0,0,0,0,0,0,0,0,0,0,0,0,0,0,0,0,0,0,0,0,0,0,0,0,0,0,0,0,0,0,0,0,0]","[0.00029999995231833054,0.014700000047682238,0.032799999952317194,0.04600000000000648,0.06629999995232083,0.07759999990463484,0.09979999995231026,0.11070000004768588,0.13320000004767962,0.14570000004768247,0.1603999998569492,0.17849999999999966,0.19950000000000045,0.21009999990462802,0.22659999990463575,0.24489999985695476,0.2600999999046394,0.27779999995232174,0.29909999990462666,0.3100000000000023,0.328200000047687,0.34420000004767815,0.3613999998569426,0.3780000000000001,0.4000000000000057,0.41009999990463086,0.4272999999523108,0.44870000004767974,0.4607000000476802,0.481700000047681,0.4939999999999998,0.5164999999999935,0.5328999998569515,0.5437999999523129,0.566799999952309,0.5820999999046279,0.5992000000476878]",,7,0,7,0,1,,,,
,,,,,,,,,,,,,,,test,2022-11-03_13h05.30.219,GoFitts,2022.1.4,Win32,60.28454304,,,,,"[-158.94898511924342,33.78564975788589]","[162.5,0]",60.5,325,0,"[-152,-152,-153,-154,-155,-155,-155,-155,-155,-155,-155,-156,-157,-157,-158,-158,-158,-158,-158,-157,-156,-156,-155,-153,-150,-145,-138,-127,-108,-82,-49,-8,30,64,93,112,129,133]","[5,6,6,7,8,8,8,9,13,28,41,55,59,61,63,63,61,57,55,52,50,50,48,47,45,41,38,34,30,25,21,15,11,9,4,0,-3,-4]","[0,0,0,0,0,0,0,0,0,0,0,0,0,0,0,0,0,0,0,0,0,0,0,0,0,0,0,0,0,0,0,0,0,0,0,0,0,0]","[0,0,0,0,0,0,0,0,0,0,0,0,0,0,0,0,0,0,0,0,0,0,0,0,0,0,0,0,0,0,0,0,0,0,0,0,0,0]","[0,0,0,0,0,0,0,0,0,0,0,0,0,0,0,0,0,0,0,0,0,0,0,0,0,0,0,0,0,0,0,0,0,0,0,0,0,0]","[0.00029999995231833054,0.016000000000005343,0.02829999995232413,0.04870000004768826,0.06510000014306172,0.07720000004769645,0.0940000000000083,0.11070000004768588,0.12760000014306172,0.14620000004768485,0.16729999995231992,0.18210000014305194,0.19920000004769634,0.2116000001430507,0.23229999995231765,0.2439000000953797,0.2652000000476846,0.28179999995232663,0.29429999995232947,0.31540000009538005,0.3322000000476919,0.34820000004768303,0.36170000004769065,0.38229999995232333,0.3991000001430507,0.4117000000476878,0.4322000000476862,0.4485000000000099,0.4612000000476968,0.4835000000000065,0.4997000000476959,0.5157999999523213,0.533799999952322,0.5455000000000041,0.5657000000476842,0.5792999999523261,0.5990000000000038,0.6171000001430542]",,8,0,8,0,1,,,,
,,,,,,,,,,,,,,,test,2022-11-03_13h05.30.219,GoFitts,2022.1.4,Win32,60.28454304,,,,,"[162.5,0]","[-158.94898511924342,-33.78564975788585]",60.5,325,0,"[133,138,141,141,141,141,141,141,142,146,151,156,159,160,160,160,160,160,160,154,147,138,128,121,80,25,-83,-129,-142]","[-4,-6,-6,-6,-6,-6,-6,-6,-6,-6,-4,-2,0,1,1,1,1,1,1,-2,-4,-9,-13,-14,-18,-21,-26,-26,-26]","[0,0,0,0,0,0,0,0,0,0,0,0,0,0,0,0,0,0,0,0,0,0,0,0,0,0,0,0,0]","[0,0,0,0,0,0,0,0,0,0,0,0,0,0,0,0,0,0,0,0,0,0,0,0,0,0,0,0,0]","[0,0,0,0,0,0,0,0,0,0,0,0,0,0,0,0,0,0,0,0,0,0,0,0,0,0,0,0,0]","[0.00029999995231833054,0.015799999952321286,0.03179999995231242,0.04839999985695442,0.059499999999999886,0.07619999980926195,0.09289999985695374,0.10949999999999704,0.12829999995231844,0.14749999999999375,0.16019999980926514,0.18149999999999977,0.19369999980926877,0.21469999980926957,0.22629999995231742,0.24439999985695238,0.259599999904637,0.2762999999523146,0.2931999998092607,0.3100000000000023,0.32809999990463723,0.34769999980926514,0.36419999980927287,0.37959999990462734,0.3995000000000033,0.4143999998569541,0.4316999998092683,0.4484999999999957,0.460099999904628]",,9,0,9,0,1,,,,
,,,,,,,,,,,,,,,test,2022-11-03_13h05.30.219,GoFitts,2022.1.4,Win32,60.28454304,,,,,"[-158.94898511924342,-33.78564975788585]","[148.45113686692264,66.09470449981752]",60.5,325,0,"[-142,-154,-154,-154,-155,-157,-159,-163,-165,-166,-167,-167,-168,-168,-168,-168,-168,-168,-168,-168,-166,-163,-160,-151,-140,-120,-106,-35,20,64,100,128,145]","[-26,-27,-27,-28,-29,-30,-30,-33,-33,-33,-33,-34,-35,-35,-35,-35,-35,-35,-35,-34,-34,-32,-31,-29,-26,-21,-16,7,23,32,37,40,43]","[0,0,0,0,0,0,0,0,0,0,0,0,0,0,0,0,0,0,0,0,0,0,0,0,0,0,0,0,0,0,0,0,0]","[0,0,0,0,0,0,0,0,0,0,0,0,0,0,0,0,0,0,0,0,0,0,0,0,0,0,0,0,0,0,0,0,0]","[0,0,0,0,0,0,0,0,0,0,0,0,0,0,0,0,0,0,0,0,0,0,0,0,0,0,0,0,0,0,0,0,0]","[0.0011999998092733222,0.02079999995231674,0.037199999809260476,0.04919999980926093,0.07000000000000739,0.08279999995231435,0.1039999999999992,0.1201999998092731,0.13689999985695067,0.14929999995231924,0.17019999980927025,0.1830999999046412,0.2032999999523213,0.21519999980927196,0.23269999980927025,0.2535000000000025,0.2668999998569461,0.2836999998092722,0.3001999998092657,0.31709999990464155,0.33450000000000557,0.3492999999523221,0.37050000000000693,0.38689999985695067,0.40309999990464007,0.4200000000000017,0.4322999999523205,0.45339999985695556,0.4702999999523172,0.48659999990464087,0.4991999998092638,0.5205999999046327,0.5368999998569564]",,10,0,10,0,1,,,,
,,,,,,,,,,,,,,,test,2022-11-03_13h05.30.219,GoFitts,2022.1.4,Win32,60.28454304,,,,,"[148.45113686692264,66.09470449981752]","[-131.46526158592897,-95.51510349752687]",60.5,325,0,"[145,158,167,171,173,173,174,174,174,172,170,168,167,162,159,157,153,151,146,144,144,144,144,144,143,142,139,133,127,112,88,56,31,9,-9,-32,-48,-57,-75,-91,-96,-99,-105]","[43,45,47,49,50,50,52,53,55,59,61,63,63,65,65,65,65,65,62,61,61,61,61,61,61,60,57,50,43,29,12,-5,-18,-25,-32,-42,-53,-58,-68,-79,-81,-84,-88]","[0,0,0,0,0,0,0,0,0,0,0,0,0,0,0,0,0,0,0,0,0,0,0,0,0,0,0,0,0,0,0,0,0,0,0,0,0,0,0,0,0,0,0]","[0,0,0,0,0,0,0,0,0,0,0,0,0,0,0,0,0,0,0,0,0,0,0,0,0,0,0,0,0,0,0,0,0,0,0,0,0,0,0,0,0,0,0]","[0,0,0,0,0,0,0,0,0,0,0,0,0,0,0,0,0,0,0,0,0,0,0,0,0,0,0,0,0,0,0,0,0,0,0,0,0,0,0,0,0,0,0]","[0.00030000019074805095,0.016600000143057514,0.02920000004769463,0.05120000004768599,0.062600000143064,0.08300000000001262,0.09590000009536936,0.11660000014305183,0.13110000014306422,0.1508000001907419,0.1618000001907376,0.1844999999999999,0.19560000014305956,0.21700000000001296,0.23410000014305865,0.2466000001430615,0.2676000001430623,0.28210000014306047,0.299500000000009,0.3164000000953706,0.32810000014305274,0.3449000000953788,0.3629000000953795,0.37960000014305706,0.39500000000001023,0.41200000000000614,0.4328000001907384,0.4455000000000098,0.46620000004769224,0.48280000019073555,0.495700000047691,0.5162000000476894,0.5342000000476901,0.5498000001907428,0.5635000000000048,0.5831000001430624,0.5993000001907376,0.6117000000476907,0.6285000000000025,0.6503000001907395,0.6666000001430632,0.6802000000476909,0.6996000001430644]",,11,0,11,0,1,,,,
,,,,,,,,,,,,,,,test,2022-11-03_13h05.30.219,GoFitts,2022.1.4,Win32,60.28454304,,,,,"[-131.46526158592897,-95.51510349752687]","[108.73372353331446,120.76103414007656]",60.5,325,0,"[-105,-107,-109,-109,-109,-109,-110,-110,-110,-110,-110,-110,-111,-114,-119,-122,-122,-122,-122,-122,-122,-122,-119,-108,-96,-62,-62,-3,13,62,86]","[-88,-88,-90,-90,-90,-90,-91,-91,-91,-91,-91,-91,-92,-92,-92,-92,-92,-92,-92,-92,-92,-92,-91,-83,-72,-38,-38,36,54,98,112]","[0,0,0,0,0,0,0,0,0,0,0,0,0,0,0,0,0,0,0,0,0,0,0,0,0,0,0,0,0,0,0]","[0,0,0,0,0,0,0,0,0,0,0,0,0,0,0,0,0,0,0,0,0,0,0,0,0,0,0,0,0,0,0]","[0,0,0,0,0,0,0,0,0,0,0,0,0,0,0,0,0,0,0,0,0,0,0,0,0,0,0,0,0,0,0]","[0.00040000009536811376,0.016099999904639617,0.030299999952319467,0.045900000095372206,0.06170000004769349,0.07809999990463723,0.0962000000476877,0.11629999995231799,0.1280000000000001,0.14490000009537596,0.1630999999046452,0.17820000004769554,0.19570000004769383,0.21659999990464485,0.2337999999523248,0.2452000000476886,0.26640000009537346,0.27870000004769224,0.2992999999523249,0.31279999995231833,0.32900000000000773,0.350900000095379,0.3627999999523155,0.3842000000476844,0.39609999990463507,0.41629999995231515,0.4297000000476885,0.4497000000476845,0.4650000000000034,0.48450000000001125,0.49979999995231594]",,12,0,12,0,1,,,,
,,,,,,,,,,,,,,,test,2022-11-03_13h05.30.219,GoFitts,2022.1.4,Win32,60.28454304,,,,,"[108.73372353331446,120.76103414007656]","[-81.25000000000007,-140.72912811497125]",60.5,325,0,"[86,104,116,121,125,127,127,127,127,127,127,127,127,125,121,121,120,120,120,120,120,120,120,120,120,120,120,117,113,107,95,79,59,42,29,18,7,-4,-13,-21,-33,-37,-38,-39,-39,-39,-42,-44,-47,-52]","[112,119,124,126,129,132,134,136,138,138,138,138,138,137,129,126,119,118,118,118,118,118,118,118,118,118,116,110,102,88,66,37,7,-15,-33,-47,-60,-74,-85,-95,-112,-120,-122,-126,-126,-127,-131,-132,-136,-140]","[0,0,0,0,0,0,0,0,0,0,0,0,0,0,0,0,0,0,0,0,0,0,0,0,0,0,0,0,0,0,0,0,0,0,0,0,0,0,0,0,0,0,0,0,0,0,0,0,0,0]","[0,0,0,0,0,0,0,0,0,0,0,0,0,0,0,0,0,0,0,0,0,0,0,0,0,0,0,0,0,0,0,0,0,0,0,0,0,0,0,0,0,0,0,0,0,0,0,0,0,0]","[0,0,0,0,0,0,0,0,0,0,0,0,0,0,0,0,0,0,0,0,0,0,0,0,0,0,0,0,0,0,0,0,0,0,0,0,0,0,0,0,0,0,0,0,0,0,0,0,0,0]","[0.00029999995231833054,0.016100000143055127,0.03249999999999886,0.04510000014305149,0.06629999995232083,0.07829999995232129,0.1004999999999967,0.11610000014304944,0.13279999995232572,0.1456000001430482,0.16290000009537664,0.1801000001430566,0.19570000004769383,0.21300000000000807,0.23310000014305388,0.24510000014305433,0.2662999999523237,0.2792999999523147,0.29960000014305876,0.31220000004768167,0.3292000000476918,0.34560000014305103,0.36310000014304933,0.37970000004769133,0.39620000004768485,0.4125000000000085,0.42799999999999727,0.44520000004769145,0.46610000014305797,0.4786000001430608,0.49940000009537755,0.5122000000476845,0.5342999999523244,0.5449000000953674,0.5661000001430523,0.5787999999523237,0.6011000001430489,0.6119000000953747,0.6342999999523187,0.6457000000476825,0.6674000000953697,0.6825000000000045,0.6974000000953708,0.7162000000476922,0.7287000000476809,0.7472999999523182,0.7666000001430575,0.7782000000476899,0.7951000001430515,0.8162999999523208]",,13,0,13,0,1,,,,
,,,,,,,,,,,,,,,test,2022-11-03_13h05.30.219,GoFitts,2022.1.4,Win32,60.28454304,,,,,"[-81.25000000000007,-140.72912811497125]","[50.215261585928964,154.54668389796245]",60.5,325,0,"[-52,-58,-63,-72,-78,-81,-82,-82,-82,-82,-83,-84,-84,-84,-84,-84,-84,-84,-84,-84,-82,-79,-71,-65,-39,-27,-19,-12,-6,-3,2,6,9,11,13,16,16,17,17,19,23,24,36]","[-140,-141,-143,-147,-149,-150,-150,-150,-150,-150,-150,-149,-149,-149,-149,-149,-149,-149,-149,-149,-145,-140,-119,-101,-4,62,119,154,172,178,183,188,194,198,202,205,205,205,205,200,185,175,145]","[0,0,0,0,0,0,0,0,0,0,0,0,0,0,0,0,0,0,0,0,0,0,0,0,0,0,0,0,0,0,0,0,0,0,0,0,0,0,0,0,0,0,0]","[0,0,0,0,0,0,0,0,0,0,0,0,0,0,0,0,0,0,0,0,0,0,0,0,0,0,0,0,0,0,0,0,0,0,0,0,0,0,0,0,0,0,0]","[0,0,0,0,0,0,0,0,0,0,0,0,0,0,0,0,0,0,0,0,0,0,0,0,0,0,0,0,0,0,0,0,0,0,0,0,0,0,0,0,0,0,0]","[0.00029999995231833054,0.01679999995231185,0.03270000004768292,0.04949999999999477,0.06220000004768167,0.0844000000953713,0.09520000004768292,0.11599999999999966,0.12920000004768895,0.14579999995231674,0.1626000001430441,0.18410000014304728,0.19920000004768212,0.21120000004768258,0.22799999999999443,0.24460000014305194,0.2619000000953662,0.27820000004767564,0.2989000000953723,0.3114999999999952,0.33320000004768247,0.3496000001430559,0.366299999952318,0.37910000014305467,0.3995000000000033,0.41640000009536493,0.42860000014304944,0.44960000014305024,0.4621000001430531,0.4834000000953722,0.49979999995231594,0.5167999999523119,0.5332999999523196,0.5496000001430446,0.5661000001430523,0.5789000000953592,0.6004000000953624,0.6135000000000019,0.6339000000953661,0.6456000001430482,0.6667999999523175,0.680700000047679,0.6999000000953686]",,14,0,14,0,1,,,,
,,,,,,,,,,,,,,,test,2022-11-03_13h05.30.219,GoFitts,2022.1.4,Win32,60.28454304,,,,,,,,,0,,,,,,,,,,,,,0,0,0,1
,,,,,,,,,,,,,,,test,2022-11-03_13h05.30.219,GoFitts,2022.1.4,Win32,60.28454304,,,return,0.9027,"[46,141]","[26.266444521870532,80.83980388508805]",77.8,170,1,"[46,46,46,46,46,46,46,46,46,46,46,46,46,46,46,43,40,39,37,37,35]","[141,141,141,140,140,140,140,140,140,140,140,140,140,140,139,137,134,133,127,125,111]","[0,0,0,0,0,0,0,0,0,0,0,0,0,0,0,0,0,0,0,0,0]","[0,0,0,0,0,0,0,0,0,0,0,0,0,0,0,0,0,0,0,0,0]","[0,0,0,0,0,0,0,0,0,0,0,0,0,0,0,0,0,0,0,0,0]","[0.0020999999046438234,0.020099999904644505,0.03159999990464257,0.04859999990463848,0.07090000009537789,0.08150000000000546,0.09820000004768303,0.11559999990463155,0.13170000004768667,0.1499000000953714,0.16690000009536732,0.18379999995232765,0.19859999990464416,0.21490000009536914,0.2337999999523248,0.25320000004768417,0.27120000004768485,0.28209999990464496,0.30490000009537255,0.3167999999523232,0.33709999990463757]",,0,0,0,0,1,,,,
,,,,,,,,,,,,,,,test,2022-11-03_13h05.30.219,GoFitts,2022.1.4,Win32,60.28454304,,,,,"[26.266444521870532,80.83980388508805]","[-8.88491937775061,-84.53436110630322]",77.8,170,1,"[35,35,35,35,35,35,35,35,35,35,35,35,36,36,36,36,36,36,37,37,37,37,37,37,37,37,37,37,32,27,21,7,-2,-7,-9]","[111,103,99,97,96,96,96,96,96,98,98,98,99,99,99,99,99,99,99,99,99,99,99,99,99,99,99,96,85,71,60,20,-8,-34,-52]","[0,0,0,0,0,0,0,0,0,0,0,0,0,0,0,0,0,0,0,0,0,0,0,0,0,0,0,0,0,0,0,0,0,0,0]","[0,0,0,0,0,0,0,0,0,0,0,0,0,0,0,0,0,0,0,0,0,0,0,0,0,0,0,0,0,0,0,0,0,0,0]","[0,0,0,0,0,0,0,0,0,0,0,0,0,0,0,0,0,0,0,0,0,0,0,0,0,0,0,0,0,0,0,0,0,0,0]","[0.0003999998569526042,0.01739999985694851,0.03359999990463791,0.046999999999997044,0.06650000000000489,0.07759999990463484,0.0947999999523148,0.1157999999523156,0.12749999999999773,0.1450999999046303,0.1660999999046311,0.17849999999999966,0.19629999995231628,0.21750000000000114,0.22909999990463348,0.24579999995231105,0.2617999999523164,0.2823999998569491,0.2953999998569543,0.31579999995231844,0.32750000000000057,0.3443999998569467,0.36129999995232254,0.3774999999999977,0.3950999999046303,0.41709999990463587,0.4300000000000068,0.4486999998092642,0.46649999999999636,0.4828999998569543,0.49489999985695476,0.5172999999523142,0.5325999999046331,0.5491999998092609,0.5614999999999952]",,1,0,1,0,1,,,,
,,,,,,,,,,,,,,,test,2022-11-03_13h05.30.219,GoFitts,2022.1.4,Win32,60.28454304,,,,,"[-8.88491937775061,-84.53436110630322]","[-8.884919377750533,84.53436110630324]",77.8,170,1,"[-9,-9,-9,-9,-8,-7,-4,-3,-2,0,1,2,2,2,3,3,3,3,3,3,3,3,3,3,3,6,11]","[-52,-61,-65,-70,-76,-82,-86,-88,-90,-93,-94,-95,-95,-95,-95,-93,-92,-92,-92,-92,-92,-90,-86,-73,-40,18,83]","[0,0,0,0,0,0,0,0,0,0,0,0,0,0,0,0,0,0,0,0,0,0,0,0,0,0,0]","[0,0,0,0,0,0,0,0,0,0,0,0,0,0,0,0,0,0,0,0,0,0,0,0,0,0,0]","[0,0,0,0,0,0,0,0,0,0,0,0,0,0,0,0,0,0,0,0,0,0,0,0,0,0,0]","[0.001399999856957379,0.021200000047684853,0.03239999985694908,0.05470000004768849,0.07070000004767962,0.08679999995231924,0.10009999990462859,0.12229999995231822,0.1325000000000074,0.15359999990462825,0.16620000004768087,0.1869999999999976,0.19859999990462995,0.21529999995232174,0.23279999995232004,0.25370000004768656,0.2704999999999984,0.2878999998569469,0.29920000004769065,0.32139999985695056,0.3338999998569534,0.35420000004768326,0.37039999985695715,0.38229999995232333,0.40359999990462825,0.4200000000000017,0.43679999995231356]",,2,0,2,0,1,,,,
,,,,,,,,,,,,,,,test,2022-11-03_13h05.30.219,GoFitts,2022.1.4,Win32,60.28454304,,,,,"[-8.884919377750533,84.53436110630324]","[26.266444521870515,-80.83980388508806]",77.8,170,1,"[11,13,13,11,11,11,11,8,6,3,1,0,0,0,0,0,0,1,1,1,1,1,1,1,1,1,1,1,1,1,2,3,5,10,18,23,25,26,27,27,27,28,28,29]","[83,122,144,152,152,152,153,151,145,135,118,111,109,104,96,91,89,85,85,85,85,85,85,85,85,85,85,85,85,83,77,70,55,30,-6,-22,-29,-31,-34,-35,-35,-39,-40,-44]","[0,0,0,0,0,0,0,0,0,0,0,0,0,0,0,0,0,0,0,0,0,0,0,0,0,0,0,0,0,0,0,0,0,0,0,0,0,0,0,0,0,0,0,0]","[0,0,0,0,0,0,0,0,0,0,0,0,0,0,0,0,0,0,0,0,0,0,0,0,0,0,0,0,0,0,0,0,0,0,0,0,0,0,0,0,0,0,0,0]","[0,0,0,0,0,0,0,0,0,0,0,0,0,0,0,0,0,0,0,0,0,0,0,0,0,0,0,0,0,0,0,0,0,0,0,0,0,0,0,0,0,0,0,0]","[0.00029999995231833054,0.016899999856946124,0.03269999980926741,0.045299999952320036,0.06619999980927105,0.07800000000000296,0.09489999985694908,0.11819999980926355,0.12869999980927105,0.15100000000001046,0.1668999998569518,0.18279999995232288,0.1948999998569576,0.2136999998092648,0.23319999980927264,0.24929999995231356,0.2651999998092691,0.28300000000000125,0.29559999990463837,0.31279999995231833,0.32969999980926445,0.3466999998092746,0.36259999990463143,0.3797999999523256,0.3960000000000008,0.41329999995231503,0.4295999999046387,0.4462999999523163,0.4628999998569583,0.4795000000000016,0.5000999999046343,0.5120000000000005,0.5330999999046355,0.5451999998092703,0.5662999999523208,0.5838999998569534,0.5995000000000061,0.6138999998569545,0.633499999999998,0.6495999999046376,0.6645999999046381,0.6832999999523253,0.6965999999046346,0.7166999998092649]",,3,0,3,0,1,,,,
,,,,,,,,,,,,,,,test,2022-11-03_13h05.30.219,GoFitts,2022.1.4,Win32,60.28454304,,,,,"[26.266444521870515,-80.83980388508806]","[-42.49999999999998,73.6121593216773]",77.8,170,1,"[29,29,29,30,30,31,31,31,31,31,31,31,31,31,31,31,31,31,31,31,30,26,23,14,-21]","[-44,-46,-49,-52,-55,-56,-58,-60,-62,-63,-65,-66,-66,-66,-66,-66,-66,-66,-66,-66,-64,-52,-43,-21,50]","[0,0,0,0,0,0,0,0,0,0,0,0,0,0,0,0,0,0,0,0,0,0,0,0,0]","[0,0,0,0,0,0,0,0,0,0,0,0,0,0,0,0,0,0,0,0,0,0,0,0,0]","[0,0,0,0,0,0,0,0,0,0,0,0,0,0,0,0,0,0,0,0,0,0,0,0,0]","[0.00040000009536811376,0.01650000000000773,0.029400000095364476,0.049299999952324924,0.06129999995232538,0.08409999990463746,0.09900000000000375,0.11549999999999727,0.12829999995231844,0.15070000004769213,0.16540000009537437,0.17809999990463155,0.2005999999046395,0.21099999999999852,0.2277000000476903,0.24540000009537266,0.2622000000476845,0.2789000000953763,0.2964000000953746,0.3124000000953657,0.32800000000000296,0.3509000000953648,0.36170000004769065,0.38170000004768667,0.40050000000000807]",,4,0,4,0,1,,,,
,,,,,,,,,,,,,,,test,2022-11-03_13h05.30.219,GoFitts,2022.1.4,Win32,60.28454304,,,,,"[-42.49999999999998,73.6121593216773]","[56.87610154050297,-63.16731016557849]",77.8,170,1,"[-21,-34,-37,-41,-41,-41,-41,-41,-41,-41,-41,-41,-41,-41,-41,-41,-41,-41,-41,-41,-41,-41,-41,-41,-35,-28,-11,2,10,25,32,39,49]","[50,75,82,92,93,93,93,93,93,92,91,90,90,90,90,89,87,86,85,85,85,85,85,85,81,74,58,41,31,5,-8,-24,-41]","[0,0,0,0,0,0,0,0,0,0,0,0,0,0,0,0,0,0,0,0,0,0,0,0,0,0,0,0,0,0,0,0,0]","[0,0,0,0,0,0,0,0,0,0,0,0,0,0,0,0,0,0,0,0,0,0,0,0,0,0,0,0,0,0,0,0,0]","[0,0,0,0,0,0,0,0,0,0,0,0,0,0,0,0,0,0,0,0,0,0,0,0,0,0,0,0,0,0,0,0,0]","[0.00020000004766984603,0.014900000095366295,0.027700000047673257,0.04890000009535811,0.06529999995231606,0.07799999999998875,0.09460000014304626,0.11149999999999238,0.12870000004767235,0.14490000009536175,0.16510000014304183,0.17729999995231083,0.19949999999998624,0.2116000001430507,0.22829999995231276,0.24570000004767678,0.2652999999523047,0.2771000001430508,0.2986000001430398,0.3161000001430381,0.3267999999523141,0.3436000001430415,0.3609000000953557,0.378400000095354,0.39890000009536664,0.41149999999998954,0.4319000000953537,0.4492000000476821,0.46090000009536425,0.4816000001430467,0.49490000009535606,0.5149000000953663,0.5314999999999941]",,5,0,5,0,1,,,,
,,,,,,,,,,,,,,,test,2022-11-03_13h05.30.219,GoFitts,2022.1.4,Win32,60.28454304,,,,,"[56.87610154050297,-63.16731016557849]","[-68.76644452187053,49.961746444860225]",77.8,170,1,"[49,57,63,64,64,64,64,64,64,64,64,64,64,64,64,64,64,64,64,64,64,64,61,56,45,27,8,-14,-27,-32]","[-41,-53,-59,-59,-59,-59,-59,-59,-59,-59,-59,-59,-59,-59,-59,-59,-59,-59,-59,-59,-59,-59,-50,-43,-23,2,22,40,51,54]","[0,0,0,0,0,0,0,0,0,0,0,0,0,0,0,0,0,0,0,0,0,0,0,0,0,0,0,0,0,0]","[0,0,0,0,0,0,0,0,0,0,0,0,0,0,0,0,0,0,0,0,0,0,0,0,0,0,0,0,0,0]","[0,0,0,0,0,0,0,0,0,0,0,0,0,0,0,0,0,0,0,0,0,0,0,0,0,0,0,0,0,0]","[0.0003000001907338401,0.01770000004768235,0.03320000004768531,0.045300000190735545,0.06670000004767473,0.07870000004767519,0.09670000004767587,0.11310000014304933,0.12990000009536118,0.14680000019073702,0.16290000009536243,0.1801000001430424,0.19650000000000034,0.2137000000476803,0.22970000004768565,0.24710000014304967,0.2636000001430432,0.28040000009536925,0.2963000001907261,0.31270000004768406,0.32849999999999113,0.347100000143044,0.3618000001907262,0.3832000000476796,0.3999999999999915,0.4117000000476878,0.4329999999999927,0.44549999999999557,0.46790000009536925,0.4784999999999968]",,6,0,6,0,1,,,,
,,,,,,,,,,,,,,,test,2022-11-03_13h05.30.219,GoFitts,2022.1.4,Win32,60.28454304,,,,,"[-68.76644452187053,49.961746444860225]","[77.65136389962109,-34.57261466144301]",77.8,170,1,"[-32,-32,-33,-34,-37,-44,-45,-48,-50,-52,-53,-54,-56,-57,-59,-59,-59,-60,-60,-60,-60,-60,-60,-60,-57,-51,-42,-25,-1,23,42,53,59]","[54,54,54,54,54,54,54,54,54,54,54,54,52,52,52,52,52,52,52,52,52,52,52,52,50,45,40,33,23,11,3,-4,-7]","[0,0,0,0,0,0,0,0,0,0,0,0,0,0,0,0,0,0,0,0,0,0,0,0,0,0,0,0,0,0,0,0,0]","[0,0,0,0,0,0,0,0,0,0,0,0,0,0,0,0,0,0,0,0,0,0,0,0,0,0,0,0,0,0,0,0,0]","[0,0,0,0,0,0,0,0,0,0,0,0,0,0,0,0,0,0,0,0,0,0,0,0,0,0,0,0,0,0,0,0,0]","[0.0011000001430403472,0.02140000009536891,0.03420000004767587,0.0538000001907335,0.06570000004768417,0.08710000014305308,0.10080000019073054,0.12060000014304251,0.13430000019073418,0.15420000004768042,0.17020000004768576,0.18290000009535845,0.20390000009535925,0.21610000014304376,0.23740000009536288,0.24890000009536095,0.2667000000476776,0.2823000001907303,0.30090000009536766,0.3174000000953612,0.33330000019073225,0.3544000000953673,0.3669999999999902,0.3838000001907318,0.3991000001430507,0.4162000000476809,0.4336000001430449,0.4539999999999935,0.4714999999999918,0.48270000004768576,0.5054999999999978,0.5184999999999889,0.5368000001907234]",,7,0,7,0,1,,,,
,,,,,,,,,,,,,,,test,2022-11-03_13h05.30.219,GoFitts,2022.1.4,Win32,60.28454304,,,,,"[77.65136389962109,-34.57261466144301]","[-83.14254606237348,17.672493719509543]",77.8,170,1,"[59,59,61,68,72,75,75,75,76,76,76,76,76,76,76,76,76,76,76,76,76,76,76,74,67,61,43,19,-14,-32,-77]","[-7,-10,-11,-14,-16,-17,-17,-17,-18,-18,-18,-18,-18,-18,-18,-18,-18,-18,-18,-18,-18,-18,-18,-18,-18,-18,-15,-11,-7,-4,4]","[0,0,0,0,0,0,0,0,0,0,0,0,0,0,0,0,0,0,0,0,0,0,0,0,0,0,0,0,0,0,0]","[0,0,0,0,0,0,0,0,0,0,0,0,0,0,0,0,0,0,0,0,0,0,0,0,0,0,0,0,0,0,0]","[0,0,0,0,0,0,0,0,0,0,0,0,0,0,0,0,0,0,0,0,0,0,0,0,0,0,0,0,0,0,0]","[0.0003999998569526042,0.01739999985694851,0.03100000000000591,0.05029999995231549,0.06239999985695022,0.08500000000000796,0.09499999999999886,0.1118999998569592,0.13049999999999784,0.15100000000001046,0.16370000004768315,0.17859999990463393,0.1957999999523281,0.2132999999523264,0.23000000000000398,0.24659999990463177,0.26289999985695545,0.28039999985695374,0.2960000000000065,0.3125999999046343,0.3299999999999983,0.34509999990463314,0.362000000000009,0.3785999999046368,0.3965000000000032,0.4120999999046404,0.43339999985695954,0.45089999985695783,0.46789999985695374,0.4819999999999993,0.5005000000000024]",,8,0,8,0,1,,,,
,,,,,,,,,,,,,,,test,2022-11-03_13h05.30.219,GoFitts,2022.1.4,Win32,60.28454304,,,,,"[-83.14254606237348,17.672493719509543]","[85,0]",77.8,170,1,"[-77,-88,-89,-92,-95,-95,-96,-97,-97,-97,-97,-97,-97,-97,-97,-97,-97,-97,-97,-97,-97,-97,-96,-89,-86,-53,-41,-2,21,29,52]","[4,8,10,15,17,18,19,20,20,20,20,20,20,20,20,20,20,20,20,20,20,20,20,20,20,16,15,10,6,5,3]","[0,0,0,0,0,0,0,0,0,0,0,0,0,0,0,0,0,0,0,0,0,0,0,0,0,0,0,0,0,0,0]","[0,0,0,0,0,0,0,0,0,0,0,0,0,0,0,0,0,0,0,0,0,0,0,0,0,0,0,0,0,0,0]","[0,0,0,0,0,0,0,0,0,0,0,0,0,0,0,0,0,0,0,0,0,0,0,0,0,0,0,0,0,0,0]","[0.00029999995231833054,0.01559999990463723,0.028199999809274345,0.04950000000000898,0.06550000000000011,0.07829999995232129,0.0991999998092723,0.11119999980927275,0.13379999995231628,0.14529999995231435,0.1620999999046404,0.18039999985694521,0.19650000000000034,0.21539999985695601,0.22800000000000864,0.24439999985695238,0.2613999998569483,0.2775999999046377,0.29429999995231526,0.31100000000000705,0.3285999999046396,0.3456999998092698,0.3640000000000043,0.38219999980927355,0.3962999999523191,0.4172999999523199,0.4290999999046363,0.4497999999523188,0.46609999990462825,0.48059999990464064,0.4991999998092638]",,9,0,9,0,1,,,,
,,,,,,,,,,,,,,,test,2022-11-03_13h05.30.219,GoFitts,2022.1.4,Win32,60.28454304,,,,,"[85,0]","[-83.14254606237348,-17.67249371950952]",77.8,170,1,"[52,62,66,71,73,76,78,82,84,84,84,84,84,85,85,85,85,85,85,85,85,85,85,85,85,85,83,74,68,27,7,-48]","[3,2,2,2,3,3,3,3,3,3,3,3,3,4,4,4,4,4,4,4,4,4,4,4,4,4,4,1,1,-5,-8,-13]","[0,0,0,0,0,0,0,0,0,0,0,0,0,0,0,0,0,0,0,0,0,0,0,0,0,0,0,0,0,0,0,0]","[0,0,0,0,0,0,0,0,0,0,0,0,0,0,0,0,0,0,0,0,0,0,0,0,0,0,0,0,0,0,0,0]","[0,0,0,0,0,0,0,0,0,0,0,0,0,0,0,0,0,0,0,0,0,0,0,0,0,0,0,0,0,0,0,0]","[0.00029999995231833054,0.0162000000476894,0.028799999952312305,0.05059999990463382,0.06170000004769349,0.08299999999999841,0.10070000004768076,0.11159999990464087,0.13309999990462984,0.14629999995231913,0.16320000004768076,0.17979999995232276,0.19599999999999795,0.2120000000000033,0.23409999990462893,0.24600000000000932,0.26300000000000523,0.2792000000476804,0.29479999995231765,0.3120999999046319,0.32940000009537584,0.3465999999046403,0.36299999999999955,0.3802999999523138,0.4007999999523122,0.4125999999046286,0.42849999999999966,0.4492999999523164,0.4620000000000033,0.484299999952313,0.4955999999046412,0.5162000000476894]",,10,0,10,0,1,,,,
,,,,,,,,,,,,,,,test,2022-11-03_13h05.30.219,GoFitts,2022.1.4,Win32,60.28454304,,,,,"[-83.14254606237348,-17.67249371950952]","[77.65136389962107,34.57261466144301]",77.8,170,1,"[-48,-74,-76,-77,-78,-80,-80,-80,-80,-80,-80,-80,-80,-80,-80,-80,-80,-80,-80,-80,-80,-80,-80,-80,-80,-80,-80,-78,-73,-55,-28,1,30,59]","[-13,-15,-15,-15,-15,-15,-15,-15,-15,-15,-15,-15,-15,-15,-15,-15,-15,-15,-15,-15,-15,-15,-15,-15,-15,-15,-15,-15,-15,-13,-9,-4,1,10]","[0,0,0,0,0,0,0,0,0,0,0,0,0,0,0,0,0,0,0,0,0,0,0,0,0,0,0,0,0,0,0,0,0,0]","[0,0,0,0,0,0,0,0,0,0,0,0,0,0,0,0,0,0,0,0,0,0,0,0,0,0,0,0,0,0,0,0,0,0]","[0,0,0,0,0,0,0,0,0,0,0,0,0,0,0,0,0,0,0,0,0,0,0,0,0,0,0,0,0,0,0,0,0,0]","[0.00009999990463427366,0.018000000000000682,0.03529999995231492,0.05009999990463143,0.06709999990462734,0.08409999990462325,0.10009999990462859,0.11169999980926093,0.1285000000000025,0.14519999980926457,0.16189999985694215,0.17839999985694988,0.19639999985695056,0.21309999990462813,0.22959999990463587,0.24639999985694772,0.2633999998569436,0.27859999990462825,0.29519999980925604,0.31179999995231356,0.3293999998569461,0.34600000000000364,0.36769999980926116,0.38339999985694817,0.39489999985694624,0.4116999998092581,0.4300999999046269,0.4451999998092617,0.46659999990463064,0.4788999998569494,0.5017999999523113,0.5120000000000005,0.5307999999523076,0.5504999999999995]",,11,0,11,0,1,,,,
,,,,,,,,,,,,,,,test,2022-11-03_13h05.30.219,GoFitts,2022.1.4,Win32,60.28454304,,,,,"[77.65136389962107,34.57261466144301]","[-68.76644452187054,-49.96174644486021]",77.8,170,1,"[59,68,74,89,89,96,96,96,96,96,96,96,96,96,96,95,92,91,90,90,90,90,90,87,85,84,71,66,33,9,9,-34,-39]","[10,12,14,21,21,24,24,24,24,24,24,24,24,24,25,26,26,26,26,26,26,26,26,26,24,24,17,14,-5,-15,-15,-28,-30]","[0,0,0,0,0,0,0,0,0,0,0,0,0,0,0,0,0,0,0,0,0,0,0,0,0,0,0,0,0,0,0,0,0]","[0,0,0,0,0,0,0,0,0,0,0,0,0,0,0,0,0,0,0,0,0,0,0,0,0,0,0,0,0,0,0,0,0]","[0,0,0,0,0,0,0,0,0,0,0,0,0,0,0,0,0,0,0,0,0,0,0,0,0,0,0,0,0,0,0,0,0]","[0.0002999999523041197,0.01679999995231185,0.03010000014305092,0.04920000004767644,0.062100000143047396,0.08229999995231196,0.09929999995230787,0.11110000014303978,0.12749999999999773,0.14449999999999363,0.16179999995230787,0.17870000004768372,0.1957999999523139,0.21249999999999147,0.2281000001430442,0.2496000001430474,0.2657999999523071,0.2836000001430392,0.2987999999523083,0.3117000000476793,0.3291000001430433,0.3457000000476711,0.3627999999523155,0.3797999999523114,0.4004000000953596,0.41140000009535527,0.4336000001430449,0.4446000001430406,0.4659000000953597,0.4819999999999993,0.49590000009536084,0.5159999999999911,0.5279999999999916]",,12,0,12,0,1,,,,
,,,,,,,,,,,,,,,test,2022-11-03_13h05.30.219,GoFitts,2022.1.4,Win32,60.28454304,,,,,"[-68.76644452187054,-49.96174644486021]","[56.87610154050295,63.16731016557851]",77.8,170,1,"[-39,-46,-47,-49,-51,-53,-55,-55,-57,-57,-57,-57,-57,-57,-57,-57,-57,-57,-57,-57,-57,-57,-48,-42,-36,-13,-6,10,38,55]","[-30,-32,-33,-33,-34,-35,-36,-36,-38,-40,-40,-40,-40,-40,-40,-40,-40,-40,-40,-40,-40,-41,-35,-33,-30,-15,-10,2,24,39]","[0,0,0,0,0,0,0,0,0,0,0,0,0,0,0,0,0,0,0,0,0,0,0,0,0,0,0,0,0,0]","[0,0,0,0,0,0,0,0,0,0,0,0,0,0,0,0,0,0,0,0,0,0,0,0,0,0,0,0,0,0]","[0,0,0,0,0,0,0,0,0,0,0,0,0,0,0,0,0,0,0,0,0,0,0,0,0,0,0,0,0,0]","[0.0012000000476888317,0.02029999995231435,0.032299999952314806,0.053399999856949876,0.07020000004767724,0.08229999995231196,0.10329999995231276,0.11620000004768372,0.13309999990462984,0.15489999985695135,0.16639999985694942,0.18339999985694533,0.2002000000476869,0.21649999999999636,0.2337999999523106,0.2500999999046343,0.26989999985694624,0.2818999998569467,0.299399999856945,0.31959999990462507,0.33329999995231674,0.34949999999999193,0.3704999999999927,0.3863999998569483,0.39920000004768497,0.4203999998569543,0.43420000004768156,0.4492000000476821,0.4705999999046355,0.484299999952313]",,13,0,13,0,1,,,,
,,,,,,,,,,,,,,,test,2022-11-03_13h05.30.219,GoFitts,2022.1.4,Win32,60.28454304,,,,,"[56.87610154050295,63.16731016557851]","[-42.500000000000036,-73.61215932167727]",77.8,170,1,"[55,69,75,76,76,77,77,77,77,77,77,77,77,77,77,77,77,77,77,77,77,77,77,77,77,75,70,60,45,25,9,-1,-5,-7,-9,-10,-12,-13,-15]","[39,52,57,60,61,63,63,63,63,63,63,63,63,63,63,63,63,62,62,62,62,62,62,62,62,59,56,48,34,18,2,-11,-19,-25,-28,-36,-40,-43,-49]","[0,0,0,0,0,0,0,0,0,0,0,0,0,0,0,0,0,0,0,0,0,0,0,0,0,0,0,0,0,0,0,0,0,0,0,0,0,0,0]","[0,0,0,0,0,0,0,0,0,0,0,0,0,0,0,0,0,0,0,0,0,0,0,0,0,0,0,0,0,0,0,0,0,0,0,0,0,0,0]","[0,0,0,0,0,0,0,0,0,0,0,0,0,0,0,0,0,0,0,0,0,0,0,0,0,0,0,0,0,0,0,0,0,0,0,0,0,0,0]","[0.0003999998569526042,0.01759999990463257,0.030299999952319467,0.05119999980925627,0.06749999999999545,0.08109999990462313,0.10249999999999204,0.11289999985694976,0.12959999990462734,0.14650000000000318,0.16329999995231503,0.18109999990463166,0.19869999980926423,0.21779999995231947,0.23019999980925832,0.24789999985694067,0.2642999999523141,0.28469999980926275,0.29749999999999943,0.3131999998092567,0.3295999999046302,0.3464999999999918,0.3638999998569403,0.37989999985694567,0.3980999999046304,0.41329999995231503,0.43429999995231583,0.44639999985695056,0.4680999999046236,0.4847999999523154,0.5020999999046296,0.5132999999523093,0.5346999998092627,0.5510000000000019,0.5642999999523113,0.584899999856944,0.6010999999046334,0.6153999998569475,0.6345000000000027]",,14,0,14,0,1,,,,
,,,,,,,,,,,,,,,test,2022-11-03_13h05.30.219,GoFitts,2022.1.4,Win32,60.28454304,,,,,,,,,1,,,,,,,,,,,,,1,0,0,1
,,,,,,,,,,,,,,,test,2022-11-03_13h05.30.219,GoFitts,2022.1.4,Win32,60.28454304,,,return,0.8338,"[-21,-67]","[84.9796734531105,-261.5405419811673]",32.3,550,2,"[-21,-21,-21,-21,-21,-21,-21,-21,-21,-21,-21,-21,-21,-21,-21,-21,-21,-22,-25,-30,-34,-36,-39,-40,-40,-40,-40,-40,-32,-27,-8,1,25,41,57,71,80,84,84,84,84,85,86,91,93,96,98,98,98,96,94,89]","[-67,-67,-67,-67,-67,-67,-67,-67,-67,-67,-67,-67,-67,-67,-67,-67,-67,-63,-60,-53,-46,-46,-45,-45,-45,-45,-45,-47,-64,-71,-94,-104,-138,-161,-182,-201,-210,-212,-212,-212,-212,-212,-213,-217,-222,-227,-231,-232,-234,-238,-245,-265]","[0,0,0,0,0,0,0,0,0,0,0,0,0,0,0,0,0,0,0,0,0,0,0,0,0,0,0,0,0,0,0,0,0,0,0,0,0,0,0,0,0,0,0,0,0,0,0,0,0,0,0,0]","[0,0,0,0,0,0,0,0,0,0,0,0,0,0,0,0,0,0,0,0,0,0,0,0,0,0,0,0,0,0,0,0,0,0,0,0,0,0,0,0,0,0,0,0,0,0,0,0,0,0,0,0]","[0,0,0,0,0,0,0,0,0,0,0,0,0,0,0,0,0,0,0,0,0,0,0,0,0,0,0,0,0,0,0,0,0,0,0,0,0,0,0,0,0,0,0,0,0,0,0,0,0,0,0,0]","[0.0024000000953776635,0.020000000000010232,0.0324000000953788,0.04879999995232254,0.06570000004768417,0.08179999995232379,0.10040000009537664,0.12129999995232765,0.1332999999523281,0.15320000004768985,0.16650000000001342,0.1830999999046412,0.20009999990463712,0.21629999995232652,0.2339000000953746,0.2507999999523207,0.26679999995232606,0.2867000000476878,0.29909999990464087,0.3202999999523257,0.33370000004768485,0.355000000000004,0.36600000000001387,0.38700000000000045,0.39890000009538085,0.42029999995232004,0.4337000000476934,0.45150000000001,0.4702999999523172,0.482599999904636,0.5037000000476866,0.5159000000953711,0.5369000000953719,0.5500000000000114,0.5700999999046417,0.5829000000953783,0.6037999999523294,0.6202000000476886,0.6369000000953804,0.6499000000953714,0.6670999999046359,0.684099999904646,0.7044000000953758,0.721299999952322,0.7334000000953722,0.7549000000953754,0.7700999999046445,0.7869000000953719,0.8039000000953678,0.8207999999523281,0.8375000000000057,0.853500000000011]",,0,0,0,0,1,,,,
,,,,,,,,,,,,,,,test,2022-11-03_13h05.30.219,GoFitts,2022.1.4,Win32,60.28454304,,,,,"[84.9796734531105,-261.5405419811673]","[-137.49999999999994,238.15698604072065]",32.3,550,2,"[89,87,86,86,86,86,86,86,86,86,86,86,86,86,87,87,87,87,87,87,87,87,85,85,85,85,85,85,83,75,56,30,3,-26,-49,-64,-70,-72,-73,-73,-73,-75,-75,-77,-78,-79,-84,-93,-99,-119,-132]","[-265,-275,-275,-275,-271,-248,-238,-235,-234,-234,-234,-234,-237,-239,-241,-242,-243,-245,-246,-249,-251,-254,-258,-259,-259,-259,-253,-249,-231,-173,-95,-11,58,118,156,184,199,204,204,204,204,204,204,205,205,206,207,208,210,217,225]","[0,0,0,0,0,0,0,0,0,0,0,0,0,0,0,0,0,0,0,0,0,0,0,0,0,0,0,0,0,0,0,0,0,0,0,0,0,0,0,0,0,0,0,0,0,0,0,0,0,0,0]","[0,0,0,0,0,0,0,0,0,0,0,0,0,0,0,0,0,0,0,0,0,0,0,0,0,0,0,0,0,0,0,0,0,0,0,0,0,0,0,0,0,0,0,0,0,0,0,0,0,0,0]","[0,0,0,0,0,0,0,0,0,0,0,0,0,0,0,0,0,0,0,0,0,0,0,0,0,0,0,0,0,0,0,0,0,0,0,0,0,0,0,0,0,0,0,0,0,0,0,0,0,0,0]","[0.0004000000953539029,0.01649999999999352,0.0332000000476711,0.0497999999523131,0.06229999995231594,0.08329999995231674,0.0957000000476711,0.11599999999999966,0.13379999995231628,0.15049999999999386,0.16270000004767837,0.17940000009535595,0.19950000000000045,0.21609999990462825,0.22829999995231276,0.25099999999999056,0.2619000000953662,0.28440000009535993,0.30079999995230366,0.3120999999046319,0.3327000000476801,0.3452000000476829,0.3662000000476837,0.38259999990462745,0.3947000000476777,0.412200000047676,0.4329999999999927,0.4447999999523091,0.46170000004767076,0.4832999999523082,0.49940000009536334,0.5167999999523119,0.5339000000953575,0.5497000000476788,0.5660999999046226,0.5824000000953617,0.595499999999987,0.6174999999999926,0.6330999999046298,0.6457000000476825,0.6612000000476712,0.6784000000953654,0.6992000000476821,0.7114999999999867,0.7345999999046313,0.7507000000476722,0.7620000000000005,0.7827000000476829,0.796999999999997,0.8164999999999907,0.832499999999996]",,1,0,1,0,1,,,,
,,,,,,,,,,,,,,,test,2022-11-03_13h05.30.219,GoFitts,2022.1.4,Win32,60.28454304,,,,,"[-137.49999999999994,238.15698604072065]","[184.01091674868607,-204.36482700628335]",32.3,550,2,"[-132,-137,-144,-145,-147,-148,-148,-148,-148,-148,-148,-148,-147,-147,-146,-146,-146,-144,-143,-137,-132,-130,-122,-117,-115,-94,-75,-61,1,26,92,112,168,191,198,198,198,198,198,198,198]","[225,229,251,255,262,263,263,263,263,259,254,251,248,248,247,247,247,245,243,239,236,234,229,227,225,203,180,156,57,17,-88,-114,-162,-176,-180,-180,-180,-180,-185,-193,-198]","[0,0,0,0,0,0,0,0,0,0,0,0,0,0,0,0,0,0,0,0,0,0,0,0,0,0,0,0,0,0,0,0,0,0,0,0,0,0,0,0,0]","[0,0,0,0,0,0,0,0,0,0,0,0,0,0,0,0,0,0,0,0,0,0,0,0,0,0,0,0,0,0,0,0,0,0,0,0,0,0,0,0,0]","[0,0,0,0,0,0,0,0,0,0,0,0,0,0,0,0,0,0,0,0,0,0,0,0,0,0,0,0,0,0,0,0,0,0,0,0,0,0,0,0,0]","[0.0003000001907338401,0.014100000143045577,0.03349999999998943,0.046200000047676326,0.06770000004767951,0.08399999999998897,0.09540000009536698,0.11330000019073339,0.1333000001907294,0.14610000014305058,0.16690000009536732,0.1834999999999951,0.1958000001907294,0.2177000000476852,0.23060000014304194,0.251700000047677,0.26820000004768474,0.2806000001430533,0.30180000019072395,0.31220000004768167,0.3347000000476754,0.34590000009536936,0.36730000019072406,0.38400000000000034,0.39630000019073464,0.41680000019073304,0.43330000019072656,0.44599999999999795,0.4667000000476804,0.479100000143049,0.5004000000953681,0.5141000001430456,0.5338000001907375,0.5501000001430469,0.563999999999993,0.5849000000953595,0.5976000001430464,0.6138000001907358,0.6287000000476866,0.6459000000953665,0.6679999999999922]",,2,0,2,0,1,,,,
,,,,,,,,,,,,,,,test,2022-11-03_13h05.30.219,GoFitts,2022.1.4,Win32,60.28454304,,,,,"[184.01091674868607,-204.36482700628335]","[-222.4796734531105,161.64094438043014]",32.3,550,2,"[198,199,199,199,199,199,198,193,193,192,192,192,192,192,192,192,192,192,192,192,192,192,192,192,190,187,179,161,101,2,-124,-244,-246,-246,-246,-244,-238,-237,-231,-230,-227,-227,-225,-221,-215,-209,-205,-202,-202,-203,-204,-205,-207]","[-198,-200,-200,-200,-200,-200,-203,-204,-204,-205,-205,-205,-205,-205,-205,-205,-205,-205,-205,-205,-205,-205,-205,-205,-204,-198,-189,-162,-95,-12,65,129,131,132,132,133,133,133,129,129,128,128,128,129,133,138,146,154,161,162,163,163,163]","[0,0,0,0,0,0,0,0,0,0,0,0,0,0,0,0,0,0,0,0,0,0,0,0,0,0,0,0,0,0,0,0,0,0,0,0,0,0,0,0,0,0,0,0,0,0,0,0,0,0,0,0,0]","[0,0,0,0,0,0,0,0,0,0,0,0,0,0,0,0,0,0,0,0,0,0,0,0,0,0,0,0,0,0,0,0,0,0,0,0,0,0,0,0,0,0,0,0,0,0,0,0,0,0,0,0,0]","[0,0,0,0,0,0,0,0,0,0,0,0,0,0,0,0,0,0,0,0,0,0,0,0,0,0,0,0,0,0,0,0,0,0,0,0,0,0,0,0,0,0,0,0,0,0,0,0,0,0,0,0,0]","[0.0009000000953705012,0.014400000095363907,0.02750000000000341,0.043299999952310486,0.06010000014305206,0.07670000004767985,0.0947999999523148,0.11590000009536539,0.1281000001430499,0.14360000014305285,0.16460000014305365,0.1766000001430541,0.19429999995232095,0.21079999995231447,0.2326000001430515,0.24579999995231105,0.26460000014304796,0.2766000001430484,0.29390000009536266,0.3114999999999952,0.3279000000953687,0.34460000014304626,0.3657999999523156,0.3767999999523113,0.39360000014305285,0.4147999999523222,0.4272999999523108,0.4481000001430573,0.4606000001430459,0.4816000001430467,0.4939999999999998,0.5150000000000006,0.5327999999523172,0.5499999999999972,0.5600000000000023,0.5790000000000077,0.5987000000476854,0.6104000000953675,0.6316000001430524,0.6451000001430458,0.665100000143056,0.6827999999523229,0.6949000000953731,0.7150000000000034,0.727400000095372,0.7482000000476887,0.7609000000953614,0.7817000000476781,0.7937999999523129,0.8165000000000049,0.8317999999523238,0.846500000000006,0.8652000000476789]",,3,0,3,0,1,,,,
,,,,,,,,,,,,,,,test,2022-11-03_13h05.30.219,GoFitts,2022.1.4,Win32,60.28454304,,,,,"[-222.4796734531105,161.64094438043014]","[251.22500085171527,-111.85257684584504]",32.3,550,2,"[-207,-208,-209,-211,-213,-215,-216,-219,-220,-221,-221,-221,-221,-221,-221,-221,-221,-221,-221,-221,-217,-210,-192,-157,-93,4,102,186,255,323,335,344,344,341,333,313,306,289,283,278,274,269,263,261,258]","[163,162,162,161,160,160,160,160,160,160,160,160,160,160,160,160,160,160,160,160,160,157,150,134,96,36,-36,-99,-151,-185,-189,-191,-191,-191,-186,-175,-172,-162,-157,-150,-142,-135,-129,-127,-124]","[0,0,0,0,0,0,0,0,0,0,0,0,0,0,0,0,0,0,0,0,0,0,0,0,0,0,0,0,0,0,0,0,0,0,0,0,0,0,0,0,0,0,0,0,0]","[0,0,0,0,0,0,0,0,0,0,0,0,0,0,0,0,0,0,0,0,0,0,0,0,0,0,0,0,0,0,0,0,0,0,0,0,0,0,0,0,0,0,0,0,0]","[0,0,0,0,0,0,0,0,0,0,0,0,0,0,0,0,0,0,0,0,0,0,0,0,0,0,0,0,0,0,0,0,0,0,0,0,0,0,0,0,0,0,0,0,0]","[0.0003999998569526042,0.01739999985694851,0.028500000000008185,0.05069999980926809,0.061500000000009436,0.08409999990463746,0.09550000000000125,0.1161999998092682,0.1341999998092689,0.1495000000000033,0.16189999985695636,0.1822999999523205,0.1957999999523281,0.2128999998569583,0.22909999990463348,0.24619999980926366,0.2625999999046371,0.2796999998092673,0.29559999990463837,0.3123999998569502,0.3281999998092715,0.3505000000000109,0.36599999999999966,0.38389999985695056,0.3953999998569486,0.4173999998569542,0.43019999980927537,0.45039999985695545,0.46179999995231924,0.48450000000001125,0.4952999999523229,0.5173999998569485,0.529599999904633,0.5475999999046337,0.5615000000000094,0.5823999998569604,0.5948999998569491,0.6158999998569499,0.6331999998092641,0.6447999999523262,0.661399999856954,0.6826999998092731,0.6948999998569576,0.7160999999046425,0.7323999998569519]",,4,0,4,0,1,,,,
,,,,,,,,,,,,,,,test,2022-11-03_13h05.30.219,GoFitts,2022.1.4,Win32,60.28454304,,,,,"[251.22500085171527,-111.85257684584504]","[-268.9905902017966,57.17571497488381]",32.3,550,2,"[258,257,257,257,257,257,257,257,257,257,257,257,257,255,255,254,254,254,254,254,254,252,249,244,231,206,150,51,-77,-200,-284,-320,-325,-319,-317,-316,-316,-316,-316,-316,-316,-314,-306,-298,-291,-280,-267]","[-124,-124,-124,-124,-123,-122,-122,-122,-122,-122,-122,-122,-120,-118,-118,-118,-118,-118,-118,-118,-118,-118,-118,-118,-118,-118,-115,-107,-84,-60,-36,-21,-15,-10,-5,-4,-4,-3,-3,-3,1,14,23,30,33,39,45]","[0,0,0,0,0,0,0,0,0,0,0,0,0,0,0,0,0,0,0,0,0,0,0,0,0,0,0,0,0,0,0,0,0,0,0,0,0,0,0,0,0,0,0,0,0,0,0]","[0,0,0,0,0,0,0,0,0,0,0,0,0,0,0,0,0,0,0,0,0,0,0,0,0,0,0,0,0,0,0,0,0,0,0,0,0,0,0,0,0,0,0,0,0,0,0]","[0,0,0,0,0,0,0,0,0,0,0,0,0,0,0,0,0,0,0,0,0,0,0,0,0,0,0,0,0,0,0,0,0,0,0,0,0,0,0,0,0,0,0,0,0,0,0]","[0.0003000001907338401,0.01790000009536641,0.0344999999999942,0.046999999999997044,0.06199999999999761,0.07980000019072975,0.10130000019073293,0.11160000014305638,0.12990000009536118,0.15070000004767792,0.16290000009536243,0.17980000019073827,0.196200000047682,0.2168000001907302,0.2286000001430466,0.24560000014305672,0.2666000001430575,0.27830000019073964,0.29530000019073555,0.31280000019073384,0.3296000001430457,0.3467000000476901,0.3668000001907359,0.3833000001907294,0.3996000001430531,0.41640000009536493,0.4331000001430567,0.44560000014304535,0.46649999999999636,0.47890000009536493,0.5013000001907386,0.5123000001907343,0.5347000000476783,0.5511000001430517,0.5622000000476817,0.5845000000000056,0.5968000001907399,0.61390000009537,0.6344000000953685,0.6478000001907418,0.6657000000476785,0.6836000001430449,0.7002000000476869,0.7169999999999987,0.7330000000000041,0.7483000001907385,0.7680000000000007]",,5,0,5,0,1,,,,
,,,,,,,,,,,,,,,test,2022-11-03_13h05.30.219,GoFitts,2022.1.4,Win32,60.28454304,,,,,"[-268.9905902017966,57.17571497488381]","[275,0]",32.3,550,2,"[-267,-258,-257,-257,-256,-256,-256,-256,-256,-256,-256,-256,-256,-256,-257,-257,-258,-258,-258,-258,-258,-259,-259,-256,-245,-227,-198,-147,-66,42,129,189,223,243,254,254,254,254,254,254,254,254,254,254,256,264]","[45,50,54,56,58,60,60,60,60,60,60,60,61,62,62,62,62,62,62,62,62,62,62,61,61,61,61,57,48,34,19,13,11,11,11,12,12,12,12,12,12,12,12,12,12,9]","[0,0,0,0,0,0,0,0,0,0,0,0,0,0,0,0,0,0,0,0,0,0,0,0,0,0,0,0,0,0,0,0,0,0,0,0,0,0,0,0,0,0,0,0,0,0]","[0,0,0,0,0,0,0,0,0,0,0,0,0,0,0,0,0,0,0,0,0,0,0,0,0,0,0,0,0,0,0,0,0,0,0,0,0,0,0,0,0,0,0,0,0,0]","[0,0,0,0,0,0,0,0,0,0,0,0,0,0,0,0,0,0,0,0,0,0,0,0,0,0,0,0,0,0,0,0,0,0,0,0,0,0,0,0,0,0,0,0,0,0]","[0.000999999999990564,0.014799999952316512,0.027299999952319354,0.049299999952310714,0.06220000004768167,0.08190000009535936,0.09870000004768542,0.11120000004767405,0.12790000009536584,0.1451000001430458,0.16120000004768542,0.17840000009536539,0.19310000014304762,0.21190000009536902,0.23299999999998988,0.24290000009536072,0.26210000014305024,0.2817999999523124,0.29299999999999216,0.309900000095368,0.3266000001430456,0.34320000004767337,0.361100000143054,0.3789999999999907,0.3990000000000009,0.414799999952308,0.4309999999999974,0.4435000000000002,0.46429999995231697,0.4811000001430443,0.49329999995231333,0.5101000001430407,0.532900000095367,0.5442999999523153,0.5660000000000025,0.5769999999999982,0.5987999999523197,0.6117000000476764,0.6324000000953589,0.6444000000953594,0.6607999999523173,0.6779999999999973,0.6947999999523091,0.7115000000000009,0.7279999999999944,0.7487999999523112]",,6,0,6,0,1,,,,
,,,,,,,,,,,,,,,test,2022-11-03_13h05.30.219,GoFitts,2022.1.4,Win32,60.28454304,,,,,"[275,0]","[-268.9905902017966,-57.175714974883746]",32.3,550,2,"[264,273,284,291,293,293,293,293,293,293,293,293,293,293,293,293,289,286,280,278,276,275,275,275,275,275,275,275,275,272,267,248,197,112,13,-89,-178,-230,-241,-241,-241,-243,-250,-252,-255]","[9,6,3,1,1,1,1,1,1,1,1,1,1,1,1,1,1,1,1,1,1,1,1,1,1,1,1,1,1,1,1,1,-2,-8,-17,-27,-36,-44,-45,-45,-45,-45,-46,-47,-50]","[0,0,0,0,0,0,0,0,0,0,0,0,0,0,0,0,0,0,0,0,0,0,0,0,0,0,0,0,0,0,0,0,0,0,0,0,0,0,0,0,0,0,0,0,0]","[0,0,0,0,0,0,0,0,0,0,0,0,0,0,0,0,0,0,0,0,0,0,0,0,0,0,0,0,0,0,0,0,0,0,0,0,0,0,0,0,0,0,0,0,0]","[0,0,0,0,0,0,0,0,0,0,0,0,0,0,0,0,0,0,0,0,0,0,0,0,0,0,0,0,0,0,0,0,0,0,0,0,0,0,0,0,0,0,0,0,0]","[0.0010000000000047748,0.01559999990463723,0.032799999952317194,0.04870000004768826,0.06520000004768178,0.08209999990462791,0.09499999999999886,0.1115000000000066,0.1290000000000049,0.14579999995231674,0.16620000004768087,0.17909999990463632,0.19520000004769145,0.21220000004768735,0.22940000009536732,0.24529999995232288,0.2669999999999959,0.27770000004768747,0.2997000000476788,0.3112000000476911,0.33190000009537357,0.3484000000953671,0.3657999999523156,0.3772000000476794,0.39409999990463973,0.41190000009537187,0.42709999990462677,0.4462999999523163,0.46659999990463064,0.477400000095372,0.49850000000000705,0.51109999990463,0.5317000000476781,0.5482999999523201,0.5614000000953752,0.5822000000476777,0.6000999999046286,0.6110999999046385,0.6330999999046298,0.6482000000476802,0.6602999999523149,0.6777999999523132,0.69859999990463,0.7109000000953642,0.7324000000953674]",,7,0,7,0,1,,,,
,,,,,,,,,,,,,,,test,2022-11-03_13h05.30.219,GoFitts,2022.1.4,Win32,60.28454304,,,,,"[-268.9905902017966,-57.175714974883746]","[251.22500085171524,111.85257684584504]",32.3,550,2,"[-255,-256,-256,-256,-256,-256,-258,-261,-261,-262,-262,-262,-262,-262,-262,-262,-262,-262,-262,-262,-262,-262,-262,-261,-253,-211,-186,-108,39,83,201,233,293,302,313,313,313,313,313,309,304,299,287,272,259]","[-50,-51,-51,-51,-51,-51,-52,-55,-56,-57,-58,-58,-58,-58,-58,-58,-58,-58,-58,-58,-58,-58,-58,-58,-52,-37,-29,-9,26,37,66,73,83,85,88,89,89,90,92,93,94,95,99,103,106]","[0,0,0,0,0,0,0,0,0,0,0,0,0,0,0,0,0,0,0,0,0,0,0,0,0,0,0,0,0,0,0,0,0,0,0,0,0,0,0,0,0,0,0,0,0]","[0,0,0,0,0,0,0,0,0,0,0,0,0,0,0,0,0,0,0,0,0,0,0,0,0,0,0,0,0,0,0,0,0,0,0,0,0,0,0,0,0,0,0,0,0]","[0,0,0,0,0,0,0,0,0,0,0,0,0,0,0,0,0,0,0,0,0,0,0,0,0,0,0,0,0,0,0,0,0,0,0,0,0,0,0,0,0,0,0,0,0]","[0.0006999998092567239,0.017799999952316625,0.03239999985694908,0.045299999952320036,0.06079999995230878,0.07789999985695317,0.0947999999523148,0.1170999999046245,0.12989999985694567,0.15089999985694647,0.1611999998092699,0.1821999998092707,0.19419999980925695,0.21089999985694874,0.2276999998092606,0.24500000000000455,0.26669999980926207,0.27779999995232174,0.2953999998569543,0.31579999995231844,0.3273999998569508,0.3443999998569467,0.36109999990462427,0.3776999998092663,0.39749999999999375,0.41669999980926775,0.43239999985694055,0.4461999998092665,0.46559999990462586,0.4780999999046287,0.49929999995231356,0.5117999999523164,0.5326999998092674,0.5451999998092703,0.5663999998569409,0.5825999999046303,0.5941999998092626,0.6131999998092681,0.6331999998092641,0.6455999999046327,0.6659999999999968,0.6780999999046315,0.6990999999046323,0.7115999999046352,0.7334999999999923]",,8,0,8,0,1,,,,
,,,,,,,,,,,,,,,test,2022-11-03_13h05.30.219,GoFitts,2022.1.4,Win32,60.28454304,,,,,"[251.22500085171524,111.85257684584504]","[-222.47967345311054,-161.64094438043008]",32.3,550,2,"[259,249,243,240,239,239,239,239,238,238,237,237,237,237,237,237,237,237,237,237,237,237,237,237,219,207,120,74,-70,-148,-196,-214,-223,-224,-228,-228,-229,-229,-230,-230,-232,-235,-235,-235,-235,-235,-235,-235,-235,-235,-235,-235,-233]","[106,107,108,108,108,108,108,108,109,109,111,114,114,114,114,114,114,114,114,114,114,114,114,114,106,101,72,59,12,-22,-48,-65,-81,-87,-104,-116,-127,-132,-133,-135,-139,-142,-147,-149,-149,-149,-149,-149,-149,-149,-149,-150,-156]","[0,0,0,0,0,0,0,0,0,0,0,0,0,0,0,0,0,0,0,0,0,0,0,0,0,0,0,0,0,0,0,0,0,0,0,0,0,0,0,0,0,0,0,0,0,0,0,0,0,0,0,0,0]","[0,0,0,0,0,0,0,0,0,0,0,0,0,0,0,0,0,0,0,0,0,0,0,0,0,0,0,0,0,0,0,0,0,0,0,0,0,0,0,0,0,0,0,0,0,0,0,0,0,0,0,0,0]","[0,0,0,0,0,0,0,0,0,0,0,0,0,0,0,0,0,0,0,0,0,0,0,0,0,0,0,0,0,0,0,0,0,0,0,0,0,0,0,0,0,0,0,0,0,0,0,0,0,0,0,0,0]","[0.0005000000000023874,0.014900000095366295,0.02690000009536675,0.0481000001430516,0.061800000190729065,0.07790000009536868,0.09480000019073032,0.11249999999999716,0.1325000000000074,0.14940000009536902,0.16120000004768542,0.1827000000476886,0.19820000004767735,0.2098000001907394,0.23130000019072838,0.24330000019072884,0.2601000001430549,0.2767000000476827,0.2946000001430491,0.3103000001907361,0.32670000004767985,0.34499999999999886,0.36180000019074043,0.3786000001430523,0.3986000001430483,0.4114000000953695,0.43200000000000216,0.44440000009537073,0.4647000000476851,0.48149999999999693,0.4979000000953704,0.5105000000000075,0.5317000000476781,0.5441000001430467,0.5604000000953704,0.5834000000953665,0.5987000000476854,0.6121000001430446,0.6334000000953637,0.6440000000000055,0.6648000001907377,0.6769000000953724,0.69360000014305,0.7103000001907418,0.7282000000476785,0.7441000001430496,0.7614999999999981,0.7827000000476829,0.7948000001907332,0.811000000000007,0.8277000000476846,0.8455000000000013,0.8647000000476908]",,9,0,9,0,1,,,,
,,,,,,,,,,,,,,,test,2022-11-03_13h05.30.219,GoFitts,2022.1.4,Win32,60.28454304,,,,,"[-222.47967345311054,-161.64094438043008]","[184.01091674868601,204.3648270062834]",32.3,550,2,"[-233,-230,-228,-227,-227,-227,-227,-227,-227,-227,-227,-227,-227,-227,-227,-227,-227,-227,-227,-227,-227,-223,-216,-168,-115,-84,2,60,112,153,174,190,198,205,211,216,222,225,226,226,226,226,226,219,214,212,198]","[-156,-162,-164,-164,-164,-164,-164,-164,-164,-164,-164,-164,-164,-164,-164,-164,-164,-164,-164,-164,-164,-158,-151,-101,-54,-29,50,96,131,158,172,181,187,193,198,203,206,210,210,211,211,211,211,210,207,207,199]","[0,0,0,0,0,0,0,0,0,0,0,0,0,0,0,0,0,0,0,0,0,0,0,0,0,0,0,0,0,0,0,0,0,0,0,0,0,0,0,0,0,0,0,0,0,0,0]","[0,0,0,0,0,0,0,0,0,0,0,0,0,0,0,0,0,0,0,0,0,0,0,0,0,0,0,0,0,0,0,0,0,0,0,0,0,0,0,0,0,0,0,0,0,0,0]","[0,0,0,0,0,0,0,0,0,0,0,0,0,0,0,0,0,0,0,0,0,0,0,0,0,0,0,0,0,0,0,0,0,0,0,0,0,0,0,0,0,0,0,0,0,0,0]","[0.0002999999523041197,0.01649999999999352,0.028799999952312305,0.05009999990463143,0.06259999990462006,0.07959999990463018,0.09729999995231253,0.11340000009535345,0.12970000004767712,0.14749999999999375,0.16370000004768315,0.18040000009536072,0.19629999995231628,0.2129000000953596,0.2302999999523081,0.24499999999999034,0.26329999995230935,0.27979999995230287,0.296799999952313,0.3129000000953539,0.3312999999523072,0.3499999999999943,0.36199999999999477,0.383700000047682,0.3997999999523074,0.4150999999046263,0.4335999999046294,0.446200000047682,0.4664000000953621,0.47909999990461927,0.5000999999046201,0.5127000000476727,0.5347000000476783,0.5502999999523155,0.5622000000476817,0.5849000000953595,0.5964999999999918,0.6175999999046269,0.6287000000476723,0.6505999999046281,0.6677999999523081,0.6797000000476743,0.6969000000953542,0.7164999999999964,0.7339000000953604,0.7464000000953632,0.7680999999046207]",,10,0,10,0,1,,,,
,,,,,,,,,,,,,,,test,2022-11-03_13h05.30.219,GoFitts,2022.1.4,Win32,60.28454304,,,,,"[184.01091674868601,204.3648270062834]","[-137.5000000000001,-238.1569860407206]",32.3,550,2,"[198,186,183,177,177,177,177,177,176,176,176,177,178,179,180,180,180,180,180,180,180,180,180,180,180,178,167,155,132,96,56,12,-25,-55,-72,-78,-81,-83,-85,-88,-91,-97,-102,-109,-115,-115,-115,-115,-115,-116,-122,-123]","[199,193,191,187,187,187,187,187,187,188,189,190,191,192,194,195,195,195,195,195,195,195,195,195,195,192,177,160,134,91,36,-22,-77,-127,-159,-176,-186,-195,-204,-209,-214,-217,-220,-226,-229,-230,-230,-230,-230,-231,-233,-233]","[0,0,0,0,0,0,0,0,0,0,0,0,0,0,0,0,0,0,0,0,0,0,0,0,0,0,0,0,0,0,0,0,0,0,0,0,0,0,0,0,0,0,0,0,0,0,0,0,0,0,0,0]","[0,0,0,0,0,0,0,0,0,0,0,0,0,0,0,0,0,0,0,0,0,0,0,0,0,0,0,0,0,0,0,0,0,0,0,0,0,0,0,0,0,0,0,0,0,0,0,0,0,0,0,0]","[0,0,0,0,0,0,0,0,0,0,0,0,0,0,0,0,0,0,0,0,0,0,0,0,0,0,0,0,0,0,0,0,0,0,0,0,0,0,0,0,0,0,0,0,0,0,0,0,0,0,0,0]","[0.0006000001430521706,0.014799999952316512,0.026700000047682693,0.047900000095367545,0.06070000004768872,0.0774000000953663,0.09329999995232185,0.10990000009536516,0.12920000004768895,0.14799999999999613,0.1599999999999966,0.17779999995231321,0.19400000000000261,0.2159000000953739,0.2286000001430466,0.24910000014305922,0.2605000000000075,0.2811000001430557,0.29479999995231765,0.3107000000476887,0.3274000000953663,0.3444000000953764,0.36129999995232254,0.37829999995231844,0.39479999995231196,0.4127000000476926,0.4319000000953679,0.44910000014304785,0.4651000001430532,0.4812000000476928,0.49800000000000466,0.5152000000476846,0.5311000001430557,0.5447999999523176,0.5647000000476794,0.5784000000953711,0.597999999999999,0.6152999999523132,0.6322000000476891,0.6440000000000055,0.6646000001430536,0.6776000001430589,0.6992999999523164,0.7102999999523121,0.7326000001430515,0.7469000000953656,0.7654000000953687,0.7772000000476851,0.7976000001430492,0.8104000000953704,0.8315000000000055,0.8434000000953716]",,11,0,11,0,1,,,,
,,,,,,,,,,,,,,,test,2022-11-03_13h05.30.219,GoFitts,2022.1.4,Win32,60.28454304,,,,,"[-137.5000000000001,-238.1569860407206]","[84.97967345311055,261.5405419811672]",32.3,550,2,"[-123,-123,-123,-124,-124,-125,-127,-129,-130,-131,-131,-131,-131,-131,-131,-131,-131,-131,-131,-131,-131,-131,-131,-119,-115,-79,-31,19,56,84,104,113,118,121,122,124,127,129,129,130,130,130,129,120,118,105,89]","[-233,-233,-233,-233,-233,-234,-234,-234,-234,-234,-234,-234,-234,-234,-234,-234,-234,-234,-234,-234,-234,-234,-234,-223,-219,-169,-104,-33,41,106,154,175,186,193,195,198,202,206,208,212,212,213,214,215,216,227,253]","[0,0,0,0,0,0,0,0,0,0,0,0,0,0,0,0,0,0,0,0,0,0,0,0,0,0,0,0,0,0,0,0,0,0,0,0,0,0,0,0,0,0,0,0,0,0,0]","[0,0,0,0,0,0,0,0,0,0,0,0,0,0,0,0,0,0,0,0,0,0,0,0,0,0,0,0,0,0,0,0,0,0,0,0,0,0,0,0,0,0,0,0,0,0,0]","[0,0,0,0,0,0,0,0,0,0,0,0,0,0,0,0,0,0,0,0,0,0,0,0,0,0,0,0,0,0,0,0,0,0,0,0,0,0,0,0,0,0,0,0,0,0,0]","[0.0015000000000071623,0.01989999985696045,0.0331999998092698,0.04859999990463848,0.06500000000001194,0.08369999980926934,0.09850000000000136,0.11969999980927071,0.13209999990463928,0.15459999990463302,0.17109999990464075,0.18389999985696193,0.20009999990463712,0.22079999995231958,0.23309999990463837,0.25,0.26639999985695795,0.2835999999046379,0.29829999995232015,0.31669999980927344,0.333399999856951,0.3500000000000085,0.366299999952318,0.3863999998569625,0.3988999998569511,0.4198999998569519,0.4340000000000117,0.4531999998092715,0.4655000000000058,0.4868999998569592,0.49969999980926616,0.5197999999523262,0.5327999999523172,0.5533999998569499,0.5671999998092758,0.5867999999523192,0.5990000000000038,0.6200000000000045,0.6337999999523163,0.654500000000013,0.6651999998092748,0.6836999998092779,0.7046999998092787,0.719799999952329,0.7347999999523296,0.7541999998092734,0.7700999999046445]",,12,0,12,0,1,,,,
,,,,,,,,,,,,,,,test,2022-11-03_13h05.30.219,GoFitts,2022.1.4,Win32,60.28454304,,,,,"[84.97967345311055,261.5405419811672]","[-28.745327398604914,-273.49352122627516]",32.3,550,2,"[89,81,78,75,75,75,75,75,76,77,78,78,78,78,79,79,79,81,85,86,88,88,88,88,88,88,78,67,56,16,5,-17,-20,-18,-7,1,5,7,7,7,7,7,7,7,7,7,7,4,-2,-16]","[253,270,275,281,282,282,282,282,281,278,276,274,273,272,270,267,262,254,246,244,242,242,242,242,242,241,229,206,187,89,48,-71,-137,-198,-246,-272,-285,-290,-291,-292,-292,-294,-295,-298,-299,-299,-299,-295,-288,-272]","[0,0,0,0,0,0,0,0,0,0,0,0,0,0,0,0,0,0,0,0,0,0,0,0,0,0,0,0,0,0,0,0,0,0,0,0,0,0,0,0,0,0,0,0,0,0,0,0,0,0]","[0,0,0,0,0,0,0,0,0,0,0,0,0,0,0,0,0,0,0,0,0,0,0,0,0,0,0,0,0,0,0,0,0,0,0,0,0,0,0,0,0,0,0,0,0,0,0,0,0,0]","[0,0,0,0,0,0,0,0,0,0,0,0,0,0,0,0,0,0,0,0,0,0,0,0,0,0,0,0,0,0,0,0,0,0,0,0,0,0,0,0,0,0,0,0,0,0,0,0,0,0]","[0.00020000004766984603,0.01620000004767519,0.02890000009536209,0.05090000009535345,0.06199999999999761,0.08290000009536413,0.0947999999523148,0.11129999995230833,0.129299999952309,0.14960000014303887,0.1617000000476736,0.18340000009536084,0.20079999995230935,0.21699999999999875,0.2281000001430442,0.24660000014304728,0.26770000004768235,0.2784000000953597,0.29949999999999477,0.3117000000476793,0.3342999999523073,0.35070000004768076,0.3612999999523083,0.37910000014304046,0.3951000001430458,0.41449999999998965,0.43279999995230867,0.4497000000476703,0.4622999999523074,0.48310000014303967,0.4964999999999975,0.5162999999523095,0.528499999999994,0.5494999999999948,0.5621000001430474,0.5829000000953641,0.5952000000476829,0.6174000000953583,0.6327000000476772,0.6507999999523122,0.6612999999523055,0.6806000001430448,0.7014999999999958,0.716200000047678,0.7299000000953555,0.7497999999523159,0.7614000000953638,0.7832000000476711,0.7997000000476788,0.816799999952309]",,13,0,13,0,1,,,,
,,,,,,,,,,,,,,,test,2022-11-03_13h05.30.219,GoFitts,2022.1.4,Win32,60.28454304,,,,,"[-28.745327398604914,-273.49352122627516]","[-28.745327398604665,273.49352122627516]",32.3,550,2,"[-16,-21,-23,-23,-23,-23,-23,-23,-23,-23,-23,-23,-23,-23,-23,-23,-23,-23,-23,-23,-23,-23,-23,-23,-23,-23,-21,-12,-3,5,11,13,13,14,15,16,16,16,16,16,16,15,13,7,1,-11,-26]","[-272,-267,-266,-266,-266,-266,-266,-266,-266,-266,-266,-266,-266,-266,-266,-266,-266,-266,-266,-266,-266,-266,-264,-262,-252,-222,-159,-83,-8,52,106,158,181,187,198,202,224,233,233,236,236,237,237,237,241,254,277]","[0,0,0,0,0,0,0,0,0,0,0,0,0,0,0,0,0,0,0,0,0,0,0,0,0,0,0,0,0,0,0,0,0,0,0,0,0,0,0,0,0,0,0,0,0,0,0]","[0,0,0,0,0,0,0,0,0,0,0,0,0,0,0,0,0,0,0,0,0,0,0,0,0,0,0,0,0,0,0,0,0,0,0,0,0,0,0,0,0,0,0,0,0,0,0]","[0,0,0,0,0,0,0,0,0,0,0,0,0,0,0,0,0,0,0,0,0,0,0,0,0,0,0,0,0,0,0,0,0,0,0,0,0,0,0,0,0,0,0,0,0,0,0]","[0.0006000001430521706,0.015700000047687013,0.032600000143048646,0.04870000004768826,0.0608000001907385,0.0791000001430433,0.09910000014305353,0.1106000001430516,0.12740000009536345,0.1456000001430482,0.16060000014304876,0.17770000004767894,0.19430000019073645,0.21190000009536902,0.22890000009536493,0.24680000019073134,0.2669999999999959,0.27740000009536914,0.2955000000000041,0.31060000014305444,0.327300000190732,0.34499999999999886,0.361100000143054,0.3824999999999932,0.3947000000476777,0.41590000009536254,0.4278000001907287,0.4497000000476845,0.46699999999999875,0.47760000014305604,0.5008000001907362,0.5171000001430457,0.5328000001907327,0.5450000000000017,0.5663000001907363,0.5796000001430457,0.5987000000476854,0.6151000001430447,0.6274000000953635,0.6446000001430434,0.6639000000953672,0.6844000000953656,0.6996000001430502,0.7175000000000011,0.7334000000953722,0.7494000000953633,0.7609000000953614]",,14,0,14,0,1,,,,
,,,,,,,,,,,,,,,test,2022-11-03_13h05.30.219,GoFitts,2022.1.4,Win32,60.28454304,,,,,,,,,2,,,,,,,,,,,,,2,0,0,1
,,,,,,,,,,,,,,,test,2022-11-03_13h05.30.219,GoFitts,2022.1.4,Win32,60.28454304,,,return,3.0356,"[621,-55]","[-342.351660256832,72.76909178621575]",20,700,3,"[621,621,621,621,621,621,621,621,621,621,623,641,662,671,673,673,673,673,673,673,660,586,424,255,179,78,78,77,77,77,77,77,77,77,77,77,77,78,24,-64,-104,-184,-199,-229,-222,-216,-215,-215,-218,-236,-279,-327,-351,-360,-363,-366,-372,-380,-385,-387,-386,-378,-365,-348,-328,-308,-305,-299,-298,-298,-298,-298,-299,-300,-310,-316,-327,-344,-356,-359,-359,-359,-359,-358,-357,-357,-357,-355,-354,-354,-353,-350]","[-55,-55,-55,-55,-55,-55,-55,-55,-55,-58,-76,-166,-306,-411,-453,-453,-453,-453,-453,-453,-463,-440,-320,-74,41,213,213,213,213,213,213,213,213,213,213,213,213,214,174,99,60,-19,-41,-136,-175,-187,-188,-188,-188,-188,-176,-149,-123,-104,-79,-53,-29,-10,1,7,15,25,38,47,54,64,66,73,76,85,88,92,99,101,108,108,105,95,86,83,81,81,79,77,77,77,77,77,77,77,77,77]","[0,0,0,0,0,0,0,0,0,0,0,0,0,0,0,0,0,0,0,0,0,0,0,0,0,0,0,0,0,0,0,0,0,0,0,0,0,0,0,0,0,0,0,0,0,0,0,0,0,0,0,0,0,0,0,0,0,0,0,0,0,0,0,0,0,0,0,0,0,0,0,0,0,0,0,0,0,0,0,0,0,0,0,0,0,0,0,0,0,0,0,0]","[0,0,0,0,0,0,0,0,0,0,0,0,0,0,0,0,0,0,0,0,0,0,0,0,0,0,0,0,0,0,0,0,0,0,0,0,0,0,0,0,0,0,0,0,0,0,0,0,0,0,0,0,0,0,0,0,0,0,0,0,0,0,0,0,0,0,0,0,0,0,0,0,0,0,0,0,0,0,0,0,0,0,0,0,0,0,0,0,0,0,0,0]","[0,0,0,0,0,0,0,0,0,0,0,0,0,0,0,0,0,0,0,0,0,0,0,0,0,0,0,0,0,0,0,0,0,0,0,0,0,0,0,0,0,0,0,0,0,0,0,0,0,0,0,0,0,0,0,0,0,0,0,0,0,0,0,0,0,0,0,0,0,0,0,0,0,0,0,0,0,0,0,0,0,0,0,0,0,0,0,0,0,0,0,0]","[0.0007000000476864443,0.012000000000000455,0.0248999998569559,0.04129999995231515,0.058899999856947716,0.0733999998569459,0.09149999999999636,0.10850000000002069,0.12379999995232538,0.14109999990463962,0.16200000000000614,0.1783999998569641,0.19489999985697182,0.20939999985697,0.22970000004769986,0.24639999985694772,0.2592000000476844,0.2748999998569559,0.29139999985696363,0.3093999998569643,0.32809999990465144,0.34520000004769713,0.361899999856945,0.38009999990464394,0.39309999990464917,0.4117999999523363,0.42370000004768826,0.4462000000476962,0.4583999998569652,0.47489999985697295,0.4920999999046387,0.5087999999523163,0.5255999999046423,0.5422000000476999,0.5585000000000093,0.573799999952314,0.59050000000002,0.6092000000477071,0.6297999999523256,0.6448999998569604,0.6588999998569705,0.6785999999046339,0.6927000000476937,0.7117000000476992,0.7295000000000016,0.7412000000476837,0.7635999999046419,0.7745999999046376,0.7907000000477069,0.811899999856962,0.8245000000000005,0.8455000000000155,0.8625000000000114,0.8745000000000118,0.8950000000000102,0.9074999999999989,0.9295999999046387,0.9407000000476842,0.9630000000000223,0.9745000000000061,0.9964999999999975,1.0115999999046323,1.0282000000476899,1.0405999999046287,1.0635999999046533,1.0782999999523213,1.092000000000013,1.1129999999999995,1.1245000000000118,1.1454999999999984,1.161500000000018,1.1742000000477049,1.1950999999046417,1.2075999999046303,1.2292000000476833,1.2452999999523229,1.2573999998569718,1.2785999999046567,1.2955999999046526,1.3073999998569548,1.3297000000476942,1.3402000000477017,1.3570999999046478,1.3737999999523254,1.3963999998569534,1.4083999998569539,1.4248999998569616,1.4407999999523327,1.4637999999523288,1.4795000000000016,1.4905999999046458,1.5122999999523188]",,0,0,0,0,1,,,,
,,,,,,,,,,,,,,,test,2022-11-03_13h05.30.219,GoFitts,2022.1.4,Win32,60.28454304,,,,,"[-342.351660256832,72.76909178621575]","[350,0]",20,700,3,"[-350,-348,-346,-341,-339,-339,-339,-339,-338,-338,-338,-338,-338,-338,-338,-338,-338,-338,-338,-338,-338,-338,-338,-333,-331,-311,-85,114,307,394,581,630,632,632,629,622,618,611,604,593,575,550,524,497,475,445,435,407,397,386,385,385,385,385,385,385,382,376,375,365,361,353]","[77,77,77,77,77,76,76,75,72,70,68,67,67,67,67,67,67,67,67,67,67,67,66,67,67,67,68,54,41,34,28,28,28,28,27,25,23,20,18,17,15,15,15,15,14,8,7,0,-1,-2,-2,-2,-2,-2,-2,-2,-2,-2,-2,-2,-2,-2]","[0,0,0,0,0,0,0,0,0,0,0,0,0,0,0,0,0,0,0,0,0,0,0,0,0,0,0,0,0,0,0,0,0,0,0,0,0,0,0,0,0,0,0,0,0,0,0,0,0,0,0,0,0,0,0,0,0,0,0,0,0,0]","[0,0,0,0,0,0,0,0,0,0,0,0,0,0,0,0,0,0,0,0,0,0,0,0,0,0,0,0,0,0,0,0,0,0,0,0,0,0,0,0,0,0,0,0,0,0,0,0,0,0,0,0,0,0,0,0,0,0,0,0,0,0]","[0,0,0,0,0,0,0,0,0,0,0,0,0,0,0,0,0,0,0,0,0,0,0,0,0,0,0,0,0,0,0,0,0,0,0,0,0,0,0,0,0,0,0,0,0,0,0,0,0,0,0,0,0,0,0,0,0,0,0,0,0,0]","[0.00010000014304978322,0.016700000047677577,0.028299999952309918,0.044700000047697586,0.06740000009537539,0.08250000000001023,0.09420000004769236,0.11199999999999477,0.13249999999999318,0.14460000014304342,0.16140000009536948,0.1822999999523347,0.19470000004770327,0.21260000014305547,0.2295000000000016,0.24620000004767917,0.26210000014305024,0.2777000000477017,0.2947000000476976,0.31179999995231356,0.33379999995233334,0.3457000000476853,0.36299999999999955,0.3846000001430525,0.39660000014305297,0.414900000095372,0.43310000014307093,0.4497000000476987,0.46529999995232174,0.4781000001430584,0.49970000004768167,0.5157000000477012,0.5335000000000036,0.5452999999523342,0.5655000000000143,0.5827999999523286,0.5946000001430605,0.6162000000476837,0.6327999999523115,0.6452999999523286,0.6672999999523199,0.6822999999523347,0.6952000000476914,0.7162999999523265,0.7282000000476785,0.7494000000953633,0.763100000143055,0.7824999999999989,0.7947999999523176,0.8162000000477008,0.8281000001430527,0.8497999999523245,0.8627000000476812,0.8784000000953824,0.8952000000476801,0.9122999999523245,0.928100000143047,0.9496000001430502,0.9617000000476992,0.9824000000953674,0.9977999999523206,1.0164000000953592]",,1,0,1,0,1,,,,
,,,,,,,,,,,,,,,test,2022-11-03_13h05.30.219,GoFitts,2022.1.4,Win32,60.28454304,,,,,"[350,0]","[-342.351660256832,-72.76909178621567]",20,700,3,"[353,346,338,333,333,333,333,334,335,337,340,344,351,358,360,361,361,361,361,361,361,361,361,359,355,347,338,318,259,140,-18,-195,-376,-552,-690,-754,-759,-748,-680,-654,-600,-588,-562,-562,-554,-538,-519,-494,-467,-445,-421,-394,-368,-342]","[-2,-1,-1,-1,-1,-1,-1,-1,-1,-1,-1,0,0,0,0,0,0,0,0,0,0,0,0,0,0,-2,-3,-8,-21,-41,-69,-91,-111,-122,-121,-117,-117,-117,-118,-121,-130,-131,-132,-132,-128,-118,-107,-97,-85,-77,-70,-67,-65,-65]","[0,0,0,0,0,0,0,0,0,0,0,0,0,0,0,0,0,0,0,0,0,0,0,0,0,0,0,0,0,0,0,0,0,0,0,0,0,0,0,0,0,0,0,0,0,0,0,0,0,0,0,0,0,0]","[0,0,0,0,0,0,0,0,0,0,0,0,0,0,0,0,0,0,0,0,0,0,0,0,0,0,0,0,0,0,0,0,0,0,0,0,0,0,0,0,0,0,0,0,0,0,0,0,0,0,0,0,0,0]","[0,0,0,0,0,0,0,0,0,0,0,0,0,0,0,0,0,0,0,0,0,0,0,0,0,0,0,0,0,0,0,0,0,0,0,0,0,0,0,0,0,0,0,0,0,0,0,0,0,0,0,0,0,0]","[0.00020000004766984603,0.015500000000002956,0.03330000019073509,0.04480000019071895,0.06680000019073873,0.0774000000953663,0.09449999999998226,0.11170000004767644,0.13280000019074123,0.1449999999999818,0.1657000000476785,0.18000000000000682,0.19899999999998386,0.21660000014304615,0.23349999999999227,0.25030000019071963,0.26080000019072713,0.2775000000000034,0.294200000047681,0.3108000001907385,0.32849999999999113,0.3483000001907328,0.36080000019072145,0.37910000014304046,0.3991000001430507,0.4152000000476903,0.42770000004767894,0.4444000000953565,0.4625000000000057,0.4839000000953604,0.4947000000476862,0.5168000001907274,0.5334000000953552,0.5449999999999875,0.5657000000476842,0.579800000190744,0.6003000001907424,0.6112000000476883,0.6338000001907176,0.6446000001430434,0.6681000001430561,0.6816000001430496,0.6987000000476655,0.7124000000953572,0.7279000000953602,0.7494999999999834,0.7659000000953711,0.7779000000953715,0.7994000000953747,0.8114999999999952,0.8324999999999818,0.8492000000476878,0.8618000001907262,0.882600000143043]",,2,0,2,0,1,,,,
,,,,,,,,,,,,,,,test,2022-11-03_13h05.30.219,GoFitts,2022.1.4,Win32,60.28454304,,,,,"[-342.351660256832,-72.76909178621567]","[319.7409101749103,142.35782507653005]",20,700,3,"[-342,-314,-285,-266,-264,-264,-267,-300,-325,-336,-350,-350,-350,-353,-355,-357,-358,-358,-358,-358,-358,-357,-353,-351,-348,-348,-348,-348,-347,-347,-347,-347,-347,-347,-347,-347,-347,-347,-347,-347,-334,-309,-231,-123,-64,142,254,332,388,419,421,421,421,420,416,412,407,401,394,391,374,367,354,341,336,335,334,333,331,331,329,328]","[-65,-69,-74,-77,-77,-77,-77,-79,-82,-83,-83,-83,-83,-83,-81,-80,-80,-80,-79,-77,-75,-75,-74,-72,-71,-71,-71,-71,-71,-71,-71,-71,-71,-71,-71,-71,-71,-71,-71,-71,-65,-51,-18,14,31,73,97,113,126,134,134,134,134,134,134,134,134,134,134,134,137,139,142,145,147,147,147,147,147,147,147,147]","[0,0,0,0,0,0,0,0,0,0,0,0,0,0,0,0,0,0,0,0,0,0,0,0,0,0,0,0,0,0,0,0,0,0,0,0,0,0,0,0,0,0,0,0,0,0,0,0,0,0,0,0,0,0,0,0,0,0,0,0,0,0,0,0,0,0,0,0,0,0,0,0]","[0,0,0,0,0,0,0,0,0,0,0,0,0,0,0,0,0,0,0,0,0,0,0,0,0,0,0,0,0,0,0,0,0,0,0,0,0,0,0,0,0,0,0,0,0,0,0,0,0,0,0,0,0,0,0,0,0,0,0,0,0,0,0,0,0,0,0,0,0,0,0,0]","[0,0,0,0,0,0,0,0,0,0,0,0,0,0,0,0,0,0,0,0,0,0,0,0,0,0,0,0,0,0,0,0,0,0,0,0,0,0,0,0,0,0,0,0,0,0,0,0,0,0,0,0,0,0,0,0,0,0,0,0,0,0,0,0,0,0,0,0,0,0,0,0]","[0.00020000004769826774,0.016299999952309463,0.03270000004769713,0.05059999990464803,0.06190000009536334,0.08290000009537835,0.09559999990463552,0.11759999990462688,0.13300000000000978,0.14620000004768485,0.16659999990463348,0.1830999999046412,0.19729999995232106,0.21570000004768985,0.22840000009537675,0.24659999990464598,0.2665999999046278,0.2779999999999916,0.2972000000476953,0.31620000004767235,0.33279999995232856,0.349700000047676,0.3619000000953747,0.38309999990462984,0.39479999995231196,0.4125999999046428,0.42979999995230855,0.4459000000953779,0.4637000000476803,0.4822000000476976,0.4947999999523063,0.5115000000000123,0.5282000000476899,0.5450000000000159,0.5614999999999952,0.5784999999999911,0.5969000000953599,0.6112999999523083,0.6279000000953658,0.6469999999999914,0.6659000000953768,0.6842999999523158,0.6995999999046205,0.7162999999523265,0.7290999999046335,0.7497999999523302,0.7662000000476894,0.7782999999523099,0.7994999999999948,0.8162999999523208,0.8284000000953711,0.8507000000476808,0.8612999999523083,0.8789999999999907,0.8995999999046376,0.9117000000476878,0.9327000000476744,0.9454000000953613,0.9660000000000082,0.9804000000953579,1.0009000000953563,1.0117999999523306,1.0292999999523147,1.0485999999046385,1.0665999999046392,1.0847000000476896,1.094799999952329,1.1175000000000068,1.1325999999046417,1.149499999999989,1.1619000000953577,1.1842000000476958]",,3,0,3,0,1,,,,
,,,,,,,,,,,,,,,test,2022-11-03_13h05.30.219,GoFitts,2022.1.4,Win32,60.28454304,,,,,"[319.7409101749103,142.35782507653005]","[-283.1559480312316,-205.72483830236555]",20,700,3,"[328,324,322,319,317,317,316,316,316,316,316,316,316,316,316,316,316,316,316,316,316,313,308,270,198,93,-16,-102,-155,-173,-178,-179,-179,-183,-194,-201,-229,-248,-263,-268,-270,-271,-271,-273,-276,-280,-281,-283]","[147,146,145,145,145,145,145,145,145,145,145,145,145,145,145,145,145,145,145,145,145,144,142,132,103,59,3,-47,-92,-115,-131,-140,-148,-155,-165,-168,-176,-181,-187,-189,-189,-189,-189,-190,-190,-192,-194,-197]","[0,0,0,0,0,0,0,0,0,0,0,0,0,0,0,0,0,0,0,0,0,0,0,0,0,0,0,0,0,0,0,0,0,0,0,0,0,0,0,0,0,0,0,0,0,0,0,0]","[0,0,0,0,0,0,0,0,0,0,0,0,0,0,0,0,0,0,0,0,0,0,0,0,0,0,0,0,0,0,0,0,0,0,0,0,0,0,0,0,0,0,0,0,0,0,0,0]","[0,0,0,0,0,0,0,0,0,0,0,0,0,0,0,0,0,0,0,0,0,0,0,0,0,0,0,0,0,0,0,0,0,0,0,0,0,0,0,0,0,0,0,0,0,0,0,0]","[0.0007999999523065071,0.014399999856948398,0.02689999985693703,0.048199999809241945,0.06429999995231128,0.07709999990461824,0.0952999999523172,0.11569999980926582,0.12749999999999773,0.14419999980924558,0.1616999998092581,0.17819999980926582,0.1948999998569434,0.2115000000000009,0.22849999999999682,0.24499999999997613,0.26189999985692225,0.27629999995230037,0.29439999985694953,0.31179999995231356,0.32789999985692475,0.34319999980925786,0.36289999985694976,0.38119999980924035,0.39779999995229787,0.41009999990461665,0.42719999980926104,0.4478999998569293,0.4601999998092481,0.4811999998092631,0.4937999999523015,0.5150999999046064,0.531199999809246,0.5445999999046194,0.5644999999999811,0.5779999999999745,0.6015999999046073,0.615299999952299,0.6315999999046085,0.6436999998092574,0.6659999999999968,0.6828999998569429,0.6929999999999836,0.7120999999046091,0.7314999999999827,0.7482999999523088,0.7605999999046276,0.7816999998092626]",,4,0,4,0,1,,,,
,,,,,,,,,,,,,,,test,2022-11-03_13h05.30.219,GoFitts,2022.1.4,Win32,60.28454304,,,,,"[-283.1559480312316,-205.72483830236555]","[234.19571222560037,260.100688917088]",20,700,3,"[-283,-283,-283,-282,-280,-277,-275,-275,-275,-275,-275,-275,-275,-275,-275,-275,-275,-275,-275,-275,-275,-275,-275,-275,-268,-265,-235,-184,-116,-30,68,170,274,362,428,461,462,462,462,462,462,458,445,414,388,376,350,339,330,327,313,303,294,286,279,277,272,268,263,255,249,246,244,244,244,244,244,244,242]","[-197,-198,-200,-202,-202,-202,-203,-203,-203,-203,-203,-203,-203,-203,-203,-203,-203,-203,-203,-203,-203,-203,-203,-203,-198,-196,-172,-128,-68,13,102,192,273,324,346,354,354,354,354,354,354,352,346,340,333,329,319,314,309,307,298,293,287,283,280,278,275,272,267,263,259,256,255,255,255,255,257,257,260]","[0,0,0,0,0,0,0,0,0,0,0,0,0,0,0,0,0,0,0,0,0,0,0,0,0,0,0,0,0,0,0,0,0,0,0,0,0,0,0,0,0,0,0,0,0,0,0,0,0,0,0,0,0,0,0,0,0,0,0,0,0,0,0,0,0,0,0,0,0]","[0,0,0,0,0,0,0,0,0,0,0,0,0,0,0,0,0,0,0,0,0,0,0,0,0,0,0,0,0,0,0,0,0,0,0,0,0,0,0,0,0,0,0,0,0,0,0,0,0,0,0,0,0,0,0,0,0,0,0,0,0,0,0,0,0,0,0,0,0]","[0,0,0,0,0,0,0,0,0,0,0,0,0,0,0,0,0,0,0,0,0,0,0,0,0,0,0,0,0,0,0,0,0,0,0,0,0,0,0,0,0,0,0,0,0,0,0,0,0,0,0,0,0,0,0,0,0,0,0,0,0,0,0,0,0,0,0,0,0]","[0.00029999995231833054,0.016099999904611195,0.032799999952317194,0.049700000047664616,0.0660000000000025,0.08379999995230492,0.09939999985692793,0.11120000004768826,0.1288999998569409,0.14609999990463507,0.16239999985694453,0.17979999995230855,0.19639999985693635,0.21249999999997726,0.22979999995231992,0.24659999990461756,0.2633999998569436,0.27899999999999636,0.295799999952294,0.31279999995231833,0.32970000004766575,0.34589999985695385,0.36239999985693316,0.38049999999998363,0.3997999999523074,0.41229999995229605,0.430499999999995,0.44939999985695067,0.461599999904621,0.48309999990462416,0.49570000004766257,0.5160999999046112,0.5284999999999798,0.549399999856945,0.5617000000476651,0.5838999998569534,0.5989999999999895,0.6112000000476883,0.6293999998569291,0.6447000000476635,0.6627000000476642,0.6807999999523133,0.7007999999522951,0.7168999998569348,0.7334999999999923,0.7464999999999975,0.7660999999046112,0.7828999998569373,0.7992000000476764,0.8118999998569336,0.8290999999046278,0.849700000047676,0.8660999999046339,0.882700000047663,0.8950999999046303,0.91739999985694,0.9328999998569429,0.9448999998569434,0.9659999999999798,0.9833999998569425,0.9997999999523017,1.012899999856927,1.032999999999987,1.045799999952294,1.0627000000476698,1.079599999904616,1.100999999999999,1.1113999998569284,1.1287999999523208]",,5,0,5,0,1,,,,
,,,,,,,,,,,,,,,test,2022-11-03_13h05.30.219,GoFitts,2022.1.4,Win32,60.28454304,,,,,"[234.19571222560037,260.100688917088]","[-175.00000000000014,-303.1088913245535]",20,700,3,"[242,237,237,237,237,237,237,237,237,237,237,237,237,237,237,237,237,237,237,237,237,237,237,235,231,216,192,150,95,26,-49,-121,-190,-230,-245,-245,-245,-245,-244,-243,-242,-241,-238,-237,-230,-226,-219,-208,-190,-168,-153,-147,-147,-147,-147,-150,-155,-158,-159,-161,-162,-164,-165,-169]","[260,260,260,260,260,260,260,260,260,260,260,260,260,260,260,260,260,260,260,260,260,260,260,259,251,232,201,141,59,-38,-132,-220,-287,-321,-334,-334,-335,-336,-337,-339,-341,-343,-349,-350,-352,-352,-352,-348,-342,-332,-322,-315,-313,-312,-308,-307,-305,-305,-305,-305,-304,-304,-304,-304]","[0,0,0,0,0,0,0,0,0,0,0,0,0,0,0,0,0,0,0,0,0,0,0,0,0,0,0,0,0,0,0,0,0,0,0,0,0,0,0,0,0,0,0,0,0,0,0,0,0,0,0,0,0,0,0,0,0,0,0,0,0,0,0,0]","[0,0,0,0,0,0,0,0,0,0,0,0,0,0,0,0,0,0,0,0,0,0,0,0,0,0,0,0,0,0,0,0,0,0,0,0,0,0,0,0,0,0,0,0,0,0,0,0,0,0,0,0,0,0,0,0,0,0,0,0,0,0,0,0]","[0,0,0,0,0,0,0,0,0,0,0,0,0,0,0,0,0,0,0,0,0,0,0,0,0,0,0,0,0,0,0,0,0,0,0,0,0,0,0,0,0,0,0,0,0,0,0,0,0,0,0,0,0,0,0,0,0,0,0,0,0,0,0,0]","[0.000900000095384712,0.022500000000007958,0.03620000004769963,0.048099999904650304,0.06659999990463916,0.08190000009537357,0.09850000000000136,0.1157999999523156,0.13720000004769872,0.14979999995233584,0.16550000000000864,0.18270000004770282,0.19959999990464894,0.21540000009537152,0.23279999995233425,0.2482999999523372,0.2649000000953663,0.2815999999046426,0.29840000009536993,0.3149999999999977,0.33379999995233334,0.3530999999046287,0.37000000000000455,0.38179999995233516,0.40279999995232174,0.4155999999046287,0.4362000000477053,0.45390000009538767,0.46529999995232174,0.48670000004770486,0.5030000000000143,0.5199000000953902,0.5377999999523126,0.5492999999523249,0.5695999999046535,0.5815000000000055,0.5985000000000014,0.6197999999523347,0.6325000000000216,0.65300000000002,0.6694999999999993,0.6817999999523181,0.703000000000003,0.7152000000477017,0.7365000000000066,0.7539000000953706,0.7699000000953902,0.7824000000953788,0.8032000000476955,0.8154000000953658,0.8360000000000127,0.849000000000018,0.8695999999046364,0.886200000047694,0.8985999999046328,0.9197999999523176,0.9332999999523395,0.9530999999046514,0.9699000000953788,0.9867999999523249,1.0047000000477055,1.0197999999523404,1.036599999904638,1.0537000000476837]",,6,0,6,0,1,,,,
,,,,,,,,,,,,,,,test,2022-11-03_13h05.30.219,GoFitts,2022.1.4,Win32,60.28454304,,,,,"[-175.00000000000014,-303.1088913245535]","[108.1559480312316,332.8697807033037]",20,700,3,"[-169,-176,-177,-177,-177,-177,-178,-176,-175,-175,-175,-175,-175,-175,-175,-175,-175,-175,-175,-175,-177,-177,-177,-173,-154,-92,-34,-1,66,171,194,209,209,209,207,200,195,190,187,184,183,178,173,154,131,105,91,91,90,90,90,91,92,92,92,93,93,95,96,99]","[-304,-304,-304,-304,-304,-304,-303,-302,-302,-302,-302,-302,-302,-302,-302,-302,-302,-302,-302,-302,-300,-296,-272,-257,-174,-22,89,146,276,483,523,540,540,540,534,519,503,491,485,480,476,470,464,439,410,381,361,360,355,351,344,336,332,330,330,329,329,328,328,329]","[0,0,0,0,0,0,0,0,0,0,0,0,0,0,0,0,0,0,0,0,0,0,0,0,0,0,0,0,0,0,0,0,0,0,0,0,0,0,0,0,0,0,0,0,0,0,0,0,0,0,0,0,0,0,0,0,0,0,0,0]","[0,0,0,0,0,0,0,0,0,0,0,0,0,0,0,0,0,0,0,0,0,0,0,0,0,0,0,0,0,0,0,0,0,0,0,0,0,0,0,0,0,0,0,0,0,0,0,0,0,0,0,0,0,0,0,0,0,0,0,0]","[0,0,0,0,0,0,0,0,0,0,0,0,0,0,0,0,0,0,0,0,0,0,0,0,0,0,0,0,0,0,0,0,0,0,0,0,0,0,0,0,0,0,0,0,0,0,0,0,0,0,0,0,0,0,0,0,0,0,0,0]","[0.00029999995231833054,0.016000000000019554,0.03220000004768053,0.04400000000001114,0.0607999999523372,0.07840000009537107,0.09700000000000841,0.11079999995232015,0.13220000004770327,0.15070000004769213,0.1625999999046428,0.18350000000000932,0.1959000000953779,0.21229999995233584,0.22879999995231515,0.24640000009537744,0.2627999999523354,0.2777000000477017,0.29529999995233425,0.31100000000000705,0.3277999999523331,0.3459000000953836,0.36779999995232515,0.37879999995232083,0.399400000095369,0.4152999999523104,0.4322000000476862,0.444500000000005,0.4615000000000009,0.4825000000000159,0.496599999904646,0.5192000000477037,0.5352000000476949,0.5444000000953793,0.5620999999046319,0.5837999999523333,0.6009999999999991,0.616500000000002,0.6342999999523329,0.6459000000953665,0.6675000000000182,0.6790999999046505,0.6950000000000216,0.7172999999523313,0.7340000000000089,0.7505999999046367,0.7680000000000007,0.778700000047678,0.8002000000476812,0.8172999999523256,0.8335999999046351,0.8499000000953743,0.8675999999046269,0.8829000000953897,0.8992999999523192,0.914299999952334,0.9329000000953727,0.9452000000476914,0.9675000000000011,0.9784999999999968]",,7,0,7,0,1,,,,
