身分證字號,date,expName,psychopyVersion,OS,frameRate,from,to,w,a,id,sequence_loop.thisN,enter_time,mouse.x,mouse.y,mouse.leftButton,mouse.midButton,mouse.rightButton,mouse.time,trial_loop.thisRepN,trial_loop.thisTrialN,trial_loop.thisN,trial_loop.thisIndex,trial_loop.ran,leave_time,sequence_loop.thisRepN,sequence_loop.thisTrialN,sequence_loop.thisIndex,sequence_loop.ran
test,2024-09-02_18h05.33.651,GoFitts,2023.2.3,Win32,74.62686567,,,,,,,,,,,,,,,,,,,,,,,
test,2024-09-02_18h05.33.651,GoFitts,2023.2.3,Win32,74.62686567,,,,,,,,,,,,,,,,,,,,,,,
test,2024-09-02_18h05.33.651,GoFitts,2023.2.3,Win32,74.62686567,"[61,7]","[121.35406007759869,-134.77733784751476]",28,362.721594,4.75,0,0.5827,"[61,61,61,61,61,61,61,61,61,61,61,61,61,61,61,61,61,61,61,61,61,61,61,61,61,61,61,61,61,61,63,66,70,76,82,88,95,101,105,108,111,114,115,117,119,120,121,122,122,122,122,122,122,122,122,122,122,122,122,122,122,122,122,122,122,122,122,122,122,122,122,122,122,122,122,122,122,122,122,122,122,122,122]","[7,7,7,7,7,7,7,7,7,7,7,7,7,7,7,7,7,7,7,7,7,7,7,7,7,7,7,7,7,6,-2,-11,-21,-32,-43,-52,-64,-74,-81,-89,-97,-104,-110,-116,-122,-126,-130,-133,-134,-136,-137,-138,-138,-138,-138,-138,-138,-138,-138,-138,-138,-138,-138,-138,-138,-138,-138,-138,-138,-138,-138,-138,-138,-138,-138,-138,-138,-138,-138,-138,-138,-138,-138]","[0,0,0,0,0,0,0,0,0,0,0,0,0,0,0,0,0,0,0,0,0,0,0,0,0,0,0,0,0,0,0,0,0,0,0,0,0,0,0,0,0,0,0,0,0,0,0,0,0,0,0,0,0,0,0,0,0,0,0,0,0,0,0,0,0,0,0,0,0,0,0,0,0,0,0,0,0,0,0,0,0,0,0]","[0,0,0,0,0,0,0,0,0,0,0,0,0,0,0,0,0,0,0,0,0,0,0,0,0,0,0,0,0,0,0,0,0,0,0,0,0,0,0,0,0,0,0,0,0,0,0,0,0,0,0,0,0,0,0,0,0,0,0,0,0,0,0,0,0,0,0,0,0,0,0,0,0,0,0,0,0,0,0,0,0,0,0]","[0,0,0,0,0,0,0,0,0,0,0,0,0,0,0,0,0,0,0,0,0,0,0,0,0,0,0,0,0,0,0,0,0,0,0,0,0,0,0,0,0,0,0,0,0,0,0,0,0,0,0,0,0,0,0,0,0,0,0,0,0,0,0,0,0,0,0,0,0,0,0,0,0,0,0,0,0,0,0,0,0,0,0]","[0.00009999999776511004,0.010899999998509102,0.02359999999776541,0.03489999999851001,0.050300000000744305,0.061599999997765664,0.07489999999850916,0.08930000000074578,0.10269999999925439,0.11630000000074503,0.12950000000000017,0.14330000000074428,0.15469999999925577,0.1703000000007453,0.1833000000007452,0.19539999999851076,0.2080999999977653,0.2223000000007449,0.23619999999925412,0.24819999999925457,0.26319999999925514,0.2754999999999992,0.2890999999977648,0.3023999999985101,0.31480000000074426,0.3280999999977645,0.34219999999925577,0.35680000000074585,0.3699999999999992,0.38159999999776417,0.39659999999776474,0.41000000000000014,0.4223999999985093,0.4366999999992558,0.44899999999999984,0.4623000000007451,0.4760999999977642,0.49019999999925545,0.5026999999992547,0.5156999999992546,0.5288999999985098,0.5421999999992551,0.5558000000007466,0.5698000000007459,0.5826999999992557,0.5965999999977631,0.610399999998509,0.6230000000000002,0.6355999999977646,0.6500000000000012,0.6633000000007447,0.6768999999985104,0.6904999999999992,0.7023000000007462,0.7158000000007467,0.7286999999992565,0.7430999999977663,0.7544999999999993,0.7688999999985091,0.7813000000007433,0.796599999997766,0.8083000000007443,0.8214999999999995,0.837099999997764,0.8480999999977632,0.863500000000001,0.8765999999977643,0.8880999999977659,0.902499999999999,0.9146999999992564,0.928099999997765,0.9413999999985085,0.9554999999999998,0.9698999999985096,0.9825999999977659,0.9954999999999989,1.0081999999992552,1.0233000000007442,1.036399999998511,1.0489999999999986,1.0613999999985095,1.075599999997766,1.088599999997764]",0,0,0,0,1,,,,,
test,2024-09-02_18h05.33.651,GoFitts,2023.2.3,Win32,74.62686567,"[121.35406007759869,-134.77733784751476]","[-146.72396690000238,106.60120183050266]",28,362.721594,4.75,0,0.5472,"[122,122,122,122,122,122,122,122,122,122,122,122,122,122,122,121,119,114,104,87,68,45,15,-19,-46,-71,-92,-101,-108,-112,-114,-116,-117,-118,-120,-121,-124,-125,-127,-130,-133,-137,-138,-141,-142,-143,-143,-144,-144,-144,-144,-144,-145,-145,-145,-145,-145,-145,-145,-145,-145,-145,-145,-145,-145,-145,-145,-145,-145,-145,-145,-145,-145,-145,-145,-145,-145,-145,-145,-145]","[-138,-138,-138,-138,-138,-138,-138,-138,-138,-138,-138,-138,-138,-138,-136,-134,-131,-125,-113,-97,-78,-58,-35,-8,11,30,45,54,60,66,71,75,80,84,88,92,96,98,100,101,103,104,104,104,105,105,105,105,105,105,105,105,105,105,105,105,105,105,105,105,105,105,105,105,105,105,105,105,105,105,105,105,105,105,105,105,105,105,105,105]","[0,0,0,0,0,0,0,0,0,0,0,0,0,0,0,0,0,0,0,0,0,0,0,0,0,0,0,0,0,0,0,0,0,0,0,0,0,0,0,0,0,0,0,0,0,0,0,0,0,0,0,0,0,0,0,0,0,0,0,0,0,0,0,0,0,0,0,0,0,0,0,0,0,0,0,0,0,0,0,0]","[0,0,0,0,0,0,0,0,0,0,0,0,0,0,0,0,0,0,0,0,0,0,0,0,0,0,0,0,0,0,0,0,0,0,0,0,0,0,0,0,0,0,0,0,0,0,0,0,0,0,0,0,0,0,0,0,0,0,0,0,0,0,0,0,0,0,0,0,0,0,0,0,0,0,0,0,0,0,0,0]","[0,0,0,0,0,0,0,0,0,0,0,0,0,0,0,0,0,0,0,0,0,0,0,0,0,0,0,0,0,0,0,0,0,0,0,0,0,0,0,0,0,0,0,0,0,0,0,0,0,0,0,0,0,0,0,0,0,0,0,0,0,0,0,0,0,0,0,0,0,0,0,0,0,0,0,0,0,0,0,0]","[0,0.014200000002979607,0.025100000001490486,0.04070000000297824,0.05190000000223449,0.0653000000007431,0.07940000000223435,0.09190000000223364,0.10510000000148878,0.11840000000223583,0.13360000000148986,0.14630000000074617,0.1593000000007443,0.17370000000298091,0.18720000000298143,0.20070000000297838,0.21270000000297884,0.22620000000297935,0.23980000000074497,0.25400000000000134,0.2667000000029809,0.2798000000007441,0.29290000000223415,0.3069000000022335,0.31930000000074443,0.33270000000297983,0.34710000000148966,0.3594000000022355,0.3728000000007441,0.38660000000149,0.40020000000297884,0.41290000000223515,0.427300000000745,0.4394999999999989,0.45280000000074594,0.4663000000007429,0.480900000002233,0.49260000000148807,0.5061000000014886,0.5207000000029787,0.5333000000007431,0.5472000000029809,0.5596000000014882,0.5728000000007434,0.5861000000014904,0.6008000000007456,0.6129999999999995,0.6260000000000012,0.6394000000022331,0.6533000000007441,0.6649999999999991,0.6808000000007439,0.6937000000029805,0.7052000000029786,0.7184999999999988,0.7327000000029784,0.7453000000007464,0.7603000000007434,0.7736000000014904,0.7851000000014885,0.7994999999999983,0.8142000000029803,0.8249999999999993,0.8384999999999998,0.8518000000007433,0.8652000000029787,0.8784000000022338,0.8924999999999983,0.9071000000014884,0.9188000000007435,0.9328000000007464,0.9457000000029794,0.9586000000014891,0.9720000000000013,0.9851000000014913,0.9984999999999999,1.0127000000029796,1.0251000000014905,1.038600000001491,1.0519999999999996]",1,0,1,0,1,0.2398,,,,
test,2024-09-02_18h05.33.651,GoFitts,2023.2.3,Win32,74.62686567,"[-146.72396690000238,106.60120183050266]","[165.6813323091687,-73.76608176417787]",28,362.721594,4.75,0,0.4399,"[-145,-145,-145,-145,-145,-145,-145,-145,-145,-145,-145,-145,-145,-144,-142,-135,-123,-105,-81,-54,-22,13,31,69,91,107,121,131,140,148,154,158,160,162,162,163,164,165,165,166,166,167,167,167,167,167,167,167,167,167,167,167,167,167,167,167,167,167,167,167,167,167,167,167,167,167,167,167,167,167,167,167]","[105,105,105,105,105,105,105,105,105,105,105,105,105,105,104,99,92,83,72,59,44,28,19,0,-13,-24,-33,-40,-46,-51,-54,-57,-59,-61,-62,-64,-65,-66,-69,-70,-71,-72,-72,-72,-72,-72,-72,-72,-72,-72,-72,-72,-72,-72,-72,-72,-72,-72,-72,-72,-72,-72,-72,-72,-72,-72,-72,-72,-72,-72,-72,-72]","[0,0,0,0,0,0,0,0,0,0,0,0,0,0,0,0,0,0,0,0,0,0,0,0,0,0,0,0,0,0,0,0,0,0,0,0,0,0,0,0,0,0,0,0,0,0,0,0,0,0,0,0,0,0,0,0,0,0,0,0,0,0,0,0,0,0,0,0,0,0,0,0]","[0,0,0,0,0,0,0,0,0,0,0,0,0,0,0,0,0,0,0,0,0,0,0,0,0,0,0,0,0,0,0,0,0,0,0,0,0,0,0,0,0,0,0,0,0,0,0,0,0,0,0,0,0,0,0,0,0,0,0,0,0,0,0,0,0,0,0,0,0,0,0,0]","[0,0,0,0,0,0,0,0,0,0,0,0,0,0,0,0,0,0,0,0,0,0,0,0,0,0,0,0,0,0,0,0,0,0,0,0,0,0,0,0,0,0,0,0,0,0,0,0,0,0,0,0,0,0,0,0,0,0,0,0,0,0,0,0,0,0,0,0,0,0,0,0]","[0,0.013099999997763234,0.02569999999925443,0.04080000000074335,0.052199999999253066,0.06580000000074548,0.07959999999776457,0.09219999999925221,0.10559999999776437,0.11889999999850787,0.1321999999992549,0.14730000000074384,0.15899999999999892,0.17330000000074364,0.1865999999977639,0.2000999999977644,0.21449999999999747,0.22669999999925494,0.24130000000074503,0.2531999999992536,0.2665000000000006,0.28069999999925344,0.29309999999776437,0.3078000000007428,0.3208000000007445,0.3333000000007438,0.3464999999999989,0.3598999999985075,0.3739999999999988,0.38780000000074466,0.3999999999999986,0.41409999999776304,0.4264999999999972,0.4398999999985094,0.45319999999925287,0.4674999999999976,0.480099999997762,0.49419999999925324,0.5078000000007421,0.5199999999999996,0.5333000000007431,0.5468999999985087,0.5609999999999964,0.5725999999977631,0.5875999999977637,0.5989999999999966,0.6124999999999972,0.6263999999985082,0.6388000000007423,0.6528999999985068,0.665499999999998,0.6788999999985066,0.693099999997763,0.7055999999977622,0.720099999997764,0.7339999999999982,0.7461999999992521,0.7588999999985084,0.7740999999977625,0.785499999999999,0.7988999999985076,0.8134999999999977,0.8255999999977632,0.8390999999977637,0.8523000000007421,0.8674999999999997,0.8789999999999978,0.8921999999992529,0.9055999999977615,0.9196999999992528,0.9330999999977614,0.9455999999977642]",2,0,2,0,1,0.2145,,,,
test,2024-09-02_18h05.33.651,GoFitts,2023.2.3,Win32,74.62686567,"[165.6813323091687,-73.76608176417787]","[-177.39762846918504,37.707029955825995]",28,362.721594,4.75,0,0.5488,"[167,167,167,167,167,167,167,167,167,167,167,165,161,156,148,139,122,111,93,70,48,22,-1,-26,-47,-68,-84,-99,-107,-115,-122,-127,-132,-137,-140,-144,-148,-152,-155,-159,-163,-169,-172,-174,-177,-178,-179,-180,-180,-180,-180,-180,-180,-180,-180,-180,-180,-180,-180,-180,-180,-180,-180,-180,-180,-180,-180,-180,-180,-180,-180,-180,-180,-180,-180,-180,-180,-180,-180,-180]","[-72,-72,-72,-72,-72,-72,-73,-73,-73,-73,-73,-73,-71,-70,-67,-64,-59,-55,-49,-42,-36,-28,-21,-12,-6,0,6,11,14,16,19,22,23,25,26,27,28,29,30,31,32,34,35,35,36,36,37,37,37,37,37,37,37,37,37,37,37,37,37,37,37,37,37,37,37,37,37,37,37,37,37,37,37,37,37,37,37,37,37,37]","[0,0,0,0,0,0,0,0,0,0,0,0,0,0,0,0,0,0,0,0,0,0,0,0,0,0,0,0,0,0,0,0,0,0,0,0,0,0,0,0,0,0,0,0,0,0,0,0,0,0,0,0,0,0,0,0,0,0,0,0,0,0,0,0,0,0,0,0,0,0,0,0,0,0,0,0,0,0,0,0]","[0,0,0,0,0,0,0,0,0,0,0,0,0,0,0,0,0,0,0,0,0,0,0,0,0,0,0,0,0,0,0,0,0,0,0,0,0,0,0,0,0,0,0,0,0,0,0,0,0,0,0,0,0,0,0,0,0,0,0,0,0,0,0,0,0,0,0,0,0,0,0,0,0,0,0,0,0,0,0,0]","[0,0,0,0,0,0,0,0,0,0,0,0,0,0,0,0,0,0,0,0,0,0,0,0,0,0,0,0,0,0,0,0,0,0,0,0,0,0,0,0,0,0,0,0,0,0,0,0,0,0,0,0,0,0,0,0,0,0,0,0,0,0,0,0,0,0,0,0,0,0,0,0,0,0,0,0,0,0,0,0]","[0,0.014300000000744717,0.027000000000001023,0.041700000002979465,0.053000000000000824,0.06690000000223506,0.07960000000149137,0.0934999999999988,0.10710000000149122,0.1194000000022335,0.13270000000298054,0.14730000000074384,0.16070000000297924,0.17350000000000065,0.1883000000007442,0.20050000000000168,0.21699999999999875,0.22710000000148867,0.24050000000000082,0.2546000000014885,0.26810000000148904,0.28200000000000003,0.2940000000000005,0.30849999999999866,0.3204999999999991,0.33370000000298106,0.34720000000298157,0.361100000001489,0.3736000000014883,0.3880000000000017,0.40160000000149054,0.41510000000149105,0.42760000000149034,0.44190000000223506,0.4538000000007436,0.46820000000298023,0.48049999999999926,0.495000000000001,0.507900000002234,0.5204000000022369,0.5338000000007455,0.548800000000746,0.5608000000007465,0.5734999999999992,0.5881000000014893,0.6017000000029817,0.6146000000014915,0.6269999999999989,0.6403000000007459,0.6538000000007465,0.6678000000007458,0.6803000000007451,0.6937000000029805,0.7082000000029787,0.7206000000014896,0.7328000000007435,0.746300000000744,0.7605000000000004,0.7731000000014916,0.7862000000029816,0.7998000000007437,0.8140000000000001,0.8261000000014889,0.8397000000029813,0.8530000000000015,0.8674000000022346,0.8823000000007433,0.8938000000007449,0.9064000000022361,0.9203000000007435,0.9328000000007464,0.9461000000014899,0.9594000000022334,0.9748000000007444,0.986100000001489,1.0013000000007466,1.0129000000022366,1.0281000000014906,1.0412000000029806,1.0539000000022334]",3,0,3,0,1,0.1882,,,,
test,2024-09-02_18h05.33.651,GoFitts,2023.2.3,Win32,74.62686567,"[-177.39762846918504,37.707029955825995]","[181.36079701683207,0]",28,362.721594,4.75,0,0.3876,"[-180,-180,-180,-180,-180,-180,-180,-180,-180,-180,-180,-178,-173,-164,-148,-125,-99,-64,-26,7,40,65,86,108,123,136,146,155,160,168,173,178,182,186,188,190,190,190,190,190,190,190,190,190,190,190,190,190,190,190,190,190,190,190,190,190,190,190,190,190,190,190,190,190,190,190,190,190]","[37,37,37,38,38,38,38,38,38,38,38,38,37,36,34,32,29,26,22,19,16,13,10,8,6,5,4,3,2,2,1,1,0,-1,-1,-2,-2,-2,-2,-2,-2,-2,-2,-2,-2,-2,-2,-2,-2,-2,-2,-2,-2,-2,-2,-2,-2,-2,-2,-2,-2,-2,-2,-2,-2,-2,-2,-2]","[0,0,0,0,0,0,0,0,0,0,0,0,0,0,0,0,0,0,0,0,0,0,0,0,0,0,0,0,0,0,0,0,0,0,0,0,0,0,0,0,0,0,0,0,0,0,0,0,0,0,0,0,0,0,0,0,0,0,0,0,0,0,0,0,0,0,0,0]","[0,0,0,0,0,0,0,0,0,0,0,0,0,0,0,0,0,0,0,0,0,0,0,0,0,0,0,0,0,0,0,0,0,0,0,0,0,0,0,0,0,0,0,0,0,0,0,0,0,0,0,0,0,0,0,0,0,0,0,0,0,0,0,0,0,0,0,0]","[0,0,0,0,0,0,0,0,0,0,0,0,0,0,0,0,0,0,0,0,0,0,0,0,0,0,0,0,0,0,0,0,0,0,0,0,0,0,0,0,0,0,0,0,0,0,0,0,0,0,0,0,0,0,0,0,0,0,0,0,0,0,0,0,0,0,0,0]","[0,0.013999999999999346,0.026899999998509116,0.03849999999999909,0.05369999999925312,0.06639999999850943,0.07939999999850755,0.09339999999851045,0.10549999999999926,0.11930000000074514,0.13169999999925253,0.14559999999776352,0.160699999999256,0.1728999999985099,0.18599999999999994,0.19939999999850855,0.2126999999992556,0.22630000000074446,0.24059999999776238,0.2524999999999977,0.26619999999925525,0.2793999999985104,0.2926999999992539,0.3069999999999986,0.31930000000074443,0.3333999999985089,0.34739999999850824,0.3603999999985099,0.3728000000007441,0.3875999999977644,0.39939999999850784,0.4135999999977642,0.4268999999985077,0.4403999999985082,0.45349999999999824,0.46699999999999875,0.48080000000074463,0.49299999999999855,0.5058000000007432,0.518300000000746,0.532599999997764,0.545699999999254,0.559000000000001,0.5715999999977655,0.5850000000000009,0.5983999999985095,0.6140999999977659,0.6259999999999977,0.6385999999977656,0.6533000000007441,0.6653000000007445,0.6784999999999997,0.6948000000007433,0.7051999999992553,0.7195,0.7315999999977656,0.7460999999977638,0.7583000000007445,0.7726999999992543,0.7851999999992536,0.7998000000007437,0.8115999999977639,0.8258000000007435,0.8393999999985091,0.8528999999985096,0.8651999999992555,0.8803000000007444,0.8934999999999995]",4,0,4,0,1,0.186,,,,
test,2024-09-02_18h05.33.651,GoFitts,2023.2.3,Win32,74.62686567,"[181.36079701683207,0]","[-177.39762846918504,-37.70702995582595]",28,362.721594,4.75,0,0.6122,"[190,190,190,189,187,181,172,161,145,125,103,79,61,37,15,-2,-15,-29,-39,-49,-57,-67,-76,-89,-98,-107,-115,-123,-132,-137,-141,-145,-148,-151,-153,-154,-155,-156,-157,-159,-161,-163,-165,-166,-167,-168,-169,-170,-171,-171,-172,-172,-172,-172,-172,-172,-172,-172,-172,-172,-172,-172,-172,-172,-172,-172,-172,-172,-172,-172,-172,-172,-172,-172,-172,-172,-172,-172,-172,-172,-172,-172,-172,-172,-172]","[-2,-2,-2,-2,-2,-2,-2,-2,-2,-2,-3,-4,-4,-5,-6,-6,-6,-7,-8,-8,-8,-9,-9,-9,-10,-10,-11,-12,-12,-13,-14,-15,-16,-17,-18,-18,-19,-20,-21,-22,-23,-24,-25,-26,-26,-27,-27,-28,-29,-29,-29,-29,-29,-29,-29,-29,-29,-29,-29,-29,-29,-29,-29,-29,-29,-29,-29,-29,-29,-29,-29,-29,-29,-29,-29,-29,-29,-29,-29,-29,-29,-29,-29,-29,-29]","[0,0,0,0,0,0,0,0,0,0,0,0,0,0,0,0,0,0,0,0,0,0,0,0,0,0,0,0,0,0,0,0,0,0,0,0,0,0,0,0,0,0,0,0,0,0,0,0,0,0,0,0,0,0,0,0,0,0,0,0,0,0,0,0,0,0,0,0,0,0,0,0,0,0,0,0,0,0,0,0,0,0,0,0,0]","[0,0,0,0,0,0,0,0,0,0,0,0,0,0,0,0,0,0,0,0,0,0,0,0,0,0,0,0,0,0,0,0,0,0,0,0,0,0,0,0,0,0,0,0,0,0,0,0,0,0,0,0,0,0,0,0,0,0,0,0,0,0,0,0,0,0,0,0,0,0,0,0,0,0,0,0,0,0,0,0,0,0,0,0,0]","[0,0,0,0,0,0,0,0,0,0,0,0,0,0,0,0,0,0,0,0,0,0,0,0,0,0,0,0,0,0,0,0,0,0,0,0,0,0,0,0,0,0,0,0,0,0,0,0,0,0,0,0,0,0,0,0,0,0,0,0,0,0,0,0,0,0,0,0,0,0,0,0,0,0,0,0,0,0,0,0,0,0,0,0,0]","[0,0.01180000000074699,0.02439999999851139,0.0385999999977642,0.05209999999776471,0.06519999999925474,0.07980000000074483,0.0920000000000023,0.10539999999851091,0.11980000000074753,0.13289999999851076,0.146800000000745,0.15850000000000009,0.1720999999977657,0.18619999999925696,0.19969999999925747,0.2118999999985114,0.2261999999992561,0.2395999999977647,0.2533999999985106,0.26530000000074594,0.27969999999925577,0.2918999999985097,0.30609999999776605,0.31939999999850954,0.3326999999992566,0.34550000000000125,0.35889999999850986,0.3731999999992546,0.38539999999851204,0.3976999999992543,0.4120000000000026,0.4253000000007461,0.44119999999925597,0.45200000000000173,0.46459999999776613,0.4790999999977643,0.4920000000000009,0.5043000000007467,0.5185999999977646,0.532,0.5463000000007447,0.5598999999985104,0.5731999999992574,0.5854999999999997,0.5995000000000026,0.6121999999992553,0.6255000000000024,0.638899999998511,0.6530000000000022,0.664399999998512,0.6795000000000009,0.6910999999977641,0.7045999999977646,0.7178999999985116,0.7315000000000005,0.7455999999977649,0.7585999999977666,0.7735000000000021,0.7865999999977653,0.7978999999985099,0.8125,0.8268000000007447,0.8388000000007452,0.8510999999977642,0.8660999999977648,0.8795999999977653,0.8920999999977646,0.9055,0.9176999999992574,0.931099999997766,0.9445000000000014,0.959300000000745,0.9710999999977652,0.9860000000000007,0.9978000000007476,1.0130999999977668,1.0253999999985126,1.0385999999977642,1.0518000000007461,1.0665000000000013,1.079399999998511,1.0911999999992545,1.105399999998511,1.1183999999985126]",5,0,5,0,1,0.092,,,,
test,2024-09-02_18h05.33.651,GoFitts,2023.2.3,Win32,74.62686567,"[-177.39762846918504,-37.70702995582595]","[165.68133230916868,73.76608176417787]",28,362.721594,4.75,0,0.4268,"[-172,-172,-172,-171,-169,-164,-153,-131,-107,-76,-44,-12,17,40,63,79,94,104,113,117,122,127,132,137,142,146,151,154,154,155,155,156,157,158,159,161,162,162,163,163,163,163,163,163,163,163,163,163,163,163,163,163,163,163,163,163,163,163,163,163,163,163,163,163,163,163,163,163,163,163,163]","[-29,-29,-29,-29,-29,-28,-23,-15,-7,3,12,20,27,31,35,39,42,44,46,47,49,51,53,55,57,58,60,61,62,62,62,63,64,65,66,67,67,68,69,69,69,69,69,69,69,69,69,69,69,69,69,69,69,69,69,69,69,69,69,69,69,69,69,69,69,69,69,69,69,69,69]","[0,0,0,0,0,0,0,0,0,0,0,0,0,0,0,0,0,0,0,0,0,0,0,0,0,0,0,0,0,0,0,0,0,0,0,0,0,0,0,0,0,0,0,0,0,0,0,0,0,0,0,0,0,0,0,0,0,0,0,0,0,0,0,0,0,0,0,0,0,0,0]","[0,0,0,0,0,0,0,0,0,0,0,0,0,0,0,0,0,0,0,0,0,0,0,0,0,0,0,0,0,0,0,0,0,0,0,0,0,0,0,0,0,0,0,0,0,0,0,0,0,0,0,0,0,0,0,0,0,0,0,0,0,0,0,0,0,0,0,0,0,0,0]","[0,0,0,0,0,0,0,0,0,0,0,0,0,0,0,0,0,0,0,0,0,0,0,0,0,0,0,0,0,0,0,0,0,0,0,0,0,0,0,0,0,0,0,0,0,0,0,0,0,0,0,0,0,0,0,0,0,0,0,0,0,0,0,0,0,0,0,0,0,0,0]","[0,0.013300000000747048,0.025500000000000966,0.04030000000074807,0.052600000001490343,0.06739999999851065,0.08000000000000185,0.09469999999925705,0.10760000000149006,0.12089999999851031,0.13360000000148986,0.1481000000014916,0.16110000000149327,0.1733000000007472,0.1876000000014919,0.2001000000014912,0.21339999999851145,0.22669999999925494,0.24030000000074736,0.2533999999985106,0.26660000000149253,0.28080000000074534,0.29360000000149,0.30689999999851025,0.31989999999851193,0.33339999999851244,0.3473999999985118,0.3608999999985123,0.3733000000007465,0.3876000000014912,0.40050000000000097,0.413800000000748,0.42680000000074614,0.4401000000014932,0.45460000000149137,0.46669999999925693,0.4800000000000004,0.4946999999992556,0.5080000000000027,0.5213999999985113,0.5338000000007455,0.5481000000014902,0.559000000000001,0.5725000000000016,0.5865000000000009,0.6006000000014922,0.6125000000000007,0.6258000000007478,0.6401000000014925,0.653600000001493,0.665699999999255,0.6791000000014904,0.6938999999985107,0.7056000000014926,0.7191000000014931,0.7341000000014901,0.7476999999992557,0.7593000000007457,0.7740000000000009,0.7858000000007479,0.8020000000000032,0.8133000000007478,0.8256999999992551,0.8388999999985103,0.8541999999992562,0.8656999999992578,0.8811000000014921,0.8923000000007448,0.9066999999992582,0.9196000000014912,0.9323999999985126]",6,0,6,0,1,0.0673,,,,
test,2024-09-02_18h05.33.651,GoFitts,2023.2.3,Win32,74.62686567,"[165.68133230916868,73.76608176417787]","[-146.72396690000244,-106.60120183050263]",28,362.721594,4.75,0,0.5385,"[163,163,163,163,163,160,154,140,119,90,51,19,-7,-54,-81,-99,-108,-115,-120,-123,-125,-129,-133,-138,-141,-146,-149,-152,-155,-157,-158,-158,-159,-159,-159,-159,-159,-159,-159,-159,-157,-156,-155,-154,-154,-154,-154,-154,-154,-154,-154,-154,-154,-154,-154,-154,-154,-154,-154,-154,-154,-154,-154,-154,-154,-154,-154,-154,-154,-154,-154,-154,-154,-154,-154,-154,-153,-151,-147]","[69,69,69,69,69,67,63,56,46,31,11,-4,-16,-36,-46,-52,-55,-58,-60,-62,-64,-66,-69,-72,-74,-78,-81,-84,-87,-90,-93,-94,-95,-96,-97,-98,-98,-98,-98,-98,-98,-98,-98,-99,-99,-99,-99,-99,-99,-99,-99,-99,-99,-99,-99,-99,-99,-99,-99,-99,-99,-99,-99,-99,-99,-99,-99,-99,-99,-99,-99,-99,-99,-99,-99,-99,-99,-99,-95]","[0,0,0,0,0,0,0,0,0,0,0,0,0,0,0,0,0,0,0,0,0,0,0,0,0,0,0,0,0,0,0,0,0,0,0,0,0,0,0,0,0,0,0,0,0,0,0,0,0,0,0,0,0,0,0,0,0,0,0,0,0,0,0,0,0,0,0,0,0,0,0,0,0,0,0,0,0,0,0]","[0,0,0,0,0,0,0,0,0,0,0,0,0,0,0,0,0,0,0,0,0,0,0,0,0,0,0,0,0,0,0,0,0,0,0,0,0,0,0,0,0,0,0,0,0,0,0,0,0,0,0,0,0,0,0,0,0,0,0,0,0,0,0,0,0,0,0,0,0,0,0,0,0,0,0,0,0,0,0]","[0,0,0,0,0,0,0,0,0,0,0,0,0,0,0,0,0,0,0,0,0,0,0,0,0,0,0,0,0,0,0,0,0,0,0,0,0,0,0,0,0,0,0,0,0,0,0,0,0,0,0,0,0,0,0,0,0,0,0,0,0,0,0,0,0,0,0,0,0,0,0,0,0,0,0,0,0,0,0]","[0,0.013399999998512158,0.02680000000074756,0.03950000000000031,0.05450000000000088,0.0660000000000025,0.08130000000074844,0.09460000000149194,0.10710000000149122,0.12039999999851148,0.13439999999851082,0.1461000000014927,0.16130000000074673,0.17400000000000304,0.18769999999925702,0.20130000000074588,0.21380000000074517,0.22710000000149222,0.24110000000149157,0.2543000000007467,0.26830000000074605,0.2818999999985117,0.29389999999851213,0.30819999999925685,0.32050000000000267,0.3348000000007474,0.3470000000000013,0.36019999999925645,0.37360000000149185,0.38710000000149236,0.4003999999985126,0.4148999999985108,0.4271000000014915,0.44039999999851176,0.4526999999992576,0.4686999999992558,0.48230000000074824,0.49439999999851025,0.5071999999992549,0.5203000000007485,0.5385000000000026,0.5481000000014902,0.5598999999985104,0.5730000000000004,0.5858999999985102,0.5995000000000026,0.614800000000745,0.6261999999992582,0.640500000000003,0.6528000000007452,0.6671000000014935,0.6813999999985114,0.692899999998513,0.7061000000014914,0.719699999999257,0.7328999999985122,0.7461999999992557,0.7600000000000016,0.7728000000007462,0.7863000000007467,0.8013999999985124,0.8128000000007454,0.8263000000007459,0.8396000000014929,0.852600000001491,0.866300000000745,0.8816999999992561,0.8935000000000031,0.9061999999992558,0.9211999999992564,0.9343999999985115,0.946199999999255,0.9606000000014916,0.9728000000007455,0.9861000000014926,0.9996999999992582,1.0131999999992551,1.027199999999258,1.0396000000014922]",7,0,7,0,1,0.0813,,,,
test,2024-09-02_18h05.33.651,GoFitts,2023.2.3,Win32,74.62686567,"[-146.72396690000244,-106.60120183050263]","[121.35406007759865,134.7773378475148]",28,362.721594,4.75,0,0.2543,"[-147,-131,-109,-91,-50,-17,20,43,67,84,93,102,107,110,111,113,114,117,118,121,124,126,127,128,128,128,128,128,128,128,128,128,128,128,128,128,128,128,128,128,128,128,128,128,128,128,128,128,128,128,128,128,128,128,128,128,128,128]","[-95,-81,-63,-50,-19,7,35,52,69,81,87,94,99,103,106,107,110,114,117,121,124,127,129,131,132,132,132,132,132,132,132,132,132,132,132,132,132,132,132,132,132,132,132,132,132,132,132,132,132,132,132,132,132,132,132,132,132,132]","[0,0,0,0,0,0,0,0,0,0,0,0,0,0,0,0,0,0,0,0,0,0,0,0,0,0,0,0,0,0,0,0,0,0,0,0,0,0,0,0,0,0,0,0,0,0,0,0,0,0,0,0,0,0,0,0,0,0]","[0,0,0,0,0,0,0,0,0,0,0,0,0,0,0,0,0,0,0,0,0,0,0,0,0,0,0,0,0,0,0,0,0,0,0,0,0,0,0,0,0,0,0,0,0,0,0,0,0,0,0,0,0,0,0,0,0,0]","[0,0,0,0,0,0,0,0,0,0,0,0,0,0,0,0,0,0,0,0,0,0,0,0,0,0,0,0,0,0,0,0,0,0,0,0,0,0,0,0,0,0,0,0,0,0,0,0,0,0,0,0,0,0,0,0,0,0]","[0,0.013900000002237789,0.0274000000022383,0.03950000000000031,0.052000000000003155,0.06640000000223623,0.08080000000074605,0.09290000000223841,0.10650000000000048,0.12019999999925801,0.13450000000000273,0.1481000000014916,0.1614000000022351,0.1791000000014904,0.1888000000007466,0.20000000000000284,0.21390000000223708,0.22790000000223642,0.23980000000074497,0.2543000000007467,0.2676999999992553,0.2786999999992581,0.2928000000007458,0.3071999999992556,0.3196999999992549,0.3326999999992566,0.34740000000223503,0.36090000000223554,0.3718000000007464,0.3855000000000004,0.402000000000001,0.4136999999992561,0.4253000000007461,0.43940000000223733,0.4519000000022366,0.46540000000223714,0.4795000000000016,0.4920000000000009,0.5074000000022352,0.5186999999992565,0.5341000000014908,0.5453000000007471,0.5586999999992557,0.5730000000000004,0.5855000000000032,0.599699999999256,0.6121000000014902,0.6264000000022385,0.640500000000003,0.6519000000022359,0.6659000000022353,0.6806999999992556,0.6921999999992572,0.7066000000014903,0.7194000000022385,0.7321000000014912,0.7460000000000022,0.7588000000007469]",8,0,8,0,1,0.0139,,,,
test,2024-09-02_18h05.33.651,GoFitts,2023.2.3,Win32,74.62686567,"[121.35406007759865,134.7773378475148]","[-90.68039850841612,-157.06305746716956]",28,362.721594,4.75,0,0.495,"[128,128,128,128,128,127,124,120,112,104,93,80,65,47,31,15,-1,-16,-30,-42,-51,-59,-66,-71,-75,-78,-81,-84,-86,-88,-90,-91,-93,-94,-95,-96,-97,-97,-97,-97,-97,-97,-97,-97,-97,-97,-97,-97,-97,-97,-97,-97,-97,-97,-97,-97,-97,-97,-97,-97,-97,-97,-97,-97,-97,-97,-97,-97,-97,-97,-97,-97,-97,-97,-97,-97]","[132,132,132,132,132,130,125,117,106,93,78,60,43,25,9,-6,-22,-36,-50,-62,-72,-81,-88,-95,-101,-106,-111,-117,-121,-125,-128,-131,-134,-137,-139,-142,-143,-145,-146,-147,-148,-148,-148,-148,-148,-148,-148,-148,-148,-148,-148,-148,-148,-148,-148,-148,-148,-148,-148,-148,-148,-148,-148,-148,-148,-149,-149,-149,-149,-149,-149,-149,-149,-149,-149,-149]","[0,0,0,0,0,0,0,0,0,0,0,0,0,0,0,0,0,0,0,0,0,0,0,0,0,0,0,0,0,0,0,0,0,0,0,0,0,0,0,0,0,0,0,0,0,0,0,0,0,0,0,0,0,0,0,0,0,0,0,0,0,0,0,0,0,0,0,0,0,0,0,0,0,0,0,0]","[0,0,0,0,0,0,0,0,0,0,0,0,0,0,0,0,0,0,0,0,0,0,0,0,0,0,0,0,0,0,0,0,0,0,0,0,0,0,0,0,0,0,0,0,0,0,0,0,0,0,0,0,0,0,0,0,0,0,0,0,0,0,0,0,0,0,0,0,0,0,0,0,0,0,0,0]","[0,0,0,0,0,0,0,0,0,0,0,0,0,0,0,0,0,0,0,0,0,0,0,0,0,0,0,0,0,0,0,0,0,0,0,0,0,0,0,0,0,0,0,0,0,0,0,0,0,0,0,0,0,0,0,0,0,0,0,0,0,0,0,0,0,0,0,0,0,0,0,0,0,0,0,0]","[0,0.013299999997020251,0.02679999999701721,0.039399999998508406,0.054399999998508974,0.06609999999776406,0.08039999999850878,0.09399999999999764,0.10709999999776443,0.12129999999701724,0.13409999999776545,0.14739999999850895,0.16029999999701872,0.17469999999925534,0.18689999999850926,0.20109999999776562,0.2142999999970172,0.2276999999992526,0.24009999999776355,0.2542999999970199,0.2667999999970192,0.28159999999776275,0.29419999999925395,0.30759999999776255,0.32109999999776306,0.33359999999776235,0.3466999999992524,0.36100000000000065,0.37349999999999994,0.3875999999977644,0.40039999999850906,0.4143999999985084,0.4270999999977647,0.4414999999999978,0.45349999999999824,0.46789999999850806,0.4806999999992527,0.49499999999999744,0.508499999999998,0.5192999999970205,0.5326999999992559,0.5472999999970192,0.559399999998508,0.5740999999977632,0.5857999999970183,0.6003999999985083,0.6125000000000007,0.6268999999985105,0.6393999999985098,0.6531999999992557,0.6663999999985073,0.6817999999970183,0.6926999999992525,0.7070999999977623,0.7193999999985081,0.7335999999977645,0.7461999999992557,0.7603999999985085,0.7726999999992543,0.7874999999999979,0.8009999999999984,0.8126999999992535,0.8277999999970191,0.8409999999999975,0.8526999999992526,0.8667999999970206,0.8801999999992525,0.8947999999970193,0.9065999999977628,0.9213999999985099,0.9327999999970196,0.946199999999255,0.9595999999977636,0.9734999999999978,0.9877999999970193,0.9995999999977627]",9,0,9,0,1,0.094,,,,
test,2024-09-02_18h05.33.651,GoFitts,2023.2.3,Win32,74.62686567,"[-90.68039850841612,-157.06305746716956]","[56.04356839158638,172.48436780334077]",28,362.721594,4.75,0,0.4,"[-97,-97,-97,-97,-94,-91,-84,-75,-64,-53,-38,-27,-18,-10,-1,4,8,11,14,16,18,21,24,27,31,34,36,38,41,42,45,47,49,51,53,53,54,54,54,54,54,54,54,54,54,54,54,54,54,54,54,54,54,54,54,54,54,54,54,54,54,54,54,54,54,54,54,54,54]","[-149,-149,-149,-148,-141,-131,-113,-88,-56,-24,20,54,79,100,117,127,134,139,143,146,149,152,155,158,161,163,164,165,166,167,167,168,169,170,171,172,172,172,172,172,172,172,172,172,172,172,172,172,172,172,172,172,172,172,172,172,172,172,172,172,172,172,172,172,172,172,172,172,172]","[0,0,0,0,0,0,0,0,0,0,0,0,0,0,0,0,0,0,0,0,0,0,0,0,0,0,0,0,0,0,0,0,0,0,0,0,0,0,0,0,0,0,0,0,0,0,0,0,0,0,0,0,0,0,0,0,0,0,0,0,0,0,0,0,0,0,0,0,0]","[0,0,0,0,0,0,0,0,0,0,0,0,0,0,0,0,0,0,0,0,0,0,0,0,0,0,0,0,0,0,0,0,0,0,0,0,0,0,0,0,0,0,0,0,0,0,0,0,0,0,0,0,0,0,0,0,0,0,0,0,0,0,0,0,0,0,0,0,0]","[0,0,0,0,0,0,0,0,0,0,0,0,0,0,0,0,0,0,0,0,0,0,0,0,0,0,0,0,0,0,0,0,0,0,0,0,0,0,0,0,0,0,0,0,0,0,0,0,0,0,0,0,0,0,0,0,0,0,0,0,0,0,0,0,0,0,0,0,0]","[0,0.012900000002236567,0.026499999999998636,0.03999999999999915,0.054300000000743864,0.0667000000029816,0.07990000000223674,0.0934999999999988,0.10760000000149006,0.1208000000007452,0.1342000000029806,0.1477000000029811,0.15980000000074668,0.1733000000007472,0.1874000000022349,0.1999999999999993,0.21410000000149054,0.22730000000074568,0.24070000000298108,0.2541000000014897,0.266600000001489,0.279700000002979,0.29420000000298074,0.30670000000298003,0.32110000000148986,0.3342000000029799,0.3466000000014908,0.3608000000007472,0.37310000000148946,0.38690000000223534,0.40000000000000213,0.413400000002234,0.4279000000022357,0.44099999999999895,0.45380000000074716,0.4666000000014918,0.48100000000000165,0.4924999999999997,0.5071000000014898,0.5209000000022357,0.5331000000014896,0.5455000000000005,0.5592000000029813,0.5732000000029807,0.5856000000014916,0.6009999999999991,0.6123000000007437,0.6262000000029815,0.6389999999999993,0.6544000000022372,0.6657000000029818,0.6806000000014905,0.6922000000029804,0.7070000000000007,0.7204000000022361,0.7323000000007447,0.7457000000029801,0.7598000000007445,0.7724000000022357,0.7864000000022351,0.7999000000022356,0.8123000000007465,0.8278000000007459,0.8428000000007465,0.8533000000007469,0.8656000000014892,0.8807000000029817,0.893100000001489,0.9059000000022372]",10,0,10,0,1,0.0543,,,,
test,2024-09-02_18h05.33.651,GoFitts,2023.2.3,Win32,74.62686567,"[56.04356839158638,172.48436780334077]","[-18.957365409166425,-180.36728359468052]",28,362.721594,4.75,0,0.3201,"[54,54,54,54,53,51,47,44,38,31,26,20,15,11,6,4,1,-2,-3,-5,-6,-7,-9,-10,-11,-12,-13,-14,-15,-15,-16,-16,-17,-17,-17,-17,-17,-17,-17,-17,-17,-17,-17,-17,-17,-17,-17,-17,-17,-17,-17,-17,-17,-17,-17,-17,-17,-17,-17,-17,-17,-17,-17]","[172,172,172,171,168,160,148,134,111,81,53,18,-13,-37,-63,-78,-96,-110,-121,-134,-144,-152,-158,-164,-169,-173,-177,-180,-181,-183,-184,-184,-184,-185,-185,-185,-185,-185,-185,-185,-185,-185,-185,-185,-185,-185,-185,-185,-185,-185,-185,-185,-185,-185,-185,-185,-185,-185,-185,-185,-185,-185,-185]","[0,0,0,0,0,0,0,0,0,0,0,0,0,0,0,0,0,0,0,0,0,0,0,0,0,0,0,0,0,0,0,0,0,0,0,0,0,0,0,0,0,0,0,0,0,0,0,0,0,0,0,0,0,0,0,0,0,0,0,0,0,0,0]","[0,0,0,0,0,0,0,0,0,0,0,0,0,0,0,0,0,0,0,0,0,0,0,0,0,0,0,0,0,0,0,0,0,0,0,0,0,0,0,0,0,0,0,0,0,0,0,0,0,0,0,0,0,0,0,0,0,0,0,0,0,0,0]","[0,0,0,0,0,0,0,0,0,0,0,0,0,0,0,0,0,0,0,0,0,0,0,0,0,0,0,0,0,0,0,0,0,0,0,0,0,0,0,0,0,0,0,0,0,0,0,0,0,0,0,0,0,0,0,0,0,0,0,0,0,0,0]","[0,0.013599999997765622,0.025599999997762524,0.04109999999776548,0.05319999999925429,0.0665999999977629,0.08089999999850761,0.09319999999925344,0.10669999999925395,0.11989999999850909,0.13389999999850843,0.14659999999776474,0.16079999999701755,0.1732999999970204,0.18729999999701974,0.19969999999925392,0.21409999999776375,0.2270000000000003,0.23989999999851008,0.2540999999977629,0.26739999999850994,0.2811999999992558,0.29329999999701784,0.30779999999701957,0.3200999999977654,0.3331999999992554,0.3464999999999989,0.3611999999992541,0.3740999999977639,0.3874999999999993,0.3997999999970183,0.4143999999985084,0.425699999999253,0.43889999999850815,0.453299999997018,0.4656999999992557,0.4788999999985073,0.49309999999776366,0.50579999999702,0.51889999999851,0.532599999997764,0.5461999999992528,0.5590999999977626,0.5731999999992539,0.586399999998509,0.5999999999999979,0.6130999999977647,0.6267999999970186,0.6411999999992553,0.652399999998508,0.6671999999992551,0.6809999999999974,0.69479999999702,0.7066999999992554,0.7190999999977628,0.7328999999985086,0.7467999999970196,0.7608999999985073,0.7722999999970206,0.7862999999970199,0.799199999999253,0.8141999999992535,0.8266999999992528]",11,0,11,0,1,0.0808,,,,
test,2024-09-02_18h05.33.651,GoFitts,2023.2.3,Win32,74.62686567,"[-18.957365409166425,-180.36728359468052]","[-18.95736540916626,180.36728359468054]",28,362.721594,4.75,0,0.4386,"[-17,-17,-17,-17,-17,-17,-17,-17,-17,-17,-17,-16,-15,-14,-14,-14,-14,-15,-17,-22,-25,-26,-27,-27,-27,-27,-27,-26,-26,-25,-25,-25,-24,-23,-23,-22,-22,-22,-22,-22,-22,-22,-22,-22,-22,-22,-22,-22,-22,-22,-22,-22,-22,-22,-22,-22,-22,-22,-22,-22,-22,-22,-22,-22,-22,-22,-22,-22,-22,-22,-22,-22]","[-185,-185,-185,-185,-185,-185,-185,-185,-185,-181,-173,-160,-142,-113,-83,-45,-18,19,43,72,95,108,119,129,139,144,151,154,158,160,162,164,167,171,175,177,179,181,182,183,183,183,183,183,183,183,183,183,183,183,183,183,183,183,183,183,183,183,183,183,183,183,183,183,183,183,183,183,183,183,183,183]","[0,0,0,0,0,0,0,0,0,0,0,0,0,0,0,0,0,0,0,0,0,0,0,0,0,0,0,0,0,0,0,0,0,0,0,0,0,0,0,0,0,0,0,0,0,0,0,0,0,0,0,0,0,0,0,0,0,0,0,0,0,0,0,0,0,0,0,0,0,0,0,0]","[0,0,0,0,0,0,0,0,0,0,0,0,0,0,0,0,0,0,0,0,0,0,0,0,0,0,0,0,0,0,0,0,0,0,0,0,0,0,0,0,0,0,0,0,0,0,0,0,0,0,0,0,0,0,0,0,0,0,0,0,0,0,0,0,0,0,0,0,0,0,0,0]","[0,0,0,0,0,0,0,0,0,0,0,0,0,0,0,0,0,0,0,0,0,0,0,0,0,0,0,0,0,0,0,0,0,0,0,0,0,0,0,0,0,0,0,0,0,0,0,0,0,0,0,0,0,0,0,0,0,0,0,0,0,0,0,0,0,0,0,0,0,0,0,0]","[0,0.013699999999253976,0.02509999999776369,0.040699999999255,0.05169999999925423,0.06569999999925358,0.07849999999999824,0.09289999999850806,0.1060999999977632,0.11919999999925324,0.13389999999850843,0.14739999999850895,0.15949999999999775,0.1728000000007448,0.1861999999992534,0.20039999999850977,0.2126999999992556,0.22739999999850724,0.2394999999999996,0.2530999999977652,0.26739999999850994,0.2793999999985104,0.2926999999992539,0.30630000000074276,0.32030000000074565,0.33359999999776235,0.34699999999999775,0.3593000000007436,0.37359999999776505,0.3873999999985074,0.3998999999985102,0.41249999999999787,0.4270999999977647,0.4385999999977628,0.4533999999985099,0.4658999999985092,0.4793000000007446,0.491899999998509,0.5063999999985072,0.5195999999977623,0.5326999999992523,0.5470999999977622,0.5583999999985103,0.5718000000007457,0.5853000000007427,0.6001999999992549,0.61189999999851,0.625599999997764,0.6404999999999994,0.6519999999999975,0.6653999999985096,0.6783999999985078,0.6918999999985083,0.7069999999999972,0.7184999999999988,0.7328999999985086,0.746899999998508,0.7583999999985096,0.771800000000745,0.786999999999999,0.7985000000000007,0.8128999999985105,0.8273999999985087,0.8386999999992533,0.8518999999985084,0.8655999999977624,0.8789999999999978,0.8926999999992553,0.9058999999985105,0.9188000000007435,0.9325999999977626,0.9451999999992537]",12,0,12,0,1,0.1474,,,,
test,2024-09-02_18h05.33.651,GoFitts,2023.2.3,Win32,74.62686567,"[-18.95736540916626,180.36728359468054]","[56.04356839158634,-172.4843678033408]",28,362.721594,4.75,0,0.4949,"[-22,-22,-22,-22,-22,-22,-22,-22,-22,-21,-19,-17,-14,-9,-5,0,5,11,15,21,24,28,30,32,33,36,37,37,39,39,40,40,41,41,42,43,43,44,45,45,46,46,47,48,48,48,49,49,49,49,49,49,49,49,49,49,49,49,49,49,49,49,49,49,49,49,49,49,49,49,49,49,49,49,49,49]","[183,183,183,183,182,181,178,173,168,157,147,129,107,82,57,30,3,-26,-47,-70,-84,-101,-112,-120,-128,-135,-141,-146,-150,-154,-157,-160,-162,-163,-164,-165,-165,-166,-166,-166,-167,-167,-168,-169,-169,-169,-170,-170,-170,-170,-170,-170,-170,-170,-170,-170,-170,-170,-170,-170,-170,-170,-170,-170,-170,-170,-170,-170,-170,-170,-170,-170,-170,-170,-170,-170]","[0,0,0,0,0,0,0,0,0,0,0,0,0,0,0,0,0,0,0,0,0,0,0,0,0,0,0,0,0,0,0,0,0,0,0,0,0,0,0,0,0,0,0,0,0,0,0,0,0,0,0,0,0,0,0,0,0,0,0,0,0,0,0,0,0,0,0,0,0,0,0,0,0,0,0,0]","[0,0,0,0,0,0,0,0,0,0,0,0,0,0,0,0,0,0,0,0,0,0,0,0,0,0,0,0,0,0,0,0,0,0,0,0,0,0,0,0,0,0,0,0,0,0,0,0,0,0,0,0,0,0,0,0,0,0,0,0,0,0,0,0,0,0,0,0,0,0,0,0,0,0,0,0]","[0,0,0,0,0,0,0,0,0,0,0,0,0,0,0,0,0,0,0,0,0,0,0,0,0,0,0,0,0,0,0,0,0,0,0,0,0,0,0,0,0,0,0,0,0,0,0,0,0,0,0,0,0,0,0,0,0,0,0,0,0,0,0,0,0,0,0,0,0,0,0,0,0,0,0,0]","[0,0.014500000000001734,0.026199999999256818,0.042199999999255056,0.05280000000074736,0.06710000000149208,0.0806999999992577,0.09430000000074656,0.10610000000149,0.12160000000149296,0.133899999998512,0.14700000000000202,0.16169999999925722,0.17450000000000188,0.18700000000000117,0.20050000000000168,0.21389999999851028,0.22800000000000153,0.24039999999851247,0.25500000000000256,0.26710000000149137,0.28169999999925466,0.2948000000007447,0.30799999999999983,0.32030000000074565,0.3338999999985113,0.34800000000000253,0.3606000000014902,0.3751000000014919,0.3868999999985121,0.4001999999992556,0.41439999999851196,0.4293999999985125,0.44130000000074787,0.45480000000074483,0.46839999999851045,0.4803000000007458,0.49489999999851264,0.5070000000000014,0.5198000000007461,0.5336999999992571,0.5481000000014902,0.5618000000007477,0.5746999999992575,0.5858999999985102,0.5995000000000026,0.615000000000002,0.6260000000000012,0.6396000000014901,0.6528999999985103,0.6661999999992574,0.6796000000014928,0.6928999999985095,0.7061999999992565,0.7206999999992547,0.7338999999985099,0.7469999999999999,0.7616999999992551,0.7748000000007451,0.7861000000014897,0.8013999999985124,0.8130000000000024,0.8271000000014901,0.8396000000014929,0.8528999999985096,0.8661000000014916,0.8796999999992572,0.8941000000014903,0.9061000000014907,0.9226000000014913,0.9336000000014906,0.946199999999255,0.9593999999985101,0.9730000000000025,0.9876000000014926,0.9998000000007465]",13,0,13,0,1,0.1215,,,,
test,2024-09-02_18h05.33.651,GoFitts,2023.2.3,Win32,74.62686567,"[56.04356839158634,-172.4843678033408]","[-90.68039850841599,157.0630574671696]",28,362.721594,4.75,0,0.5072,"[49,49,49,49,49,49,49,49,49,49,49,49,47,43,35,27,17,7,-5,-18,-30,-40,-48,-53,-57,-61,-64,-68,-70,-72,-74,-75,-76,-77,-79,-80,-81,-82,-84,-84,-85,-87,-88,-88,-89,-89,-89,-89,-89,-89,-89,-89,-89,-89,-89,-89,-89,-89,-89,-89,-89,-89,-89,-89,-89,-89,-89,-89,-89,-89,-89,-89,-89,-89,-89,-89,-89]","[-170,-170,-170,-170,-170,-170,-170,-170,-170,-170,-168,-162,-150,-132,-109,-87,-64,-40,-14,14,40,61,75,85,94,101,108,116,120,125,129,131,134,136,139,141,143,146,147,150,151,153,154,156,157,158,158,158,158,158,158,158,158,158,158,158,158,158,158,158,158,158,158,158,158,158,158,158,158,158,158,158,158,158,158,158,158]","[0,0,0,0,0,0,0,0,0,0,0,0,0,0,0,0,0,0,0,0,0,0,0,0,0,0,0,0,0,0,0,0,0,0,0,0,0,0,0,0,0,0,0,0,0,0,0,0,0,0,0,0,0,0,0,0,0,0,0,0,0,0,0,0,0,0,0,0,0,0,0,0,0,0,0,0,0]","[0,0,0,0,0,0,0,0,0,0,0,0,0,0,0,0,0,0,0,0,0,0,0,0,0,0,0,0,0,0,0,0,0,0,0,0,0,0,0,0,0,0,0,0,0,0,0,0,0,0,0,0,0,0,0,0,0,0,0,0,0,0,0,0,0,0,0,0,0,0,0,0,0,0,0,0,0]","[0,0,0,0,0,0,0,0,0,0,0,0,0,0,0,0,0,0,0,0,0,0,0,0,0,0,0,0,0,0,0,0,0,0,0,0,0,0,0,0,0,0,0,0,0,0,0,0,0,0,0,0,0,0,0,0,0,0,0,0,0,0,0,0,0,0,0,0,0,0,0,0,0,0,0,0,0]","[0,0.01310000000149003,0.025700000002981227,0.03950000000000031,0.05430000000074742,0.06580000000074548,0.079300000000746,0.09250000000000114,0.10590000000223654,0.12130000000074403,0.13240000000223517,0.14580000000074733,0.16000000000000014,0.17320000000298208,0.1874000000022349,0.19990000000223418,0.21330000000074634,0.22710000000149222,0.240000000000002,0.2533000000007455,0.26660000000149253,0.28160000000148955,0.2940000000000005,0.3066000000014917,0.31899999999999906,0.3342000000029799,0.3467000000029792,0.3608000000007472,0.37340000000223483,0.3865000000000016,0.4015000000000022,0.41340000000223753,0.42650000000000077,0.44010000000148963,0.45449999999999946,0.4666000000014918,0.4799000000022353,0.49440000000223705,0.5072000000029817,0.5199999999999996,0.5325000000000024,0.5476000000014913,0.5606000000014895,0.5752000000029796,0.5869000000022346,0.6003000000007468,0.6143000000007461,0.6255000000000024,0.6401000000014925,0.6524000000022347,0.6656000000014899,0.679000000000002,0.6933000000007468,0.705800000000746,0.7205000000000013,0.734800000000746,0.7457000000029801,0.7590000000000003,0.7722000000029823,0.7868000000007456,0.8009000000022368,0.8135000000000012,0.8259000000022354,0.8394000000022359,0.854800000000747,0.8658000000007462,0.8794000000022351,0.8923000000007448,0.9059000000022372,0.9204000000022354,0.9332000000029801,0.9480000000000004,0.9594000000022369,0.9725000000000001,0.9858000000007472,0.9992000000029826,1.013300000000747]",14,0,14,0,1,0.1599,,,,
test,2024-09-02_18h05.33.651,GoFitts,2023.2.3,Win32,74.62686567,,,,,,0,,,,,,,,,,,,,,0,0,0,1
test,2024-09-02_18h05.33.651,GoFitts,2023.2.3,Win32,74.62686567,"[46,-28]","[266.6746190470553,-296.17216930096686]",128,797.0779292,3.75,1,0.4637,"[46,46,46,46,46,46,46,46,46,46,46,46,46,46,46,46,46,46,46,46,46,46,46,51,62,86,111,136,162,181,197,205,205,229,232,234,236,238,240,243,245,248,250,251,252,253,253,253,253,253,253,253,253,253,253,253,253,253,253,253,253,253,253,253,253,253,253,253,253,253,253,253,253,253]","[-28,-28,-28,-28,-28,-28,-28,-28,-28,-28,-28,-28,-28,-28,-28,-28,-28,-28,-28,-28,-28,-28,-28,-32,-40,-57,-75,-94,-114,-134,-154,-167,-167,-225,-237,-246,-256,-264,-271,-278,-285,-290,-295,-299,-302,-303,-304,-304,-304,-304,-304,-304,-304,-304,-304,-304,-304,-304,-304,-304,-304,-304,-304,-304,-304,-304,-304,-304,-304,-304,-304,-304,-304,-304]","[0,0,0,0,0,0,0,0,0,0,0,0,0,0,0,0,0,0,0,0,0,0,0,0,0,0,0,0,0,0,0,0,0,0,0,0,0,0,0,0,0,0,0,0,0,0,0,0,0,0,0,0,0,0,0,0,0,0,0,0,0,0,0,0,0,0,0,0,0,0,0,0,0,0]","[0,0,0,0,0,0,0,0,0,0,0,0,0,0,0,0,0,0,0,0,0,0,0,0,0,0,0,0,0,0,0,0,0,0,0,0,0,0,0,0,0,0,0,0,0,0,0,0,0,0,0,0,0,0,0,0,0,0,0,0,0,0,0,0,0,0,0,0,0,0,0,0,0,0]","[0,0,0,0,0,0,0,0,0,0,0,0,0,0,0,0,0,0,0,0,0,0,0,0,0,0,0,0,0,0,0,0,0,0,0,0,0,0,0,0,0,0,0,0,0,0,0,0,0,0,0,0,0,0,0,0,0,0,0,0,0,0,0,0,0,0,0,0,0,0,0,0,0,0]","[0,0.011399999998509713,0.022399999998508946,0.03599999999999781,0.050199999999254175,0.06369999999925469,0.07659999999776446,0.08879999999701838,0.10229999999701889,0.11599999999999966,0.1291999999992548,0.1433999999985076,0.15779999999701744,0.16889999999850858,0.18249999999999744,0.19769999999925503,0.2092999999970182,0.22239999999850824,0.23569999999925528,0.2498999999985081,0.26269999999925275,0.2770999999977626,0.28919999999925494,0.3032999999970194,0.3165999999977629,0.3310999999977646,0.34489999999850696,0.35669999999925395,0.3707999999970184,0.3832999999970177,0.3974999999999973,0.41079999999701755,0.4237999999970192,0.4357999999970197,0.45109999999776207,0.46369999999925327,0.4764999999999979,0.49129999999701823,0.5040999999977629,0.5173999999985099,0.5305999999977651,0.5431999999992527,0.5573999999985091,0.570999999999998,0.5844999999999985,0.596599999997764,0.6110999999977622,0.6232999999970197,0.6375999999977644,0.6496999999992532,0.6624999999999979,0.6763999999985089,0.6892999999970186,0.7025999999977621,0.718,0.7288999999985073,0.7443999999985103,0.7556999999992549,0.7706999999992554,0.7831999999992547,0.795699999999254,0.8100999999977638,0.8227999999970201,0.8364999999999974,0.8488999999985083,0.8623999999985088,0.8761999999992547,0.8892999999970179,0.9029999999999987,0.917799999997019,0.9292999999970171,0.9427999999970176,0.9558999999985076,0.9702999999970174]",0,0,0,0,1,0.3033,,,,
test,2024-09-02_18h05.33.651,GoFitts,2023.2.3,Win32,74.62686567,"[266.6746190470553,-296.17216930096686]","[-322.42479529000633,234.25532586161225]",128,797.0779292,3.75,1,0.5067,"[253,253,253,253,253,253,253,253,253,253,253,253,253,253,253,253,251,244,222,198,159,95,32,-20,-79,-134,-164,-188,-203,-210,-213,-215,-217,-219,-222,-227,-235,-245,-260,-276,-291,-300,-307,-309,-311,-311,-311,-311,-311,-311,-311,-311,-311,-311,-311,-311,-311,-311,-311,-311,-311,-311,-311,-311,-311,-311,-311,-311,-311,-311,-311,-311,-311,-311,-311,-311,-311]","[-304,-304,-304,-304,-304,-304,-304,-304,-304,-304,-304,-304,-304,-304,-304,-303,-294,-281,-243,-208,-152,-76,-7,45,100,151,178,197,210,216,219,221,222,224,225,228,232,237,244,251,256,259,260,261,261,261,261,261,261,261,261,261,261,261,261,261,261,261,261,261,261,261,261,261,261,261,261,261,261,261,261,261,261,261,261,261,261]","[0,0,0,0,0,0,0,0,0,0,0,0,0,0,0,0,0,0,0,0,0,0,0,0,0,0,0,0,0,0,0,0,0,0,0,0,0,0,0,0,0,0,0,0,0,0,0,0,0,0,0,0,0,0,0,0,0,0,0,0,0,0,0,0,0,0,0,0,0,0,0,0,0,0,0,0,0]","[0,0,0,0,0,0,0,0,0,0,0,0,0,0,0,0,0,0,0,0,0,0,0,0,0,0,0,0,0,0,0,0,0,0,0,0,0,0,0,0,0,0,0,0,0,0,0,0,0,0,0,0,0,0,0,0,0,0,0,0,0,0,0,0,0,0,0,0,0,0,0,0,0,0,0,0,0]","[0,0,0,0,0,0,0,0,0,0,0,0,0,0,0,0,0,0,0,0,0,0,0,0,0,0,0,0,0,0,0,0,0,0,0,0,0,0,0,0,0,0,0,0,0,0,0,0,0,0,0,0,0,0,0,0,0,0,0,0,0,0,0,0,0,0,0,0,0,0,0,0,0,0,0,0,0]","[0,0.013299999997016698,0.024799999997018318,0.04009999999776426,0.051899999998507695,0.06619999999925241,0.0779999999999994,0.09239999999850923,0.10469999999925506,0.11889999999850787,0.1312999999970188,0.14539999999851005,0.15850000000000009,0.17229999999701917,0.18629999999701852,0.1978999999985085,0.2135999999977649,0.22569999999925372,0.240299999997017,0.2523999999985094,0.26569999999925287,0.2797999999970173,0.29379999999701667,0.3061999999992544,0.31889999999850716,0.33349999999999724,0.3454999999999977,0.35889999999850986,0.3737999999970185,0.38689999999850855,0.3998999999985102,0.41369999999925255,0.425699999999253,0.43979999999701747,0.45349999999999824,0.4667999999970185,0.4793999999985097,0.49229999999701946,0.5066999999992525,0.5196999999992542,0.5332999999970198,0.5466999999992552,0.5597999999970185,0.5722999999970177,0.586399999998509,0.5990999999977618,0.6120999999977634,0.6245999999977627,0.6395999999977633,0.6514999999999986,0.665499999999998,0.6779999999999973,0.6928999999985095,0.7045999999977646,0.7182999999970185,0.7322999999970179,0.7445999999977637,0.7597999999970177,0.7735999999977636,0.7846999999992548,0.7979999999999983,0.814599999997764,0.8263999999985074,0.8378999999985091,0.85179999999702,0.866899999998509,0.8785999999977641,0.8923999999985099,0.9071999999992535,0.9179999999999993,0.9312999999970195,0.9448999999985084,0.9580999999977635,0.971399999998507,0.9854999999999983,0.9996999999992546,1.0115999999977632]",1,0,1,0,1,0.2402,,,,
test,2024-09-02_18h05.33.651,GoFitts,2023.2.3,Win32,74.62686567,"[-322.42479529000633,234.25532586161225]","[364.08346081296116,-162.1004006003366]",128,797.0779292,3.75,1,1.4271,"[-311,-311,-311,-311,-310,-307,-300,-287,-270,-233,-167,-94,-27,71,139,235,304,362,412,435,447,450,450,450,450,450,448,447,445,442,437,429,418,397,379,362,347,341,339,339,339,339,339,339,339,339,339,339,339,339,339,339,339,339,339,339,339,339,339,339,339,339,339,339,339,337,332,320,301,269,219,148,76,-1,-78,-153,-214,-255,-281,-301,-313,-321,-327,-332,-337,-343,-351,-359,-363,-364,-364,-364,-364,-364,-364,-360,-336,-282,-195,-95,0,85,154,207,253,284,301,314,321,324,326,328,329,330,330,331,331,332,332,332,332,332,332,332,332,332,332,332,332,332,332,332,332,332,332,332,332,332,332,332,332,332,332,332,332,332]","[261,261,261,261,261,257,251,240,228,207,174,144,117,78,47,-1,-40,-77,-113,-133,-145,-150,-152,-152,-153,-153,-154,-154,-155,-156,-157,-157,-157,-154,-152,-149,-147,-147,-147,-147,-147,-147,-147,-147,-147,-147,-147,-147,-147,-147,-147,-147,-147,-147,-147,-147,-147,-147,-147,-147,-147,-147,-147,-147,-147,-146,-145,-142,-139,-132,-121,-106,-90,-72,-52,-33,-14,-1,10,19,25,29,32,34,37,39,42,45,46,47,47,47,47,47,47,47,42,32,19,5,-11,-30,-52,-73,-94,-109,-118,-125,-129,-131,-134,-136,-138,-140,-140,-141,-142,-143,-143,-143,-144,-144,-144,-144,-144,-144,-144,-144,-144,-144,-144,-144,-144,-144,-144,-144,-144,-144,-144,-144,-144,-144,-144,-144,-144,-144]","[0,0,0,0,0,0,0,0,0,0,0,0,0,0,0,0,0,0,0,0,0,0,0,0,0,0,0,0,0,0,0,0,0,0,0,0,0,0,0,0,0,0,0,0,0,0,0,0,0,0,0,0,0,0,0,0,0,0,0,0,0,0,0,0,0,0,0,0,0,0,0,0,0,0,0,0,0,0,0,0,0,0,0,0,0,0,0,0,0,0,0,0,0,0,0,0,0,0,0,0,0,0,0,0,0,0,0,0,0,0,0,0,0,0,0,0,0,0,0,0,0,0,0,0,0,0,0,0,0,0,0,0,0,0,0,0,0,0,0,0,0,0,0,0,0,0]","[0,0,0,0,0,0,0,0,0,0,0,0,0,0,0,0,0,0,0,0,0,0,0,0,0,0,0,0,0,0,0,0,0,0,0,0,0,0,0,0,0,0,0,0,0,0,0,0,0,0,0,0,0,0,0,0,0,0,0,0,0,0,0,0,0,0,0,0,0,0,0,0,0,0,0,0,0,0,0,0,0,0,0,0,0,0,0,0,0,0,0,0,0,0,0,0,0,0,0,0,0,0,0,0,0,0,0,0,0,0,0,0,0,0,0,0,0,0,0,0,0,0,0,0,0,0,0,0,0,0,0,0,0,0,0,0,0,0,0,0,0,0,0,0,0,0]","[0,0,0,0,0,0,0,0,0,0,0,0,0,0,0,0,0,0,0,0,0,0,0,0,0,0,0,0,0,0,0,0,0,0,0,0,0,0,0,0,0,0,0,0,0,0,0,0,0,0,0,0,0,0,0,0,0,0,0,0,0,0,0,0,0,0,0,0,0,0,0,0,0,0,0,0,0,0,0,0,0,0,0,0,0,0,0,0,0,0,0,0,0,0,0,0,0,0,0,0,0,0,0,0,0,0,0,0,0,0,0,0,0,0,0,0,0,0,0,0,0,0,0,0,0,0,0,0,0,0,0,0,0,0,0,0,0,0,0,0,0,0,0,0,0,0]","[0,0.014099999997764456,0.025199999999255596,0.040500000000001535,0.05219999999925662,0.06650000000000134,0.08050000000000068,0.09430000000074656,0.10609999999776676,0.11959999999776727,0.13439999999851082,0.1473000000007474,0.15959999999776642,0.17369999999925412,0.18609999999776505,0.20069999999925514,0.21419999999925565,0.22630000000074446,0.2408999999985113,0.2538000000007443,0.2671999999992565,0.28049999999999997,0.29339999999850974,0.30780000000074637,0.3188999999985107,0.33330000000074733,0.3451999999992559,0.35880000000074475,0.3741999999992558,0.386800000000747,0.4003000000007475,0.41380000000074446,0.42650000000000077,0.4405999999977652,0.45280000000074594,0.46630000000074645,0.4803999999985109,0.4928000000007451,0.5063999999985107,0.52039999999851,0.5320999999977651,0.5460999999977645,0.5585999999977673,0.5730000000000004,0.5854999999999997,0.599699999999256,0.613599999997767,0.6268999999985105,0.6385000000000005,0.652000000000001,0.6660999999977655,0.678800000000745,0.6935999999977653,0.7053999999985123,0.7208000000007466,0.7323999999985098,0.7473000000007453,0.758699999999255,0.7720999999977671,0.7860999999977665,0.8005999999977647,0.8138000000007466,0.8253000000007447,0.8385999999977649,0.8521999999992573,0.8655000000000008,0.8798000000007455,0.8936999999992565,0.9063000000007442,0.919399999998511,0.9328999999985115,0.9469999999999992,0.9604999999999997,0.9728000000007455,0.9861999999992541,1.0003999999985105,1.0140999999977645,1.0268999999985091,1.0395999999977654,1.0528999999985125,1.0665999999977664,1.079399999998511,1.094699999999257,1.1073000000007447,1.1195999999977673,1.1331999999992561,1.1461999999992543,1.1605000000000025,1.1736999999992541,1.1863000000007453,1.1998000000007458,1.2145999999977661,1.2303000000007458,1.239800000000745,1.252099999997764,1.265199999999254,1.2795000000000023,1.292399999998512,1.3068000000007451,1.319899999998512,1.33289999999851,1.3463000000007455,1.3595000000000006,1.3730999999977662,1.3873000000007458,1.3993999999985114,1.4130999999977654,1.4270999999977647,1.4408999999985106,1.4529999999999994,1.4675999999977662,1.4793999999985097,1.4940999999977684,1.5073999999985084,1.5193999999985088,1.532,1.5473999999985075,1.5586999999992592,1.5743000000007434,1.5851999999992579,1.5988000000007467,1.6126999999992542,1.625199999999257,1.6388000000007459,1.6530000000000022,1.6660000000000004,1.6785999999977683,1.6933000000007432,1.7070999999977623,1.7188999999985093,1.7328999999985122,1.745399999998508,1.7588000000007433,1.7728000000007462,1.7853999999985142,1.7988000000007425,1.814599999997764,1.8253000000007482,1.8388999999985138,1.8538000000007493,1.8653999999985125,1.8788000000007479,1.8938999999985136,1.9055,1.921000000000003,1.9320999999977637]",2,0,2,0,1,0.1196,,,,
test,2024-09-02_18h05.33.651,GoFitts,2023.2.3,Win32,74.62686567,"[364.08346081296116,-162.1004006003366]","[-389.8299320321106,82.86090998880384]",128,797.0779292,3.75,1,0.2944,"[332,332,332,332,332,332,332,332,332,331,324,304,275,233,178,110,24,-71,-160,-236,-296,-342,-373,-389,-394,-395,-396,-397,-398,-401,-403,-407,-412,-415,-417,-417,-417,-417,-417,-417,-417,-417,-417,-417,-417,-417,-417,-417,-417,-417,-417,-417,-417,-417,-417,-417,-417,-417,-417,-417,-417]","[-144,-144,-144,-144,-144,-144,-144,-144,-144,-144,-141,-135,-126,-115,-100,-82,-61,-36,-14,3,15,27,35,41,45,46,48,49,51,54,56,59,62,65,66,67,67,67,67,67,67,68,68,68,68,68,68,68,68,68,68,68,68,68,68,68,68,68,68,68,68]","[0,0,0,0,0,0,0,0,0,0,0,0,0,0,0,0,0,0,0,0,0,0,0,0,0,0,0,0,0,0,0,0,0,0,0,0,0,0,0,0,0,0,0,0,0,0,0,0,0,0,0,0,0,0,0,0,0,0,0,0,0]","[0,0,0,0,0,0,0,0,0,0,0,0,0,0,0,0,0,0,0,0,0,0,0,0,0,0,0,0,0,0,0,0,0,0,0,0,0,0,0,0,0,0,0,0,0,0,0,0,0,0,0,0,0,0,0,0,0,0,0,0,0]","[0,0,0,0,0,0,0,0,0,0,0,0,0,0,0,0,0,0,0,0,0,0,0,0,0,0,0,0,0,0,0,0,0,0,0,0,0,0,0,0,0,0,0,0,0,0,0,0,0,0,0,0,0,0,0,0,0,0,0,0,0]","[0.00010000000148835397,0.013600000001488866,0.02620000000298006,0.04130000000074574,0.05280000000074381,0.06610000000149086,0.07960000000149137,0.09280000000074295,0.10630000000074347,0.12110000000149057,0.132700000002977,0.1484000000022334,0.1608000000007479,0.1742000000029833,0.18720000000298143,0.20020000000297955,0.21380000000074517,0.22690000000223165,0.24049999999999727,0.2535000000000025,0.2674999999999983,0.2804000000022313,0.2944000000022342,0.30690000000223705,0.3207000000029794,0.334300000000745,0.3478000000007455,0.360900000002232,0.37430000000074415,0.38830000000074705,0.40040000000223586,0.41360000000148744,0.4274000000022369,0.4405000000000001,0.45480000000074483,0.4671000000014871,0.48010000000149233,0.4927000000029764,0.5068000000007444,0.5194000000022356,0.5331000000014896,0.5484999999999971,0.5599000000022372,0.5727000000029818,0.5862000000029823,0.5994000000022339,0.612700000002981,0.6261000000014931,0.6413000000007472,0.6527000000029801,0.6666000000014876,0.6794000000022322,0.6931000000014862,0.7076000000014915,0.7214000000022338,0.7337000000029832,0.7479000000022324,0.7602000000029818,0.7734999999999985,0.7862000000029781,0.8014999999999972]",3,0,3,0,1,0.1484,,,,
test,2024-09-02_18h05.33.651,GoFitts,2023.2.3,Win32,74.62686567,"[-389.8299320321106,82.86090998880384]","[398.5389646099019,0]",128,797.0779292,3.75,1,0.3191,"[-417,-417,-417,-417,-417,-417,-417,-417,-417,-417,-417,-413,-408,-399,-382,-357,-319,-258,-176,-85,35,142,244,331,393,421,433,434,434,434,433,432,432,432,432,431,431,431,431,431,431,431,431,431,431,430,430,430,430,430,430,430,430,430,430,430,430,430,430,430,429,429,429]","[68,68,68,68,68,68,68,68,68,68,68,68,68,68,68,67,66,64,63,61,58,56,52,48,43,40,38,38,37,37,37,37,37,37,37,37,36,36,36,36,36,36,36,36,36,36,36,36,36,36,36,36,36,36,36,36,36,36,36,36,36,36,36]","[0,0,0,0,0,0,0,0,0,0,0,0,0,0,0,0,0,0,0,0,0,0,0,0,0,0,0,0,0,0,0,0,0,0,0,0,0,0,0,0,0,0,0,0,0,0,0,0,0,0,0,0,0,0,0,0,0,0,0,0,0,0,0]","[0,0,0,0,0,0,0,0,0,0,0,0,0,0,0,0,0,0,0,0,0,0,0,0,0,0,0,0,0,0,0,0,0,0,0,0,0,0,0,0,0,0,0,0,0,0,0,0,0,0,0,0,0,0,0,0,0,0,0,0,0,0,0]","[0,0,0,0,0,0,0,0,0,0,0,0,0,0,0,0,0,0,0,0,0,0,0,0,0,0,0,0,0,0,0,0,0,0,0,0,0,0,0,0,0,0,0,0,0,0,0,0,0,0,0,0,0,0,0,0,0,0,0,0,0,0,0]","[0,0.012500000000002842,0.024100000001489263,0.03730000000074796,0.05070000000298336,0.06410000000148841,0.07750000000000057,0.0913000000007429,0.10600000000000165,0.11749999999999972,0.1306000000014933,0.1441000000014867,0.15740000000223375,0.17180000000074358,0.18490000000223716,0.19890000000223296,0.21180000000074273,0.22670000000297819,0.23930000000074614,0.25170000000297676,0.26599999999999824,0.2787000000029778,0.291700000002983,0.3049999999999997,0.31910000000149097,0.33149999999999835,0.34599999999999653,0.3574000000022366,0.37290000000223245,0.3849000000022329,0.39750000000000085,0.41100000000000136,0.4261000000014903,0.4382000000029791,0.45070000000298194,0.46430000000074756,0.4786000000014923,0.49090000000223455,0.5041000000014932,0.5176000000014866,0.5311000000014872,0.5441000000014924,0.558800000000744,0.5715000000000003,0.5851000000014892,0.5982000000029828,0.610900000002232,0.6249000000022349,0.6390000000000029,0.6507000000029777,0.665200000002983,0.6774000000022369,0.6927000000029793,0.704100000001489,0.717400000002236,0.7328000000007435,0.7442000000029836,0.7589000000022352,0.7733000000007451,0.7860000000000014,0.7974000000022343,0.8108000000007465,0.8239999999999981]",4,0,4,0,1,0.2117,,,,
test,2024-09-02_18h05.33.651,GoFitts,2023.2.3,Win32,74.62686567,"[398.5389646099019,0]","[-389.8299320321106,-82.86090998880374]",128,797.0779292,3.75,1,0.4141,"[429,428,427,423,418,408,394,375,341,301,243,170,115,31,-28,-89,-127,-158,-185,-203,-217,-230,-238,-248,-256,-266,-274,-284,-295,-311,-325,-336,-349,-357,-365,-372,-378,-381,-382,-382,-382,-383,-383,-383,-383,-383,-383,-383,-383,-383,-383,-383,-383,-383,-383,-383,-383,-383,-383,-383,-383,-383,-383,-383,-383,-383,-383,-383,-383,-383]","[36,35,35,33,32,29,27,23,18,12,5,-4,-10,-20,-27,-35,-39,-43,-46,-48,-50,-51,-52,-54,-56,-57,-59,-61,-63,-66,-68,-70,-71,-72,-73,-73,-74,-74,-74,-74,-74,-74,-74,-74,-74,-74,-74,-74,-74,-74,-74,-74,-74,-74,-74,-74,-74,-74,-74,-74,-74,-74,-74,-74,-74,-74,-74,-74,-74,-74]","[0,0,0,0,0,0,0,0,0,0,0,0,0,0,0,0,0,0,0,0,0,0,0,0,0,0,0,0,0,0,0,0,0,0,0,0,0,0,0,0,0,0,0,0,0,0,0,0,0,0,0,0,0,0,0,0,0,0,0,0,0,0,0,0,0,0,0,0,0,0]","[0,0,0,0,0,0,0,0,0,0,0,0,0,0,0,0,0,0,0,0,0,0,0,0,0,0,0,0,0,0,0,0,0,0,0,0,0,0,0,0,0,0,0,0,0,0,0,0,0,0,0,0,0,0,0,0,0,0,0,0,0,0,0,0,0,0,0,0,0,0]","[0,0,0,0,0,0,0,0,0,0,0,0,0,0,0,0,0,0,0,0,0,0,0,0,0,0,0,0,0,0,0,0,0,0,0,0,0,0,0,0,0,0,0,0,0,0,0,0,0,0,0,0,0,0,0,0,0,0,0,0,0,0,0,0,0,0,0,0,0,0]","[0.00010000000148835397,0.014100000001491253,0.02780000000074523,0.04180000000074102,0.05449999999999733,0.06780000000074438,0.08140000000223324,0.09390000000223608,0.10799999999999699,0.12049999999999983,0.13480000000074455,0.14830000000074506,0.16049999999999898,0.17440000000223677,0.18720000000298143,0.20180000000074472,0.21480000000074284,0.22710000000149222,0.24190000000223222,0.2547000000029769,0.26710000000149137,0.28190000000223137,0.29420000000298074,0.30799999999999983,0.32040000000223756,0.33500000000000085,0.3470000000000013,0.3605000000000018,0.37370000000297665,0.3887000000029772,0.40180000000074756,0.41410000000148983,0.4272000000029763,0.44030000000074665,0.4539000000022355,0.4671000000014871,0.48149999999999693,0.49520000000298126,0.5069000000022328,0.5213000000007426,0.5329000000022361,0.5474000000022343,0.5614000000022372,0.5731000000014888,0.5881000000014893,0.5996000000014874,0.614200000002981,0.6263000000007466,0.6403000000007424,0.6535000000000011,0.6663000000007457,0.6796000000014928,0.6931000000014862,0.7063000000007449,0.7214000000022338,0.7333000000007459,0.7462000000029789,0.7596000000014911,0.7729000000022381,0.7861000000014897,0.8004999999999995,0.8130000000000024,0.8279000000022378,0.8397000000029777,0.8538000000007457,0.8663000000007415,0.8799000000022374,0.8937000000029798,0.9064000000022361,0.9203000000007435]",5,0,5,0,1,0.1204,,,,
test,2024-09-02_18h05.33.651,GoFitts,2023.2.3,Win32,74.62686567,"[-389.8299320321106,-82.86090998880374]","[364.0834608129611,162.1004006003366]",128,797.0779292,3.75,1,0.3199,"[-383,-383,-383,-383,-383,-383,-383,-383,-383,-383,-383,-382,-374,-361,-338,-297,-246,-180,-102,-30,71,147,217,281,317,344,355,361,363,365,366,368,369,369,369,369,369,369,369,369,369,369,369,369,369,369,369,369,369,369,369,369,369,369,369,369,369,369,369,369,369,369,369]","[-74,-74,-74,-74,-74,-74,-74,-74,-74,-74,-74,-74,-71,-67,-60,-49,-35,-17,4,22,49,70,91,111,124,136,141,145,146,148,149,150,151,151,151,151,151,151,151,151,151,151,151,151,151,151,151,151,151,151,151,151,151,151,151,151,151,151,151,151,151,151,151]","[0,0,0,0,0,0,0,0,0,0,0,0,0,0,0,0,0,0,0,0,0,0,0,0,0,0,0,0,0,0,0,0,0,0,0,0,0,0,0,0,0,0,0,0,0,0,0,0,0,0,0,0,0,0,0,0,0,0,0,0,0,0,0]","[0,0,0,0,0,0,0,0,0,0,0,0,0,0,0,0,0,0,0,0,0,0,0,0,0,0,0,0,0,0,0,0,0,0,0,0,0,0,0,0,0,0,0,0,0,0,0,0,0,0,0,0,0,0,0,0,0,0,0,0,0,0,0]","[0,0,0,0,0,0,0,0,0,0,0,0,0,0,0,0,0,0,0,0,0,0,0,0,0,0,0,0,0,0,0,0,0,0,0,0,0,0,0,0,0,0,0,0,0,0,0,0,0,0,0,0,0,0,0,0,0,0,0,0,0,0,0]","[0,0.012900000002233014,0.027100000001489377,0.03880000000074091,0.0519999999999996,0.06619999999925597,0.07890000000223552,0.0940000000000012,0.10540000000223415,0.11890000000223466,0.13400000000000034,0.1454999999999984,0.15960000000148966,0.17410000000148784,0.18640000000223722,0.19980000000074227,0.21319999999925443,0.22650000000000148,0.24040000000223216,0.25310000000148847,0.2671999999992565,0.2801999999992546,0.29299999999999926,0.30640000000223466,0.3199000000022352,0.3339999999999961,0.34630000000074546,0.36110000000148545,0.3719999999999999,0.387900000002233,0.4008000000007428,0.4138000000007409,0.4256000000014879,0.44060000000148847,0.4531000000014913,0.46780000000074295,0.47880000000074574,0.49230000000074625,0.5061000000014886,0.5186999999992565,0.5345000000000013,0.5463000000007412,0.5589000000022324,0.573900000002233,0.5853000000007427,0.5989000000022315,0.6131000000014879,0.6254999999999953,0.6396000000014865,0.6529000000022336,0.665300000000741,0.6806000000014905,0.6921000000014885,0.7061000000014914,0.7186999999992523,0.7331000000014853,0.7454999999999998,0.7609000000022306,0.7721000000014868,0.7856999999992524,0.798800000000746,0.8121999999992511,0.8256000000014865]",6,0,6,0,1,0.1998,,,,
test,2024-09-02_18h05.33.651,GoFitts,2023.2.3,Win32,74.62686567,"[364.0834608129611,162.1004006003366]","[-322.42479529000644,-234.25532586161216]",128,797.0779292,3.75,1,0.5601,"[369,369,369,369,368,367,364,359,354,343,331,308,281,246,210,174,128,84,49,7,-23,-55,-76,-97,-118,-132,-144,-154,-165,-173,-182,-189,-198,-209,-216,-227,-236,-245,-253,-264,-272,-281,-289,-296,-303,-310,-312,-314,-316,-317,-317,-317,-317,-317,-317,-317,-317,-317,-317,-317,-317,-317,-317,-317,-317,-317,-317,-317,-317,-317,-317,-317,-317,-317,-317,-317,-317,-317,-317,-317]","[151,151,151,151,151,150,147,144,141,135,129,116,101,83,64,44,19,-5,-24,-46,-61,-77,-88,-97,-105,-111,-116,-120,-125,-129,-134,-138,-143,-148,-151,-156,-161,-165,-169,-174,-178,-183,-187,-191,-195,-200,-201,-203,-204,-205,-205,-205,-205,-205,-205,-205,-205,-205,-205,-205,-205,-205,-205,-205,-205,-205,-205,-205,-205,-205,-205,-205,-205,-205,-205,-205,-205,-205,-205,-205]","[0,0,0,0,0,0,0,0,0,0,0,0,0,0,0,0,0,0,0,0,0,0,0,0,0,0,0,0,0,0,0,0,0,0,0,0,0,0,0,0,0,0,0,0,0,0,0,0,0,0,0,0,0,0,0,0,0,0,0,0,0,0,0,0,0,0,0,0,0,0,0,0,0,0,0,0,0,0,0,0]","[0,0,0,0,0,0,0,0,0,0,0,0,0,0,0,0,0,0,0,0,0,0,0,0,0,0,0,0,0,0,0,0,0,0,0,0,0,0,0,0,0,0,0,0,0,0,0,0,0,0,0,0,0,0,0,0,0,0,0,0,0,0,0,0,0,0,0,0,0,0,0,0,0,0,0,0,0,0,0,0]","[0,0,0,0,0,0,0,0,0,0,0,0,0,0,0,0,0,0,0,0,0,0,0,0,0,0,0,0,0,0,0,0,0,0,0,0,0,0,0,0,0,0,0,0,0,0,0,0,0,0,0,0,0,0,0,0,0,0,0,0,0,0,0,0,0,0,0,0,0,0,0,0,0,0,0,0,0,0,0,0]","[0,0.013199999999251588,0.025500000000000966,0.04080000000074335,0.05449999999999733,0.06569999999925358,0.08069999999925415,0.09399999999999409,0.10649999999999693,0.12059999999776494,0.1333000000007445,0.14780000000074267,0.16049999999999898,0.17449999999999477,0.18730000000073943,0.19980000000074227,0.21399999999999864,0.22719999999925022,0.23969999999925307,0.2538000000007443,0.2666999999992541,0.2806999999992499,0.29299999999999926,0.3063999999985043,0.32069999999924903,0.3345999999977636,0.3473000000007431,0.35999999999999943,0.37409999999776034,0.3876999999992492,0.40109999999776136,0.4129999999999967,0.4265999999977623,0.4413000000007443,0.4533999999985099,0.4681999999992499,0.4806999999992527,0.4933000000007439,0.5054999999999978,0.5196999999992542,0.5333000000007431,0.5470999999977622,0.5600999999977603,0.5740999999977632,0.5888999999985103,0.614300000000739,0.6253999999985069,0.6388999999985074,0.6533999999985056,0.6678000000007458,0.6788000000007415,0.693800000000742,0.7076999999992495,0.7188000000007406,0.7331999999992505,0.7454999999999998,0.7588999999985049,0.7725999999977589,0.7876999999992549,0.798899999998504,0.8121999999992511,0.8255999999977632,0.8400999999977614,0.8523000000007457,0.86659999999776,0.8803000000007444,0.8923000000007448,0.9054999999999964,0.9189999999999969,0.934599999997765,0.9453999999985072,0.9605999999977612,0.97269999999925,0.9873000000007437,0.9988000000007418,1.0123000000007423,1.025599999997759,1.038899999998506,1.053999999999995,1.0656999999992536]",7,0,7,0,1,0.1478,,,,
test,2024-09-02_18h05.33.651,GoFitts,2023.2.3,Win32,74.62686567,"[-322.42479529000644,-234.25532586161216]","[266.6746190470552,296.1721693009669]",128,797.0779292,3.75,1,0.3351,"[-317,-317,-317,-317,-317,-317,-317,-317,-315,-309,-297,-277,-237,-190,-134,-63,-3,59,120,161,191,208,222,230,235,238,240,242,244,245,247,248,249,250,251,251,251,251,251,251,251,251,251,251,251,251,251,251,251,251,251,251,251,251,251,251,251,251,251,251,251,251,251,251]","[-205,-205,-205,-205,-205,-205,-205,-205,-204,-195,-181,-163,-131,-97,-57,-8,33,77,122,157,186,205,221,232,240,247,251,256,260,263,266,268,271,273,276,276,276,276,276,276,276,276,276,276,276,276,276,276,276,276,276,276,276,276,276,276,276,276,276,276,276,276,276,276]","[0,0,0,0,0,0,0,0,0,0,0,0,0,0,0,0,0,0,0,0,0,0,0,0,0,0,0,0,0,0,0,0,0,0,0,0,0,0,0,0,0,0,0,0,0,0,0,0,0,0,0,0,0,0,0,0,0,0,0,0,0,0,0,0]","[0,0,0,0,0,0,0,0,0,0,0,0,0,0,0,0,0,0,0,0,0,0,0,0,0,0,0,0,0,0,0,0,0,0,0,0,0,0,0,0,0,0,0,0,0,0,0,0,0,0,0,0,0,0,0,0,0,0,0,0,0,0,0,0]","[0,0,0,0,0,0,0,0,0,0,0,0,0,0,0,0,0,0,0,0,0,0,0,0,0,0,0,0,0,0,0,0,0,0,0,0,0,0,0,0,0,0,0,0,0,0,0,0,0,0,0,0,0,0,0,0,0,0,0,0,0,0,0,0]","[0,0.014599999997763291,0.02569999999925443,0.039300000000743296,0.05480000000074625,0.06589999999850704,0.07889999999851227,0.09230000000074767,0.10600000000000165,0.12089999999850676,0.1333999999985096,0.1465999999977612,0.160899999998513,0.1740999999977646,0.1875,0.20119999999925398,0.21309999999776608,0.2268000000007433,0.2408999999985113,0.25419999999925125,0.2674999999999983,0.28009999999776625,0.29380000000074347,0.30759999999776255,0.3205999999977678,0.33509999999776596,0.3466999999992524,0.36030000000074125,0.3731999999992581,0.3865999999977632,0.4008000000007428,0.4130999999977618,0.4265999999977623,0.4409000000022374,0.4531999999992564,0.46640000000223836,0.47899999999627596,0.4924000000022346,0.5064999999962723,0.5190999999977635,0.532199999999257,0.5458000000007459,0.5608000000007465,0.5724000000022329,0.5856999999992567,0.5990999999977618,0.6141999999992578,0.627900000002235,0.6389999999962725,0.6544999999962755,0.665699999999255,0.6790999999977672,0.6924000000022374,0.7066999999992518,0.721599999997764,0.7325999999977668,0.7458000000007416,0.7589999999962771,0.7724999999962776,0.7865999999977618,0.7999999999962739,0.8134999999962744,0.826199999999254,0.8401999999992569]",8,0,8,0,1,0.1466,,,,
test,2024-09-02_18h05.33.651,GoFitts,2023.2.3,Win32,74.62686567,"[266.6746190470552,296.1721693009669]","[-199.2694823049511,-345.1448677501223]",128,797.0779292,3.75,1,0.346,"[251,251,251,251,251,250,248,243,232,222,203,181,156,121,88,51,9,-34,-69,-99,-124,-137,-150,-159,-165,-168,-171,-175,-179,-183,-187,-191,-194,-195,-197,-197,-198,-198,-198,-198,-198,-198,-198,-198,-198,-198,-198,-198,-198,-198,-198,-198,-198,-198,-198,-198,-198,-198,-198,-198,-198,-198,-198,-198,-198]","[276,276,276,276,276,273,268,259,239,225,192,160,125,77,33,-15,-67,-116,-157,-193,-224,-243,-261,-273,-282,-287,-293,-299,-304,-309,-314,-319,-323,-325,-326,-327,-327,-327,-327,-327,-327,-327,-327,-327,-327,-327,-327,-327,-327,-327,-327,-327,-327,-327,-327,-327,-327,-327,-327,-327,-327,-327,-327,-327,-327]","[0,0,0,0,0,0,0,0,0,0,0,0,0,0,0,0,0,0,0,0,0,0,0,0,0,0,0,0,0,0,0,0,0,0,0,0,0,0,0,0,0,0,0,0,0,0,0,0,0,0,0,0,0,0,0,0,0,0,0,0,0,0,0,0,0]","[0,0,0,0,0,0,0,0,0,0,0,0,0,0,0,0,0,0,0,0,0,0,0,0,0,0,0,0,0,0,0,0,0,0,0,0,0,0,0,0,0,0,0,0,0,0,0,0,0,0,0,0,0,0,0,0,0,0,0,0,0,0,0,0,0]","[0,0,0,0,0,0,0,0,0,0,0,0,0,0,0,0,0,0,0,0,0,0,0,0,0,0,0,0,0,0,0,0,0,0,0,0,0,0,0,0,0,0,0,0,0,0,0,0,0,0,0,0,0,0,0,0,0,0,0,0,0,0,0,0,0]","[0,0.013199999995528344,0.025100000001486933,0.03999999999999915,0.051499999999997215,0.06489999999850937,0.07860000000148659,0.09269999999552425,0.10860000000148773,0.1193999999985067,0.13349999999999795,0.14589999999850534,0.15939999999850585,0.17339999999850875,0.18579999999701613,0.19910000000148642,0.2133999999985079,0.22579999999701528,0.23910000000148557,0.2526000000014861,0.2658999999985099,0.2791000000014847,0.2926999999955271,0.3071000000014905,0.3196999999955281,0.3322999999970193,0.34599999999999653,0.35899999999999466,0.3726000000014906,0.38579999999701897,0.39910000000148926,0.41339999999850363,0.4286999999955299,0.4401000000014861,0.4514999999999958,0.4656999999955289,0.4791999999955294,0.4927999999970183,0.5066999999955257,0.519999999999996,0.5316000000014895,0.5448999999985062,0.5598999999985068,0.5716999999955235,0.585199999995524,0.5997999999970176,0.6114999999999995,0.6262999999970162,0.6381000000014865,0.6513999999985103,0.6654999999999944,0.6799999999999997,0.6931999999955281,0.7048999999985099,0.7188999999985057,0.7322999999970179,0.7471000000014882,0.7579999999999956,0.7716000000014844,0.7856999999955292,0.8003999999985041,0.8114999999999952,0.8249999999999957,0.8391999999955289,0.8532999999970201]",9,0,9,0,1,0.1086,,,,
test,2024-09-02_18h05.33.651,GoFitts,2023.2.3,Win32,74.62686567,"[-199.2694823049511,-345.1448677501223]","[123.15531298505543,379.03307928977074]",128,797.0779292,3.75,1,0.4796,"[-198,-198,-198,-198,-198,-198,-198,-198,-198,-198,-198,-195,-192,-186,-176,-159,-140,-109,-82,-48,-17,2,18,31,37,44,50,55,59,63,68,73,76,80,84,88,92,96,99,102,105,108,109,110,110,110,110,110,110,110,110,110,110,110,110,110,110,110,110,110,110,110,110,110,110,110,110,110,110,110,110,110,110,110,110]","[-327,-327,-327,-327,-327,-327,-327,-327,-327,-327,-326,-320,-312,-301,-281,-251,-213,-149,-93,-22,46,94,138,175,196,217,238,251,264,274,285,294,301,309,315,322,328,332,336,339,342,344,346,346,346,346,346,346,346,346,346,346,346,346,346,346,346,346,346,346,346,346,346,346,346,346,346,346,346,346,346,346,346,346,346]","[0,0,0,0,0,0,0,0,0,0,0,0,0,0,0,0,0,0,0,0,0,0,0,0,0,0,0,0,0,0,0,0,0,0,0,0,0,0,0,0,0,0,0,0,0,0,0,0,0,0,0,0,0,0,0,0,0,0,0,0,0,0,0,0,0,0,0,0,0,0,0,0,0,0,0]","[0,0,0,0,0,0,0,0,0,0,0,0,0,0,0,0,0,0,0,0,0,0,0,0,0,0,0,0,0,0,0,0,0,0,0,0,0,0,0,0,0,0,0,0,0,0,0,0,0,0,0,0,0,0,0,0,0,0,0,0,0,0,0,0,0,0,0,0,0,0,0,0,0,0,0]","[0,0,0,0,0,0,0,0,0,0,0,0,0,0,0,0,0,0,0,0,0,0,0,0,0,0,0,0,0,0,0,0,0,0,0,0,0,0,0,0,0,0,0,0,0,0,0,0,0,0,0,0,0,0,0,0,0,0,0,0,0,0,0,0,0,0,0,0,0,0,0,0,0,0,0]","[0,0.012999999999998124,0.02460000000149165,0.040500000000001535,0.052200000002983415,0.06660000000149324,0.07970000000297972,0.09199999999999875,0.1047000000029783,0.11970000000297887,0.1313000000044724,0.14680000000446825,0.1588000000044687,0.17310000000149017,0.18580000000446972,0.19970000000297716,0.21220000000298,0.22650000000000148,0.2394999999999996,0.25220000000297915,0.26620000000298205,0.2787000000029778,0.29210000000148995,0.30720000000297887,0.31890000000596075,0.33310000000148676,0.3464999999999989,0.3589000000059599,0.37349999999999994,0.38540000000595853,0.39870000000298234,0.4129999999999967,0.4253000000044693,0.4393000000044722,0.4519999999999982,0.4657000000029825,0.47960000000148995,0.49220000000298114,0.5060000000000002,0.5186000000014914,0.5323000000044686,0.5463000000044715,0.5599000000059604,0.5722000000029794,0.5863000000044707,0.5978000000044688,0.6134000000059601,0.6246000000014931,0.6402000000029773,0.652000000000001,0.6648000000044689,0.677800000004467,0.6920000000000002,0.7069000000059589,0.7179000000059617,0.7313000000044667,0.7453000000044696,0.7579000000059608,0.7745000000000033,0.7845000000000013,0.79790000000596,0.8112000000029767,0.8246000000014888,0.8389000000059568,0.8511000000014874,0.864600000001488,0.8779000000059582,0.8913000000044704,0.9052000000029778,0.9179999999999993,0.9316000000014881,0.9457000000029794,0.9597000000029823,0.971100000001492,0.9870000000000019]",10,0,10,0,1,0.1858,,,,
test,2024-09-02_18h05.33.651,GoFitts,2023.2.3,Win32,74.62686567,"[123.15531298505543,379.03307928977074]","[-41.65866552295508,-396.3557264619488]",128,797.0779292,3.75,1,0.4393,"[110,110,108,105,100,95,90,83,76,68,59,47,37,27,17,11,2,-5,-12,-19,-27,-33,-36,-39,-41,-43,-44,-46,-47,-48,-48,-48,-49,-49,-50,-50,-50,-50,-50,-50,-50,-50,-50,-50,-50,-50,-51,-51,-51,-51,-51,-51,-51,-51,-51,-51,-51,-51,-51,-51,-51,-51,-51,-51,-51,-51,-51,-51,-51,-51,-51,-51]","[346,346,337,320,293,267,235,190,153,110,64,9,-32,-73,-106,-128,-155,-177,-199,-217,-240,-257,-267,-278,-287,-293,-299,-306,-312,-318,-323,-328,-332,-335,-339,-341,-344,-346,-348,-349,-351,-351,-352,-352,-352,-352,-353,-353,-353,-353,-353,-353,-353,-353,-353,-353,-353,-353,-353,-353,-353,-353,-353,-353,-353,-353,-353,-353,-353,-353,-353,-353]","[0,0,0,0,0,0,0,0,0,0,0,0,0,0,0,0,0,0,0,0,0,0,0,0,0,0,0,0,0,0,0,0,0,0,0,0,0,0,0,0,0,0,0,0,0,0,0,0,0,0,0,0,0,0,0,0,0,0,0,0,0,0,0,0,0,0,0,0,0,0,0,0]","[0,0,0,0,0,0,0,0,0,0,0,0,0,0,0,0,0,0,0,0,0,0,0,0,0,0,0,0,0,0,0,0,0,0,0,0,0,0,0,0,0,0,0,0,0,0,0,0,0,0,0,0,0,0,0,0,0,0,0,0,0,0,0,0,0,0,0,0,0,0,0,0]","[0,0,0,0,0,0,0,0,0,0,0,0,0,0,0,0,0,0,0,0,0,0,0,0,0,0,0,0,0,0,0,0,0,0,0,0,0,0,0,0,0,0,0,0,0,0,0,0,0,0,0,0,0,0,0,0,0,0,0,0,0,0,0,0,0,0,0,0,0,0,0,0]","[0,0.011300000004467847,0.02370000000297523,0.03889999999850602,0.055499999999995,0.06610000000149086,0.07799999999999585,0.0921000000014871,0.10460000000148995,0.117999999999995,0.13020000000297927,0.14439999999850528,0.15799999999999415,0.17130000000446444,0.18549999999999756,0.19810000000148875,0.21210000000148455,0.2248000000044641,0.23780000000446933,0.251100000001486,0.26480000000447035,0.2787000000029778,0.291300000004469,0.305499999999995,0.31889999999850716,0.33220000000297745,0.3444999999999965,0.3588999999985063,0.3719999999999999,0.3853000000044702,0.3978999999985078,0.4121000000014874,0.4259999999999948,0.439399999998507,0.45160000000148415,0.46489999999850795,0.47770000000297586,0.4918000000044671,0.5045000000000002,0.5178000000044705,0.5327000000029756,0.5434999999999945,0.5568000000044648,0.5703000000044653,0.5843000000044682,0.5968999999985058,0.6103999999985064,0.6254999999999953,0.6370000000000005,0.6503000000044707,0.6643000000044665,0.6768999999985041,0.6903999999985047,0.7044999999999959,0.7169999999999987,0.730300000004469,0.7447000000029789,0.7588000000044701,0.7703000000044682,0.7839999999999989,0.7972000000029809,0.8104999999999976,0.8239999999999981,0.8378999999985055,0.8509999999999991,0.8639999999999972,0.8787000000029792,0.8903000000044656,0.9036000000014894,0.9188000000044667,0.9303000000044648,0.9438000000044653]",11,0,11,0,1,0.0555,,,,
test,2024-09-02_18h05.33.651,GoFitts,2023.2.3,Win32,74.62686567,"[-41.65866552295508,-396.3557264619488]","[-41.65866552295472,396.35572646194885]",128,797.0779292,3.75,1,0.3878,"[-51,-51,-51,-51,-51,-51,-51,-51,-51,-51,-51,-51,-51,-51,-51,-51,-50,-49,-46,-37,-29,-26,-26,-26,-26,-26,-26,-26,-26,-27,-27,-27,-28,-28,-29,-29,-29,-29,-29,-29,-29,-29,-29,-29,-29,-29,-29,-29,-29,-29,-29,-29,-29,-29,-29,-29,-29,-29,-29,-29,-29,-29,-29,-29,-29,-29,-29,-29]","[-353,-353,-353,-353,-353,-353,-353,-353,-353,-352,-342,-330,-314,-293,-265,-226,-170,-101,-36,44,117,172,214,244,268,289,306,318,329,341,350,359,365,368,370,371,371,372,372,372,372,372,372,372,372,372,372,372,372,372,372,372,372,372,372,372,372,372,372,372,372,372,372,372,372,372,372,372]","[0,0,0,0,0,0,0,0,0,0,0,0,0,0,0,0,0,0,0,0,0,0,0,0,0,0,0,0,0,0,0,0,0,0,0,0,0,0,0,0,0,0,0,0,0,0,0,0,0,0,0,0,0,0,0,0,0,0,0,0,0,0,0,0,0,0,0,0]","[0,0,0,0,0,0,0,0,0,0,0,0,0,0,0,0,0,0,0,0,0,0,0,0,0,0,0,0,0,0,0,0,0,0,0,0,0,0,0,0,0,0,0,0,0,0,0,0,0,0,0,0,0,0,0,0,0,0,0,0,0,0,0,0,0,0,0,0]","[0,0,0,0,0,0,0,0,0,0,0,0,0,0,0,0,0,0,0,0,0,0,0,0,0,0,0,0,0,0,0,0,0,0,0,0,0,0,0,0,0,0,0,0,0,0,0,0,0,0,0,0,0,0,0,0,0,0,0,0,0,0,0,0,0,0,0,0]","[0,0.014499999999998181,0.028199999995528913,0.03929999999702005,0.052699999995525104,0.0659999999999954,0.0792999999970192,0.09339999999851045,0.10610000000149,0.12110000000149057,0.13439999999850727,0.14779999999701943,0.16079999999701755,0.17429999999701806,0.1867999999970209,0.20049999999999812,0.21369999999552647,0.2281000000014899,0.24039999999850892,0.2537999999970211,0.2683999999985076,0.281199999995529,0.2941000000014853,0.3078999999985115,0.3203999999985072,0.3343999999985101,0.3476999999955268,0.3611999999955273,0.37369999999553016,0.3877999999970214,0.4011000000014917,0.41499999999999915,0.42739999999850653,0.4411999999955256,0.4536000000014866,0.46699999999999875,0.4806000000014876,0.4939999999999998,0.5067999999970212,0.5195000000000007,0.5337999999970151,0.5459999999999994,0.5606999999955278,0.5726999999955282,0.5861999999955287,0.5996999999955293,0.6129999999999995,0.6266999999955303,0.6402999999970191,0.6527999999970149,0.6679999999999993,0.6794999999999973,0.6927999999970211,0.7088999999985077,0.7193999999985081,0.7328999999985086,0.7461999999955253,0.7597999999970213,0.7729999999999961,0.7862999999970199,0.801199999995525,0.8126000000014884,0.8276000000014889,0.8404999999999987,0.8533999999985085,0.8659999999999997,0.8796000000014885,0.8948999999985077]",12,0,12,0,1,0.1477,,,,
test,2024-09-02_18h05.33.651,GoFitts,2023.2.3,Win32,74.62686567,"[-41.65866552295472,396.35572646194885]","[123.15531298505535,-379.0330792897708]",128,797.0779292,3.75,1,0.5184,"[-29,-29,-29,-29,-29,-29,-29,-29,-29,-29,-29,-29,-29,-29,-29,-29,-27,-21,-11,3,19,44,67,87,107,123,135,144,153,157,160,162,164,164,166,167,167,167,167,167,164,160,156,153,149,145,142,139,137,137,136,136,136,136,136,136,136,136,136,136,136,136,136,136,136,136,136,136,136,136,136,136,136,136,136,136,136,136]","[372,372,372,372,372,372,372,372,372,372,372,372,371,368,363,353,337,309,268,216,154,64,-16,-80,-135,-181,-213,-236,-257,-270,-280,-286,-294,-299,-305,-311,-318,-325,-330,-336,-344,-353,-359,-365,-370,-373,-375,-378,-378,-379,-379,-379,-379,-379,-379,-379,-379,-379,-379,-379,-379,-379,-379,-379,-379,-379,-379,-379,-379,-379,-379,-379,-379,-379,-379,-379,-379,-379]","[0,0,0,0,0,0,0,0,0,0,0,0,0,0,0,0,0,0,0,0,0,0,0,0,0,0,0,0,0,0,0,0,0,0,0,0,0,0,0,0,0,0,0,0,0,0,0,0,0,0,0,0,0,0,0,0,0,0,0,0,0,0,0,0,0,0,0,0,0,0,0,0,0,0,0,0,0,0]","[0,0,0,0,0,0,0,0,0,0,0,0,0,0,0,0,0,0,0,0,0,0,0,0,0,0,0,0,0,0,0,0,0,0,0,0,0,0,0,0,0,0,0,0,0,0,0,0,0,0,0,0,0,0,0,0,0,0,0,0,0,0,0,0,0,0,0,0,0,0,0,0,0,0,0,0,0,0]","[0,0,0,0,0,0,0,0,0,0,0,0,0,0,0,0,0,0,0,0,0,0,0,0,0,0,0,0,0,0,0,0,0,0,0,0,0,0,0,0,0,0,0,0,0,0,0,0,0,0,0,0,0,0,0,0,0,0,0,0,0,0,0,0,0,0,0,0,0,0,0,0,0,0,0,0,0,0]","[0,0.011499999999998067,0.024700000002980005,0.039399999998508406,0.05079999999701812,0.06410000000148841,0.07810000000149131,0.0907000000029754,0.10479999999702017,0.1172999999970159,0.1314999999999955,0.14699999999999847,0.15820000000297796,0.1707000000029808,0.18410000000148585,0.19829999999701897,0.2115000000000009,0.22510000000148978,0.2394999999999996,0.2513999999985046,0.26479999999701676,0.2792000000029802,0.2928999999985109,0.3047999999970159,0.31839999999850477,0.3317999999970169,0.34529999999701744,0.35829999999701556,0.372700000002979,0.3847999999970213,0.3992999999970195,0.41170000000298046,0.4259999999999948,0.4382000000029791,0.4514999999999958,0.46510000000148466,0.47860000000148517,0.49239999999851136,0.5057000000029817,0.5183999999985076,0.5317000000029779,0.546999999999997,0.5596000000014882,0.5715000000000003,0.5848999999985054,0.5982999999970176,0.6117000000029762,0.6251000000014884,0.6392000000029796,0.6513999999985103,0.6648999999985108,0.6791000000014904,0.6914999999999978,0.7040000000000006,0.7172999999970173,0.7324999999999946,0.745299999997016,0.7573999999985048,0.7717000000029799,0.7847999999970199,0.7974999999999994,0.8126000000014884,0.8241000000014864,0.8382999999970195,0.8508999999985107,0.8647999999970182,0.8773999999985094,0.8939999999999984,0.9039999999999964,0.9184999999999945,0.9307000000029788,0.9450000000000003,0.9582000000029751,0.9706000000014896,0.9842000000029785,0.9977999999970208,1.0127000000029796,1.0257000000029777]",13,0,13,0,1,0.2251,,,,
test,2024-09-02_18h05.33.651,GoFitts,2023.2.3,Win32,74.62686567,"[123.15531298505535,-379.0330792897708]","[-199.26948230495086,345.1448677501224]",128,797.0779292,3.75,1,0.4533,"[136,136,136,136,136,136,136,136,136,136,136,136,136,136,136,136,136,136,136,136,136,136,135,127,121,108,87,57,19,-37,-96,-144,-177,-203,-215,-220,-220,-220,-220,-220,-220,-220,-220,-220,-220,-220,-220,-220,-220,-220,-220,-220,-220,-220,-220,-220,-220,-220,-220,-220,-220,-220,-220,-220,-220,-220,-220,-220,-220,-220,-220,-220,-220]","[-379,-379,-379,-379,-379,-379,-379,-379,-379,-379,-379,-379,-379,-379,-379,-379,-379,-379,-379,-379,-378,-374,-365,-336,-315,-283,-226,-155,-80,14,103,175,224,269,299,318,330,338,344,346,348,349,350,350,350,350,350,350,350,350,350,350,350,350,350,350,350,350,350,350,350,350,350,350,350,350,350,350,350,350,350,350,350]","[0,0,0,0,0,0,0,0,0,0,0,0,0,0,0,0,0,0,0,0,0,0,0,0,0,0,0,0,0,0,0,0,0,0,0,0,0,0,0,0,0,0,0,0,0,0,0,0,0,0,0,0,0,0,0,0,0,0,0,0,0,0,0,0,0,0,0,0,0,0,0,0,0]","[0,0,0,0,0,0,0,0,0,0,0,0,0,0,0,0,0,0,0,0,0,0,0,0,0,0,0,0,0,0,0,0,0,0,0,0,0,0,0,0,0,0,0,0,0,0,0,0,0,0,0,0,0,0,0,0,0,0,0,0,0,0,0,0,0,0,0,0,0,0,0,0,0]","[0,0,0,0,0,0,0,0,0,0,0,0,0,0,0,0,0,0,0,0,0,0,0,0,0,0,0,0,0,0,0,0,0,0,0,0,0,0,0,0,0,0,0,0,0,0,0,0,0,0,0,0,0,0,0,0,0,0,0,0,0,0,0,0,0,0,0,0,0,0,0,0,0]","[0,0.012199999995530675,0.024599999994038058,0.03789999999850835,0.05189999999851125,0.06569999999553033,0.07979999999701448,0.09129999999701965,0.10459999999403635,0.11789999999850664,0.13299999999999557,0.14450000000000074,0.15869999999552675,0.17339999999850875,0.18439999999851153,0.19849999999999568,0.21249999999999858,0.22429999999701522,0.23849999999999483,0.25099999999999767,0.26459999999404005,0.27929999999701494,0.29229999999702017,0.3110999999940347,0.32049999999999557,0.3322999999970193,0.34550000000000125,0.35859999999404124,0.37209999999403465,0.38539999999850494,0.39889999999850545,0.41309999999403857,0.42569999999552977,0.4386999999955279,0.4532999999970144,0.46559999999404056,0.47869999999552704,0.4920999999940392,0.5068999999985095,0.5191999999955286,0.5310999999940407,0.5466999999955249,0.5601999999955254,0.5728999999985049,0.5844999999999985,0.5977999999970152,0.6132999999970181,0.6246999999955278,0.6378999999985098,0.6529999999999987,0.6644999999999968,0.6778999999985089,0.6929999999999978,0.7043999999985076,0.7179999999999964,0.7330999999940389,0.7446999999955253,0.7578999999985072,0.7723999999985054,0.7845999999940361,0.798599999994039,0.8111999999955302,0.8260000000000005,0.8390999999940405,0.8520999999940386,0.8646999999955298,0.8788999999985094,0.8912999999970168,0.9055999999940383,0.9181999999955295,0.9322999999970207,0.9444999999999979,0.9608999999985102]",14,0,14,0,1,0.3205,,,,
test,2024-09-02_18h05.33.651,GoFitts,2023.2.3,Win32,74.62686567,,,,,,1,,,,,,,,,,,,,,1,0,0,1
test,2024-09-02_18h05.33.651,GoFitts,2023.2.3,Win32,74.62686567,"[118,-152]","[-253.2702655587394,-184.01161900763555]",66,626.1185298,4.32,2,0.4808,"[118,118,118,118,118,118,119,119,119,119,119,119,119,118,117,116,115,114,111,110,107,103,95,84,66,42,9,-32,-65,-97,-139,-168,-190,-204,-216,-226,-233,-240,-246,-251,-255,-259,-260,-261,-262,-262,-262,-262,-262,-262,-262,-262,-262,-262,-262,-262,-262,-262,-262,-262,-262,-262,-262,-262,-262,-262,-262,-262,-262,-262,-262,-262,-262,-262,-262]","[-152,-152,-152,-152,-152,-152,-152,-152,-150,-148,-144,-140,-135,-131,-127,-123,-118,-115,-111,-108,-105,-103,-103,-103,-106,-110,-117,-125,-130,-135,-139,-142,-146,-150,-154,-159,-163,-167,-170,-173,-175,-177,-178,-179,-179,-179,-179,-179,-179,-179,-179,-179,-179,-179,-179,-179,-179,-179,-179,-179,-179,-179,-179,-179,-179,-179,-179,-179,-179,-179,-179,-179,-179,-179,-179]","[0,0,0,0,0,0,0,0,0,0,0,0,0,0,0,0,0,0,0,0,0,0,0,0,0,0,0,0,0,0,0,0,0,0,0,0,0,0,0,0,0,0,0,0,0,0,0,0,0,0,0,0,0,0,0,0,0,0,0,0,0,0,0,0,0,0,0,0,0,0,0,0,0,0,0]","[0,0,0,0,0,0,0,0,0,0,0,0,0,0,0,0,0,0,0,0,0,0,0,0,0,0,0,0,0,0,0,0,0,0,0,0,0,0,0,0,0,0,0,0,0,0,0,0,0,0,0,0,0,0,0,0,0,0,0,0,0,0,0,0,0,0,0,0,0,0,0,0,0,0,0]","[0,0,0,0,0,0,0,0,0,0,0,0,0,0,0,0,0,0,0,0,0,0,0,0,0,0,0,0,0,0,0,0,0,0,0,0,0,0,0,0,0,0,0,0,0,0,0,0,0,0,0,0,0,0,0,0,0,0,0,0,0,0,0,0,0,0,0,0,0,0,0,0,0,0,0]","[0.00010000000148835397,0.013800000004472679,0.027000000000001023,0.0408000000044737,0.052100000001487956,0.0653000000044699,0.07890000000595876,0.09190000000596399,0.10590000000595978,0.11880000000446955,0.1322000000029817,0.14560000000149387,0.16100000000000136,0.1739999999999995,0.18710000000149307,0.19970000000298427,0.21390000000596388,0.22650000000000148,0.2404000000059625,0.2528000000044699,0.267000000000003,0.27949999999999875,0.29400000000000404,0.30770000000298126,0.32050000000000267,0.3342000000029799,0.34670000000298273,0.36130000000446927,0.3729000000059628,0.38630000000446785,0.39940000000596143,0.4139000000059596,0.4263000000044741,0.43970000000297915,0.45280000000447274,0.4690000000000012,0.48080000000447143,0.4939999999999998,0.5060000000000002,0.5194000000059589,0.5334000000059618,0.5463000000044715,0.5608000000044697,0.5748000000044726,0.5873000000044684,0.599499999999999,0.6156000000014927,0.6269000000059606,0.6385000000000005,0.6519000000059592,0.6677000000029807,0.6789000000059602,0.6938000000044724,0.705600000001489,0.718800000004471,0.7322000000029831,0.7456000000014882,0.7589000000059585,0.7733000000044683,0.7854000000059642,0.7986000000014926,0.8119000000059629,0.8254000000059634,0.8404999999999987,0.8520000000000039,0.866100000001488,0.878900000005963,0.8930000000000007,0.9068000000044734,0.9189000000059622,0.9319000000059603,0.9485000000000028,0.9586000000014891,0.9727000000029804,0.9855000000000018]",0,0,0,0,1,0.0789,,,,
test,2024-09-02_18h05.33.651,GoFitts,2023.2.3,Win32,74.62686567,"[-253.2702655587394,-184.01161900763555]","[209.47753575550385,232.64837278564232]",66,626.1185298,4.32,2,0.6144,"[-262,-262,-262,-262,-262,-262,-262,-262,-262,-262,-262,-262,-262,-262,-259,-250,-223,-187,-127,-62,13,67,129,169,199,226,246,255,264,270,276,281,284,286,287,287,287,285,283,277,271,263,256,249,241,233,223,215,206,201,198,196,195,195,195,195,195,195,195,195,195,195,195,195,195,195,195,195,195,195,195,195,195,195,195,195,195,195,195,195,195,195,195,195,195]","[-179,-179,-179,-179,-179,-179,-179,-179,-179,-179,-179,-179,-179,-179,-178,-172,-157,-140,-112,-78,-32,5,52,91,124,154,179,189,203,212,220,228,234,239,242,244,247,250,252,255,256,258,259,259,259,256,252,249,245,242,239,238,238,238,238,237,237,237,237,237,237,237,237,237,237,237,237,237,237,237,237,237,237,237,237,237,237,237,237,237,237,237,237,237,237]","[0,0,0,0,0,0,0,0,0,0,0,0,0,0,0,0,0,0,0,0,0,0,0,0,0,0,0,0,0,0,0,0,0,0,0,0,0,0,0,0,0,0,0,0,0,0,0,0,0,0,0,0,0,0,0,0,0,0,0,0,0,0,0,0,0,0,0,0,0,0,0,0,0,0,0,0,0,0,0,0,0,0,0,0,0]","[0,0,0,0,0,0,0,0,0,0,0,0,0,0,0,0,0,0,0,0,0,0,0,0,0,0,0,0,0,0,0,0,0,0,0,0,0,0,0,0,0,0,0,0,0,0,0,0,0,0,0,0,0,0,0,0,0,0,0,0,0,0,0,0,0,0,0,0,0,0,0,0,0,0,0,0,0,0,0,0,0,0,0,0,0]","[0,0,0,0,0,0,0,0,0,0,0,0,0,0,0,0,0,0,0,0,0,0,0,0,0,0,0,0,0,0,0,0,0,0,0,0,0,0,0,0,0,0,0,0,0,0,0,0,0,0,0,0,0,0,0,0,0,0,0,0,0,0,0,0,0,0,0,0,0,0,0,0,0,0,0,0,0,0,0,0,0,0,0,0,0]","[0,0.013199999995528344,0.02769999999553363,0.03900000000000148,0.05329999999702295,0.06679999999702346,0.08019999999552851,0.09229999999702443,0.10669999999553426,0.11910000000149523,0.13350000000000506,0.14569999999552863,0.16049999999999898,0.17229999999702272,0.18660000000149068,0.19979999999701903,0.21439999999851267,0.22679999999702005,0.24169999999553227,0.25319999999553033,0.2676999999955285,0.2798999999985128,0.2931000000014947,0.30660000000149523,0.31989999999851193,0.3340000000000032,0.34949999999999903,0.3607999999970204,0.37439999999850926,0.3863999999985097,0.3998999999985102,0.4141999999955317,0.42739999999851364,0.4411999999955327,0.4531000000014913,0.46650000000000347,0.47979999999702017,0.4953999999985115,0.5077999999970189,0.5207999999970241,0.5331000000014896,0.5473999999985111,0.5605000000000047,0.5741999999955283,0.5874999999999986,0.5998999999985131,0.6143999999985112,0.6265000000000001,0.6413999999985123,0.6532999999970244,0.667500000000004,0.680899999998509,0.6942999999970212,0.7073999999985148,0.7197999999970222,0.7321999999955295,0.7463999999985091,0.7593999999985144,0.7741000000014893,0.7853999999985106,0.8006999999955298,0.8121000000014931,0.8256000000014936,0.8397999999970196,0.8536999999955341,0.8662999999970182,0.8788999999985094,0.8937999999970216,0.9057999999970221,0.9196000000014948,0.9322999999970207,0.945600000001491,0.9600000000000009,0.9722999999970199,0.9857999999970204,0.9995000000000047,1.0135000000000005,1.0257999999970195,1.0391000000014898,1.0534999999999997,1.0672999999970187,1.0790000000000006,1.0941999999955314,1.105799999997025,1.1189999999999998]",1,0,1,0,1,0.2143,,,,
test,2024-09-02_18h05.33.651,GoFitts,2023.2.3,Win32,74.62686567,"[209.47753575550385,232.64837278564232]","[-156.52963245501294,-271.1172763021644]",66,626.1185298,4.32,2,0.3347,"[195,195,195,194,190,180,165,144,116,86,52,21,-10,-35,-54,-71,-83,-93,-102,-110,-117,-121,-128,-133,-138,-142,-146,-150,-153,-158,-161,-162,-163,-164,-164,-164,-164,-164,-164,-164,-164,-164,-164,-164,-164,-164,-164,-164,-164,-164,-164,-164,-164,-164,-164,-164,-164,-164,-164,-164,-164,-164,-164,-164]","[237,237,237,234,222,202,172,133,84,36,-15,-57,-98,-131,-156,-176,-190,-201,-210,-217,-223,-228,-234,-239,-243,-247,-251,-255,-258,-262,-264,-265,-266,-266,-266,-266,-266,-266,-266,-266,-266,-266,-266,-266,-266,-266,-266,-266,-266,-266,-266,-266,-266,-266,-266,-266,-266,-266,-266,-266,-266,-266,-266,-266]","[0,0,0,0,0,0,0,0,0,0,0,0,0,0,0,0,0,0,0,0,0,0,0,0,0,0,0,0,0,0,0,0,0,0,0,0,0,0,0,0,0,0,0,0,0,0,0,0,0,0,0,0,0,0,0,0,0,0,0,0,0,0,0,0]","[0,0,0,0,0,0,0,0,0,0,0,0,0,0,0,0,0,0,0,0,0,0,0,0,0,0,0,0,0,0,0,0,0,0,0,0,0,0,0,0,0,0,0,0,0,0,0,0,0,0,0,0,0,0,0,0,0,0,0,0,0,0,0,0]","[0,0,0,0,0,0,0,0,0,0,0,0,0,0,0,0,0,0,0,0,0,0,0,0,0,0,0,0,0,0,0,0,0,0,0,0,0,0,0,0,0,0,0,0,0,0,0,0,0,0,0,0,0,0,0,0,0,0,0,0,0,0,0,0]","[0,0.013500000000000512,0.025900000005961488,0.040200000002975855,0.053100000001485625,0.06710000000148852,0.0809000000059612,0.0940000000000012,0.1068000000044691,0.12130000000446728,0.1341000000014887,0.14750000000000085,0.16149999999999665,0.1739999999999995,0.18780000000447217,0.2008000000044703,0.21480000000446609,0.22770000000297586,0.24120000000297637,0.2551000000014909,0.26810000000148904,0.2801000000014895,0.29510000000149006,0.3076000000014858,0.320200000002977,0.3347000000029823,0.34690000000595944,0.3609999999999971,0.37349999999999994,0.3879999999999981,0.40140000000595677,0.4134999999999991,0.4282000000029811,0.4412000000029792,0.45420000000297733,0.4667000000029802,0.4792000000029759,0.49260000000148807,0.5061000000014886,0.519999999999996,0.5326000000014872,0.5459999999999994,0.559400000005958,0.5727000000029818,0.5861000000014869,0.599499999999999,0.6128000000044693,0.626100000001486,0.6394999999999982,0.6544999999999987,0.6658000000044666,0.6794000000059626,0.6942000000029793,0.705999999999996,0.7193000000044663,0.7339000000059599,0.7460000000000022,0.7593000000044725,0.7725000000000009,0.7859000000059595,0.79940000000596,0.8126000000014884,0.8261000000014889,0.8408000000044709]",2,0,2,0,1,0.0671,,,,
test,2024-09-02_18h05.33.651,GoFitts,2023.2.3,Win32,74.62686567,"[-156.52963245501294,-271.1172763021644]","[96.74063310372657,297.73705387925054]",66,626.1185298,4.32,2,0.4935,"[-164,-164,-164,-164,-164,-164,-164,-164,-164,-162,-159,-153,-143,-129,-109,-85,-64,-42,-28,-12,-1,10,18,25,31,37,43,47,50,54,57,60,64,67,69,70,72,74,75,76,77,78,78,78,78,78,78,78,78,78,78,78,78,78,78,78,78,78,78,78,78,78,78,78,78,78,78,78,78,78,78,78,78,78,78,78]","[-266,-266,-266,-266,-266,-266,-266,-266,-265,-261,-253,-242,-224,-202,-168,-126,-86,-42,-8,36,66,98,124,144,162,179,197,208,216,226,234,242,250,258,265,268,274,278,282,284,286,287,288,288,288,288,288,288,288,288,288,288,288,288,288,288,288,288,288,288,288,288,288,288,288,288,288,288,288,288,288,288,288,288,288,288]","[0,0,0,0,0,0,0,0,0,0,0,0,0,0,0,0,0,0,0,0,0,0,0,0,0,0,0,0,0,0,0,0,0,0,0,0,0,0,0,0,0,0,0,0,0,0,0,0,0,0,0,0,0,0,0,0,0,0,0,0,0,0,0,0,0,0,0,0,0,0,0,0,0,0,0,0]","[0,0,0,0,0,0,0,0,0,0,0,0,0,0,0,0,0,0,0,0,0,0,0,0,0,0,0,0,0,0,0,0,0,0,0,0,0,0,0,0,0,0,0,0,0,0,0,0,0,0,0,0,0,0,0,0,0,0,0,0,0,0,0,0,0,0,0,0,0,0,0,0,0,0,0,0]","[0,0,0,0,0,0,0,0,0,0,0,0,0,0,0,0,0,0,0,0,0,0,0,0,0,0,0,0,0,0,0,0,0,0,0,0,0,0,0,0,0,0,0,0,0,0,0,0,0,0,0,0,0,0,0,0,0,0,0,0,0,0,0,0,0,0,0,0,0,0,0,0,0,0,0,0]","[0,0.014000000000002899,0.026399999998510282,0.03800000000000381,0.05329999999702295,0.06470000000297915,0.07970000000297972,0.09150000000000347,0.10679999999702261,0.11979999999702073,0.13329999999702125,0.14650000000000318,0.15939999999851295,0.17239999999851108,0.1858999999985116,0.1998999999985145,0.2136000000014917,0.22639999999851312,0.23889999999850886,0.25339999999851415,0.2656000000014913,0.27970000000298256,0.2931000000014947,0.3066000000014881,0.31910000000149097,0.33139999999851,0.34850000000000136,0.360299999997018,0.3722000000029837,0.38700000000000045,0.39889999999851256,0.41220000000298285,0.425600000001495,0.4398999999985094,0.45510000000149375,0.4647999999970196,0.47889999999851085,0.49360000000149284,0.5065000000000026,0.5200000000000031,0.5322999999970222,0.5466000000014901,0.5581000000014882,0.5731000000014888,0.5847000000029823,0.5978999999985106,0.6112999999970228,0.6263999999985117,0.6387999999970191,0.6514999999999986,0.6648999999985108,0.679799999997023,0.6915000000000049,0.7047000000029797,0.7181000000014919,0.7332000000029808,0.7462999999970208,0.7583999999985096,0.7730000000000032,0.7866000000014921,0.7978999999985135,0.8115000000000023,0.8247000000029843,0.8378999999985126,0.8522999999970224,0.8647999999970182,0.8780000000000001,0.893100000001489,0.9047999999970244,0.9179999999999993,0.9313999999985114,0.9448999999985119,0.9601000000014892,0.9713999999985106,0.9847999999970227,0.9982000000029814]",3,0,3,0,1,0.1593,,,,
test,2024-09-02_18h05.33.651,GoFitts,2023.2.3,Win32,74.62686567,"[96.74063310372657,297.73705387925054]","[-32.723603872746445,-311.34429350091705]",66,626.1185298,4.32,2,0.4938,"[78,78,78,78,78,78,78,76,73,70,65,59,51,42,34,22,14,6,0,-5,-9,-11,-13,-15,-16,-17,-18,-19,-19,-20,-20,-21,-22,-23,-24,-25,-25,-27,-27,-28,-28,-28,-28,-28,-28,-28,-28,-28,-28,-28,-28,-28,-28,-28,-28,-28,-28,-28,-28,-28,-28,-28,-28,-28,-28,-28,-28,-28,-28,-28,-28,-28,-28,-28,-28,-28]","[288,288,288,288,288,283,273,257,228,196,157,106,50,-12,-59,-113,-150,-183,-203,-220,-233,-239,-246,-249,-253,-255,-257,-259,-260,-263,-264,-267,-269,-271,-274,-277,-279,-281,-283,-284,-285,-286,-286,-287,-287,-287,-287,-287,-287,-287,-287,-287,-287,-287,-287,-287,-287,-287,-287,-287,-287,-287,-287,-287,-287,-287,-287,-287,-287,-287,-287,-287,-287,-287,-287,-287]","[0,0,0,0,0,0,0,0,0,0,0,0,0,0,0,0,0,0,0,0,0,0,0,0,0,0,0,0,0,0,0,0,0,0,0,0,0,0,0,0,0,0,0,0,0,0,0,0,0,0,0,0,0,0,0,0,0,0,0,0,0,0,0,0,0,0,0,0,0,0,0,0,0,0,0,0]","[0,0,0,0,0,0,0,0,0,0,0,0,0,0,0,0,0,0,0,0,0,0,0,0,0,0,0,0,0,0,0,0,0,0,0,0,0,0,0,0,0,0,0,0,0,0,0,0,0,0,0,0,0,0,0,0,0,0,0,0,0,0,0,0,0,0,0,0,0,0,0,0,0,0,0,0]","[0,0,0,0,0,0,0,0,0,0,0,0,0,0,0,0,0,0,0,0,0,0,0,0,0,0,0,0,0,0,0,0,0,0,0,0,0,0,0,0,0,0,0,0,0,0,0,0,0,0,0,0,0,0,0,0,0,0,0,0,0,0,0,0,0,0,0,0,0,0,0,0,0,0,0,0]","[0,0.013399999998505052,0.027000000000001023,0.03919999999552459,0.052699999995525104,0.0659999999999954,0.0792999999970192,0.09409999999403595,0.10799999999999699,0.12069999999553005,0.13379999999701653,0.1468999999985101,0.1608999999985059,0.17439999999850642,0.1869999999999976,0.20119999999553073,0.21369999999552647,0.22789999999850608,0.24049999999999727,0.25359999999403726,0.2676999999955285,0.2804999999999964,0.29439999999851096,0.3070999999940369,0.3211999999955282,0.3335000000000008,0.34689999999850585,0.36019999999552965,0.37469999999552783,0.3879999999999981,0.40009999999404045,0.41429999999702005,0.42689999999851125,0.4409999999999954,0.4537999999970168,0.47189999999850585,0.4812999999970202,0.49379999999701596,0.5070999999940398,0.5210000000000008,0.5345000000000013,0.5471999999955273,0.5611999999955302,0.5726999999955282,0.5877999999970172,0.599499999999999,0.6130999999940343,0.6261999999955279,0.6393999999985098,0.6536999999955242,0.669399999998511,0.6795999999940392,0.6926999999955257,0.7062999999970145,0.7198999999985105,0.7328999999985086,0.7462999999970208,0.7597999999970142,0.7727999999970194,0.7861999999955245,0.8004999999999995,0.8134999999999977,0.8262999999970191,0.8393999999985056,0.8526999999955294,0.8661999999955299,0.8808999999985048,0.894699999995531,0.9060999999940407,0.9203999999985086,0.932799999997016,0.9476999999955282,0.9595999999940403,0.9736999999955245,0.9862999999970157,1.0004999999999953]",4,0,4,0,1,0.094,,,,
test,2024-09-02_18h05.33.651,GoFitts,2023.2.3,Win32,74.62686567,"[-32.723603872746445,-311.34429350091705]","[-32.72360387274617,311.34429350091705]",66,626.1185298,4.32,2,0.5735,"[-28,-28,-28,-28,-28,-26,-25,-23,-20,-17,-16,-12,-8,-5,-1,1,1,1,0,-1,-1,-2,-2,-3,-4,-4,-4,-4,-4,-3,-3,-3,-3,-5,-6,-8,-10,-12,-13,-14,-16,-17,-19,-20,-21,-22,-23,-23,-24,-24,-25,-25,-25,-25,-25,-25,-25,-25,-25,-25,-25,-25,-25,-25,-25,-25,-25,-25,-25,-25,-25,-25,-25,-25,-25,-25,-25,-25,-25,-25,-25,-25]","[-287,-287,-287,-286,-282,-275,-263,-244,-218,-186,-157,-114,-81,-35,-3,34,61,96,122,141,155,167,179,188,196,205,213,221,227,234,238,242,246,251,254,258,261,265,268,271,274,277,280,283,285,288,290,292,293,294,295,295,295,295,295,295,295,295,295,295,295,295,295,295,295,295,295,295,295,295,295,295,295,295,295,295,295,295,295,295,295,295]","[0,0,0,0,0,0,0,0,0,0,0,0,0,0,0,0,0,0,0,0,0,0,0,0,0,0,0,0,0,0,0,0,0,0,0,0,0,0,0,0,0,0,0,0,0,0,0,0,0,0,0,0,0,0,0,0,0,0,0,0,0,0,0,0,0,0,0,0,0,0,0,0,0,0,0,0,0,0,0,0,0,0]","[0,0,0,0,0,0,0,0,0,0,0,0,0,0,0,0,0,0,0,0,0,0,0,0,0,0,0,0,0,0,0,0,0,0,0,0,0,0,0,0,0,0,0,0,0,0,0,0,0,0,0,0,0,0,0,0,0,0,0,0,0,0,0,0,0,0,0,0,0,0,0,0,0,0,0,0,0,0,0,0,0,0]","[0,0,0,0,0,0,0,0,0,0,0,0,0,0,0,0,0,0,0,0,0,0,0,0,0,0,0,0,0,0,0,0,0,0,0,0,0,0,0,0,0,0,0,0,0,0,0,0,0,0,0,0,0,0,0,0,0,0,0,0,0,0,0,0,0,0,0,0,0,0,0,0,0,0,0,0,0,0,0,0,0,0]","[0,0.012399999998507383,0.02480000000446836,0.03900000000000148,0.05230000000447177,0.06589999999850704,0.08020000000298211,0.09339999999851045,0.10589999999850619,0.11980000000446722,0.13230000000447006,0.14660000000149154,0.15910000000148727,0.17380000000446927,0.18639999999850687,0.19970000000297716,0.21239999999851022,0.22680000000446654,0.23899999999999721,0.2524999999999977,0.2661000000014866,0.27899999999999636,0.29330000000447143,0.3064999999999998,0.31889999999850716,0.33220000000297745,0.34570000000297796,0.35920000000297847,0.3733000000044697,0.3868999999985121,0.3990000000000009,0.41239999999851307,0.4248999999985088,0.4401000000014932,0.4517000000029796,0.46580000000447086,0.47910000000148756,0.4932000000029788,0.506600000001491,0.51889999999851,0.5333000000044734,0.5466000000014901,0.5588999999985091,0.5735000000000028,0.5862000000029823,0.5993000000044688,0.6123999999985088,0.6272000000029792,0.6406000000014913,0.6527000000029801,0.666300000004469,0.6806000000014905,0.6913999999985094,0.7067000000029822,0.7183999999985105,0.733399999998511,0.7448000000044672,0.7580000000000027,0.7723999999985125,0.7848999999985082,0.7982000000029785,0.8128000000044722,0.8248999999985074,0.8383000000044731,0.8543999999985061,0.865000000000002,0.87930000000447,0.8923999999985099,0.9048000000044709,0.9189999999999969,0.9328999999985115,0.9450000000000003,0.9606000000014916,0.9727000000029804,0.9857000000029785,0.9982000000029814,1.011499999999998,1.0264999999999986,1.0382000000029805,1.0516000000014927,1.0657000000029768,1.079500000000003]",5,0,5,0,1,0.0658,,,,
