key_resp.keys,key_resp.rt,key_resp_3.keys,key_resp_3.rt,from,to,w,a,sequence_loop.thisN,mouse.x,mouse.y,mouse.leftButton,mouse.midButton,mouse.rightButton,mouse.time,key_resp_2.keys,trial_loop.thisRepN,trial_loop.thisTrialN,trial_loop.thisN,trial_loop.thisIndex,trial_loop.ran,participant,session,date,expName,psychopyVersion,OS,frameRate,sequence_loop.thisRepN,sequence_loop.thisTrialN,sequence_loop.thisIndex,sequence_loop.ran
return,10.0314,return,0.9334,"[12.4000244140625,-152.79998779296875]","[-192.14153616405,139.5989974194624]",40.5,475,0,"[12.4000244140625,12.4000244140625,12.4000244140625,12.4000244140625,12.4000244140625,12.4000244140625,12.4000244140625,12.4000244140625,12.4000244140625,12.4000244140625,12.4000244140625,12.4000244140625,12.4000244140625,12.4000244140625,12.4000244140625,12.4000244140625,12.4000244140625,12.4000244140625,12.4000244140625,12.4000244140625,12.4000244140625,12.4000244140625,12.4000244140625,12.4000244140625,12.4000244140625,12.4000244140625,12.4000244140625,12.4000244140625,12.4000244140625,12.4000244140625,12.4000244140625,12.4000244140625,12.4000244140625,12.4000244140625,12.4000244140625,12.79998779296875,12.79998779296875,12.79998779296875,12.79998779296875,12.79998779296875,12.79998779296875,12.79998779296875,12.79998779296875,12.79998779296875,12.79998779296875,12.79998779296875,12.79998779296875,12.79998779296875,12.79998779296875,12.79998779296875,12.79998779296875,12.79998779296875,12.79998779296875,12.79998779296875,12.79998779296875,12.79998779296875,12.79998779296875,12.79998779296875,12.79998779296875,12.79998779296875,12.79998779296875,12.79998779296875,12.79998779296875,12.79998779296875,12.79998779296875,12.79998779296875,12.79998779296875,12.79998779296875,12.79998779296875,12.79998779296875,12.79998779296875,12.79998779296875,12.79998779296875,12.79998779296875,12.79998779296875,12.79998779296875,12.79998779296875,12.79998779296875,12.79998779296875,12.79998779296875,12.79998779296875,12.79998779296875,12.79998779296875,12.79998779296875,12.79998779296875,12.4000244140625,11.60003662109375,8.4000244140625,6,-1.20001220703125,-6,-18.39996337890625,-23.5999755859375,-33.5999755859375,-53.20001220703125,-68,-75.20001220703125,-121.20001220703125,-141.20001220703125,-158.79998779296875,-167.20001220703125,-189.5999755859375,-195.20001220703125,-214.39996337890625,-222.39996337890625,-227.5999755859375,-229.20001220703125,-229.5999755859375,-229.5999755859375,-229.5999755859375,-229.5999755859375,-229.5999755859375,-229.5999755859375,-228.39996337890625,-223.20001220703125,-219.20001220703125,-217.20001220703125,-212.39996337890625,-203.20001220703125]","[-152.79998779296875,-152.79998779296875,-152.79998779296875,-152.79998779296875,-152.79998779296875,-152.79998779296875,-152.79998779296875,-152.79998779296875,-152.79998779296875,-152.79998779296875,-152.79998779296875,-152.79998779296875,-152.79998779296875,-152.79998779296875,-152.79998779296875,-152.79998779296875,-152.79998779296875,-152.79998779296875,-152.79998779296875,-152.79998779296875,-152.79998779296875,-152.79998779296875,-152.79998779296875,-152.79998779296875,-152.79998779296875,-152.79998779296875,-152.79998779296875,-152.79998779296875,-152.79998779296875,-152.79998779296875,-152.79998779296875,-152.79998779296875,-152.79998779296875,-152.79998779296875,-152.79998779296875,-151.60003662109375,-151.60003662109375,-150.79998779296875,-149.60003662109375,-149.60003662109375,-149.60003662109375,-148.79998779296875,-148.79998779296875,-148.79998779296875,-148.79998779296875,-148.79998779296875,-148.79998779296875,-148.79998779296875,-148.79998779296875,-148.79998779296875,-148.79998779296875,-148.79998779296875,-148.79998779296875,-148.79998779296875,-148.79998779296875,-148.79998779296875,-148.79998779296875,-148.79998779296875,-147.60003662109375,-147.60003662109375,-147.60003662109375,-147.60003662109375,-147.60003662109375,-147.60003662109375,-147.60003662109375,-147.60003662109375,-147.60003662109375,-147.60003662109375,-147.60003662109375,-147.60003662109375,-147.60003662109375,-147.60003662109375,-147.60003662109375,-147.60003662109375,-147.60003662109375,-147.60003662109375,-147.60003662109375,-147.60003662109375,-147.60003662109375,-147.60003662109375,-147.60003662109375,-147.60003662109375,-147.60003662109375,-147.60003662109375,-147.60003662109375,-144.79998779296875,-142.4000244140625,-132,-121.60003662109375,-89.60003662109375,-74,-50.399993896484375,-43.20001220703125,-30,-13.20001220703125,-3.20001220703125,1.600006103515625,29.600006103515625,42.79998779296875,54.79998779296875,60,77.60000610351562,82.39999389648438,103.60000610351562,113.60000610351562,120.39999389648438,124,126.79998779296875,132.79998779296875,134.39999389648438,134.39999389648438,134.39999389648438,134.39999389648438,134.79998779296875,131.19998168945312,129.19998168945312,128.39999389648438,127.19998168945312,127.60000610351562]","[0,0,0,0,0,0,0,0,0,0,0,0,0,0,0,0,0,0,0,0,0,0,0,0,0,0,0,0,0,0,0,0,0,0,0,0,0,0,0,0,0,0,0,0,0,0,0,0,0,0,0,0,0,0,0,0,0,0,0,0,0,0,0,0,0,0,0,0,0,0,0,0,0,0,0,0,0,0,0,0,0,0,0,0,0,0,0,0,0,0,0,0,0,0,0,0,0,0,0,0,0,0,0,0,0,0,0,0,0,0,0,0,0,0,0,0,0,0,0]","[0,0,0,0,0,0,0,0,0,0,0,0,0,0,0,0,0,0,0,0,0,0,0,0,0,0,0,0,0,0,0,0,0,0,0,0,0,0,0,0,0,0,0,0,0,0,0,0,0,0,0,0,0,0,0,0,0,0,0,0,0,0,0,0,0,0,0,0,0,0,0,0,0,0,0,0,0,0,0,0,0,0,0,0,0,0,0,0,0,0,0,0,0,0,0,0,0,0,0,0,0,0,0,0,0,0,0,0,0,0,0,0,0,0,0,0,0,0,0]","[0,0,0,0,0,0,0,0,0,0,0,0,0,0,0,0,0,0,0,0,0,0,0,0,0,0,0,0,0,0,0,0,0,0,0,0,0,0,0,0,0,0,0,0,0,0,0,0,0,0,0,0,0,0,0,0,0,0,0,0,0,0,0,0,0,0,0,0,0,0,0,0,0,0,0,0,0,0,0,0,0,0,0,0,0,0,0,0,0,0,0,0,0,0,0,0,0,0,0,0,0,0,0,0,0,0,0,0,0,0,0,0,0,0,0,0,0,0,0]","[0.009800000000744546,0.04110000000148517,0.05110000000149029,0.06349999999999767,0.0934999999999988,0.11749999999999972,0.13089999999850477,0.14660000000148443,0.1651999999992526,0.17989999999850426,0.1966000000014887,0.21349999999999625,0.22999999999999687,0.24660000000148585,0.2631000000014865,0.27999999999999403,0.2968999999985087,0.31310000000149074,0.32980000000074483,0.34719999999925477,0.363199999999253,0.3803000000007444,0.39660000000148443,0.4133000000007456,0.42980000000073915,0.44650000000000034,0.46269999999925204,0.47939999999850613,0.49610000000149057,0.5128000000007447,0.5298000000007406,0.5461000000014877,0.5628000000007418,0.5794999999999959,0.5961000000014849,0.6158000000007391,0.6303999999985095,0.6471999999992519,0.6776999999992555,0.6944999999999979,0.7003000000007447,0.7271999999992502,0.7436999999992508,0.7489999999999952,0.7769999999999939,0.7823000000007454,0.8108000000007394,0.8268000000007447,0.8436999999992523,0.8493000000007456,0.8771000000014837,0.8885000000000005,0.8963999999985077,0.9128999999985083,0.943800000000742,0.9601000000014892,0.9643000000007405,0.9793999999985061,1.010399999998505,1.026600000001487,1.0308999999985105,1.0598999999985068,1.0769999999999982,1.0821999999992542,1.1103000000007412,1.1266999999992535,1.1311000000014886,1.1461000000014891,1.1768999999985041,1.1933000000007397,1.197499999999998,1.226399999998506,1.2436000000014857,1.2491999999992487,1.2768000000007405,1.2821000000014848,1.3103999999985092,1.3216000000014887,1.3296000000014843,1.3596000000014854,1.3639999999999972,1.3929999999999936,1.4103000000007455,1.4263999999985089,1.4311999999992508,1.460800000000745,1.4776000000014875,1.4943999999985067,1.5079999999999956,1.5453000000007435,1.5631000000014907,1.588399999998508,1.5996999999992525,1.6153000000007438,1.6291999999992512,1.6558000000007453,1.6661000000014852,1.6938999999985072,1.7118000000007427,1.7303999999985038,1.7461999999992486,1.7643000000007447,1.7801999999992546,1.795899999998504,1.8133000000007442,1.8319999999999936,1.848399999998506,1.8656000000014856,1.8963000000007426,1.914199999999255,1.930899999998509,1.9453999999985072,1.9623000000007451,1.9801000000014852,2.011199999999249,2.028100000001487,2.045899999998504,2.0626000000014884,2.080699999999254]",,0,0,0,0,1,test,001,2022-08-25_16h29.00.963,GoFitts,2022.1.4,Win32,60.04563468,,,,
,,,,"[-192.14153616405,139.5989974194624]","[216.96704619011774,-96.59995273050254]",40.5,475,0,"[-203.20001220703125,-202,-201.5999755859375,-200.39996337890625,-200,-198,-198,-196.39996337890625,-194.79998779296875,-194,-194,-192.79998779296875,-192,-192,-192,-192,-192,-192,-192,-192,-192,-192,-192,-192,-192,-192,-192,-192,-192,-192,-192,-192,-192,-169.5999755859375,-141.20001220703125,-122.39996337890625,-77.20001220703125,-24,4,64.4000244140625,162.4000244140625,200.79998779296875,218,256,259.5999755859375,260,260,260,260,260,260,259.5999755859375,258.4000244140625,257.2000732421875,250.4000244140625,245.60003662109375,241.60003662109375,240,237.60003662109375,235.20001220703125,234,233.60003662109375,231.20001220703125]","[127.60000610351562,128,128.79998779296875,129.19998168945312,129.60000610351562,131.19998168945312,131.19998168945312,132.39999389648438,133.60000610351562,134.39999389648438,134.39999389648438,135.19998168945312,136,136,136,136,136,136,136,136,136,136,136,136,136,136,136,136,136,136,136,136,136,122,104.79998779296875,92.79998779296875,68.39999389648438,44.399993896484375,34.399993896484375,16,-11.600006103515625,-22.800018310546875,-28.800018310546875,-43.20001220703125,-45.20001220703125,-45.600006103515625,-45.600006103515625,-45.600006103515625,-45.600006103515625,-45.600006103515625,-45.600006103515625,-46,-47.600006103515625,-48.800018310546875,-60.399993896484375,-66.80001831054688,-71.60000610351562,-73.20001220703125,-76,-78.39999389648438,-79.20001220703125,-80,-82.79998779296875]","[0,0,0,0,0,0,0,0,0,0,0,0,0,0,0,0,0,0,0,0,0,0,0,0,0,0,0,0,0,0,0,0,0,0,0,0,0,0,0,0,0,0,0,0,0,0,0,0,0,0,0,0,0,0,0,0,0,0,0,0,0,0,0]","[0,0,0,0,0,0,0,0,0,0,0,0,0,0,0,0,0,0,0,0,0,0,0,0,0,0,0,0,0,0,0,0,0,0,0,0,0,0,0,0,0,0,0,0,0,0,0,0,0,0,0,0,0,0,0,0,0,0,0,0,0,0,0]","[0,0,0,0,0,0,0,0,0,0,0,0,0,0,0,0,0,0,0,0,0,0,0,0,0,0,0,0,0,0,0,0,0,0,0,0,0,0,0,0,0,0,0,0,0,0,0,0,0,0,0,0,0,0,0,0,0,0,0,0,0,0,0]","[0.0021999999992559083,0.012199999999253919,0.02850000000000108,0.04549999999999699,0.06269999999925346,0.07959999999776102,0.1045999999977596,0.11299999999999955,0.1446999999992542,0.1605999999977641,0.17199999999999704,0.18839999999850932,0.1985999999977608,0.2125999999977637,0.228199999999255,0.2448999999985091,0.2615999999977632,0.27819999999925216,0.2949999999999946,0.3117999999970209,0.32849999999999824,0.3451999999992523,0.3618999999985064,0.3780999999977652,0.3947999999970193,0.41149999999999665,0.42829999999701585,0.4448999999985048,0.4615000000000009,0.47809999999775954,0.4946999999992556,0.5116999999992515,0.5280999999977638,0.5467999999970203,0.5625,0.5808999999985076,0.5955000000000013,0.611699999999253,0.6296999999992536,0.6447999999970193,0.6620999999977641,0.6822999999970207,0.6955999999977607,0.7118999999985078,0.7288999999985109,0.7539999999999978,0.7615999999977632,0.7778999999985103,0.794399999998511,0.811099999997765,0.8278999999985075,0.8451999999992523,0.8626999999992506,0.8781999999992536,0.8950999999977611,0.9141999999992549,0.9311999999992508,0.9486999999992562,0.9613999999985055,0.9785999999977619,1.0068999999985095,1.0143999999985098,1.042899999998511]",,1,0,1,0,1,test,001,2022-08-25_16h29.00.963,GoFitts,2022.1.4,Win32,60.04563468,,,,
,,,,"[216.96704619011774,-96.59995273050254]","[-232.31005517427886,49.379026569217835]",40.5,475,0,"[231.20001220703125,228.79998779296875,228.79998779296875,226.4000244140625,224.79998779296875,224,224,224,224,224,224,224,224,224,224,224,224,221.60003662109375,217.60003662109375,148,124.79998779296875,76.79998779296875,-6,-84,-132.39996337890625,-168,-188.39996337890625,-197.5999755859375,-199.20001220703125,-199.20001220703125,-199.20001220703125,-198.79998779296875,-198.79998779296875,-198.79998779296875,-198.79998779296875,-198.79998779296875,-198.79998779296875,-199.20001220703125,-202,-207.20001220703125,-216.39996337890625,-221.5999755859375]","[-82.79998779296875,-86,-86,-88.79998779296875,-91.20001220703125,-92.4000244140625,-93.20001220703125,-93.20001220703125,-93.20001220703125,-93.20001220703125,-93.20001220703125,-93.20001220703125,-93.20001220703125,-93.20001220703125,-93.20001220703125,-93.20001220703125,-93.20001220703125,-92.79998779296875,-90.79998779296875,-64.80001831054688,-58,-42.800018310546875,-20.399993896484375,-2.399993896484375,10,16,20.399993896484375,21.199981689453125,21.199981689453125,21.199981689453125,21.199981689453125,21.199981689453125,21.199981689453125,21.199981689453125,21.199981689453125,21.199981689453125,21.199981689453125,21.600006103515625,22.79998779296875,25.600006103515625,30,32.79998779296875]","[0,0,0,0,0,0,0,0,0,0,0,0,0,0,0,0,0,0,0,0,0,0,0,0,0,0,0,0,0,0,0,0,0,0,0,0,0,0,0,0,0,0]","[0,0,0,0,0,0,0,0,0,0,0,0,0,0,0,0,0,0,0,0,0,0,0,0,0,0,0,0,0,0,0,0,0,0,0,0,0,0,0,0,0,0]","[0,0,0,0,0,0,0,0,0,0,0,0,0,0,0,0,0,0,0,0,0,0,0,0,0,0,0,0,0,0,0,0,0,0,0,0,0,0,0,0,0,0]","[0.00039999999851403345,0.034899999998508235,0.05150000000000432,0.06860000000148858,0.0996999999992596,0.11419999999925778,0.14880000000074745,0.16460000000149222,0.16810000000149472,0.1844999999999999,0.21530000000074523,0.2206000000014896,0.2478999999985092,0.25289999999851176,0.26760000000149375,0.28439999999851295,0.30130000000074375,0.33339999999851244,0.3458999999985082,0.3836000000014934,0.39669999999925665,0.40580000000074534,0.43380000000074403,0.4668999999985104,0.4846000000014925,0.5020000000000024,0.5189999999999984,0.5361000000014897,0.5516999999992578,0.5685000000000002,0.5841000000014915,0.6011000000014945,0.6173999999985114,0.6341999999992538,0.6511000000014917,0.6814999999999998,0.6861000000014954,0.7031000000014913,0.7186999999992594,0.7371000000014902,0.7516000000014884,0.7683000000007496]",,2,0,2,0,1,test,001,2022-08-25_16h29.00.963,GoFitts,2022.1.4,Win32,60.04563468,,,,
,,,,"[-232.31005517427886,49.379026569217835]","[237.5,0]",40.5,475,0,"[-221.5999755859375,-224.79998779296875,-224.79998779296875,-225.20001220703125,-225.20001220703125,-225.20001220703125,-225.20001220703125,-225.5999755859375,-226.39996337890625,-226.79998779296875,-227.20001220703125,-227.20001220703125,-227.20001220703125,-227.20001220703125,-227.20001220703125,-227.20001220703125,-227.20001220703125,-227.20001220703125,-227.20001220703125,-222,-211.5999755859375,-201.5999755859375,-176,-138.79998779296875,-33.5999755859375,-3.5999755859375,52,101.20001220703125,174.79998779296875,186.79998779296875,210,210,210,210,210,210,210,210,210,210,210,210,211.20001220703125,211.20001220703125,212,212.4000244140625,213.20001220703125,214,215.20001220703125,215.20001220703125,216.4000244140625,218.79998779296875]","[32.79998779296875,35.199981689453125,35.199981689453125,36.79998779296875,37.199981689453125,38.399993896484375,39.199981689453125,40.399993896484375,42,42.399993896484375,43.199981689453125,43.199981689453125,43.199981689453125,43.199981689453125,43.199981689453125,43.199981689453125,43.199981689453125,43.199981689453125,43.199981689453125,42.399993896484375,40.399993896484375,38.79998779296875,36,34.399993896484375,24,20.399993896484375,13.199981689453125,8,-4,-6,-10,-10,-10,-10,-10,-10,-10,-10,-10,-10,-10,-10,-10,-10,-10,-9.600006103515625,-9.20001220703125,-8.800018310546875,-8.399993896484375,-8.399993896484375,-7.600006103515625,-6.800018310546875]","[0,0,0,0,0,0,0,0,0,0,0,0,0,0,0,0,0,0,0,0,0,0,0,0,0,0,0,0,0,0,0,0,0,0,0,0,0,0,0,0,0,0,0,0,0,0,0,0,0,0,0,0]","[0,0,0,0,0,0,0,0,0,0,0,0,0,0,0,0,0,0,0,0,0,0,0,0,0,0,0,0,0,0,0,0,0,0,0,0,0,0,0,0,0,0,0,0,0,0,0,0,0,0,0,0]","[0,0,0,0,0,0,0,0,0,0,0,0,0,0,0,0,0,0,0,0,0,0,0,0,0,0,0,0,0,0,0,0,0,0,0,0,0,0,0,0,0,0,0,0,0,0,0,0,0,0,0,0]","[0.0011000000014931288,0.031500000000001194,0.04250000000000398,0.051699999999257784,0.0800000000000054,0.09700000000000131,0.11689999999851608,0.14719999999925903,0.16450000000000387,0.18289999999851148,0.2001000000014912,0.21589999999851273,0.23189999999851096,0.24910000000149068,0.2656000000014913,0.2963000000007483,0.30180000000074614,0.31580000000074904,0.3323999999985148,0.363100000001495,0.38130000000074915,0.398600000001494,0.4161999999992574,0.4323000000007511,0.4498000000007494,0.46539999999851034,0.48289999999851574,0.49980000000074654,0.5243999999985149,0.5328999999985129,0.5483999999985159,0.5793000000007495,0.5973000000007502,0.6098999999985111,0.6178000000007486,0.64539999999851,0.6626999999992549,0.6796999999992579,0.6961999999992585,0.7136000000014917,0.729600000001497,0.7468999999985115,0.7635000000000005,0.7801000000014966,0.8143999999985141,0.8316999999992589,0.8488999999985154,0.8661999999992602,0.8963999999985148,0.9136999999992597,0.9273000000007485,0.9651000000014918]",,3,0,3,0,1,test,001,2022-08-25_16h29.00.963,GoFitts,2022.1.4,Win32,60.04563468,,,,
,,,,"[237.5,0]","[-232.31005517427886,-49.37902656921778]",40.5,475,0,"[218.79998779296875,219.60003662109375,222.4000244140625,223.60003662109375,226.4000244140625,228.4000244140625,232,232,232,232,232,232,232,232,232,232,232,228.4000244140625,202,130.79998779296875,94.79998779296875,72.79998779296875,6.4000244140625,-40.39996337890625,-78.79998779296875,-105.5999755859375,-139.5999755859375,-141.20001220703125,-141.20001220703125,-142.39996337890625,-144,-144.39996337890625,-151.20001220703125,-154,-166,-189.5999755859375,-189.5999755859375,-208.39996337890625,-215.5999755859375]","[-6.800018310546875,-6.399993896484375,-5.20001220703125,-4.800018310546875,-3.20001220703125,-2.399993896484375,-0.399993896484375,-0.399993896484375,-0.399993896484375,-0.399993896484375,-0.399993896484375,-0.399993896484375,-0.399993896484375,-0.399993896484375,-0.399993896484375,-0.399993896484375,-0.399993896484375,-1.600006103515625,-3.600006103515625,-6,-6.800018310546875,-6.800018310546875,-6.800018310546875,-6.800018310546875,-7.600006103515625,-7.600006103515625,-9.20001220703125,-9.600006103515625,-9.600006103515625,-10.399993896484375,-11.20001220703125,-11.20001220703125,-13.20001220703125,-14,-18.399993896484375,-31.20001220703125,-31.20001220703125,-46,-51.600006103515625]","[0,0,0,0,0,0,0,0,0,0,0,0,0,0,0,0,0,0,0,0,0,0,0,0,0,0,0,0,0,0,0,0,0,0,0,0,0,0,0]","[0,0,0,0,0,0,0,0,0,0,0,0,0,0,0,0,0,0,0,0,0,0,0,0,0,0,0,0,0,0,0,0,0,0,0,0,0,0,0]","[0,0,0,0,0,0,0,0,0,0,0,0,0,0,0,0,0,0,0,0,0,0,0,0,0,0,0,0,0,0,0,0,0,0,0,0,0,0,0]","[0.0006000000014907414,0.016500000000000625,0.033700000002980346,0.04970000000298569,0.06620000000298631,0.08330000000074733,0.09940000000224103,0.11599999999999966,0.1328000000007492,0.14960000000149165,0.16620000000298063,0.18270000000298126,0.19920000000298188,0.21610000000149654,0.2464000000022395,0.25090000000223966,0.26680000000074955,0.2992000000029833,0.3167000000029816,0.34890000000223864,0.3661000000014951,0.38300000000000267,0.39960000000149165,0.41900000000000404,0.43410000000149296,0.45020000000298666,0.4803000000007458,0.4930000000000021,0.5150000000000006,0.5279000000022407,0.5367000000029805,0.5657000000029839,0.5991000000014921,0.6157000000029811,0.6362000000029866,0.6531000000014942,0.6747000000029857,0.6835000000000022,0.71630000000075]",,4,0,4,0,1,test,001,2022-08-25_16h29.00.963,GoFitts,2022.1.4,Win32,60.04563468,,,,
,,,,"[-232.31005517427886,-49.37902656921778]","[216.9670461901177,96.59995273050254]",40.5,475,0,"[-215.5999755859375,-217.20001220703125,-218,-218.39996337890625,-219.20001220703125,-219.20001220703125,-219.20001220703125,-219.20001220703125,-219.20001220703125,-219.20001220703125,-219.20001220703125,-219.20001220703125,-219.20001220703125,-219.20001220703125,-219.20001220703125,-219.20001220703125,-219.20001220703125,-219.20001220703125,-214,-200,-190,-127.20001220703125,-109.20001220703125,-88,8.79998779296875,84,97.20001220703125,128.79998779296875,136.4000244140625,147.60003662109375,158.4000244140625,167.60003662109375,170.4000244140625,174.79998779296875,176.4000244140625,177.20001220703125,184.4000244140625,192.4000244140625,202.4000244140625]","[-51.600006103515625,-52.800018310546875,-53.600006103515625,-54,-55.20001220703125,-55.20001220703125,-55.20001220703125,-55.20001220703125,-55.20001220703125,-55.20001220703125,-55.20001220703125,-55.20001220703125,-55.20001220703125,-55.20001220703125,-55.20001220703125,-55.20001220703125,-55.20001220703125,-55.20001220703125,-52.399993896484375,-46.399993896484375,-42,-11.20001220703125,-2.399993896484375,6.399993896484375,38.399993896484375,60.399993896484375,63.600006103515625,70,71.60000610351562,73.60000610351562,75.60000610351562,80,82.79998779296875,85.60000610351562,86.39999389648438,86.39999389648438,86.79998779296875,86.79998779296875,88.39999389648438]","[0,0,0,0,0,0,0,0,0,0,0,0,0,0,0,0,0,0,0,0,0,0,0,0,0,0,0,0,0,0,0,0,0,0,0,0,0,0,0]","[0,0,0,0,0,0,0,0,0,0,0,0,0,0,0,0,0,0,0,0,0,0,0,0,0,0,0,0,0,0,0,0,0,0,0,0,0,0,0]","[0,0,0,0,0,0,0,0,0,0,0,0,0,0,0,0,0,0,0,0,0,0,0,0,0,0,0,0,0,0,0,0,0,0,0,0,0,0,0]","[0.0008999999985093154,0.015199999999254032,0.03249999999999886,0.048600000001485455,0.06530000000073954,0.09539999999850579,0.10060000000148506,0.11460000000148796,0.13110000000148858,0.1481999999992496,0.1791999999992484,0.19060000000148847,0.19860000000148403,0.21480000000074284,0.23149999999999693,0.24830000000073937,0.2648999999985051,0.29539999999850863,0.3141000000014884,0.32669999999924926,0.33499999999999375,0.3636999999992483,0.3803000000007444,0.39830000000074506,0.43069999999924846,0.44739999999850966,0.4636999999992497,0.47699999999999676,0.4846000000014854,0.5148999999985051,0.549199999999253,0.5659999999999954,0.5816999999992518,0.6139999999999972,0.6316000000014839,0.6476999999992543,0.6644999999999968,0.6911999999992489,0.7014999999999958]",,5,0,5,0,1,test,001,2022-08-25_16h29.00.963,GoFitts,2022.1.4,Win32,60.04563468,,,,
,,,,"[216.9670461901177,96.59995273050254]","[-192.14153616405002,-139.59899741946234]",40.5,475,0,"[202.4000244140625,218.4000244140625,219.20001220703125,219.20001220703125,219.20001220703125,219.20001220703125,219.20001220703125,219.20001220703125,219.20001220703125,219.20001220703125,219.20001220703125,219.20001220703125,219.20001220703125,219.20001220703125,219.20001220703125,219.20001220703125,219.20001220703125,219.20001220703125,219.20001220703125,218.4000244140625,218,214,210,200.4000244140625,178.4000244140625,150.79998779296875,111.20001220703125,92.4000244140625,15.60003662109375,-24,-40.79998779296875,-70,-102.79998779296875,-118,-125.5999755859375,-135.20001220703125,-136.79998779296875,-138.79998779296875,-140,-142,-142.79998779296875,-147.5999755859375,-153.20001220703125,-159.5999755859375,-163.20001220703125,-172.39996337890625,-181.5999755859375,-186.39996337890625,-196.79998779296875]","[88.39999389648438,92,92,92,92,92,92,92,92,92,92,92,92,92,92,92,92,92,92.39999389648438,94,94.39999389648438,97.60000610351562,99.19998168945312,101.19998168945312,102.39999389648438,102.39999389648438,98.39999389648438,94.39999389648438,66,40.79998779296875,28.79998779296875,6.79998779296875,-22,-38,-46.399993896484375,-57.600006103515625,-58.800018310546875,-62,-64,-66,-67.20001220703125,-71.60000610351562,-76.80001831054688,-82,-85.20001220703125,-93.60003662109375,-104,-110,-123.20001220703125]","[0,0,0,0,0,0,0,0,0,0,0,0,0,0,0,0,0,0,0,0,0,0,0,0,0,0,0,0,0,0,0,0,0,0,0,0,0,0,0,0,0,0,0,0,0,0,0,0,0]","[0,0,0,0,0,0,0,0,0,0,0,0,0,0,0,0,0,0,0,0,0,0,0,0,0,0,0,0,0,0,0,0,0,0,0,0,0,0,0,0,0,0,0,0,0,0,0,0,0]","[0,0,0,0,0,0,0,0,0,0,0,0,0,0,0,0,0,0,0,0,0,0,0,0,0,0,0,0,0,0,0,0,0,0,0,0,0,0,0,0,0,0,0,0,0,0,0,0,0]","[0.000399999998506928,0.026499999999998636,0.03839999999851074,0.058899999998509145,0.06289999999850693,0.07839999999850988,0.09519999999925233,0.11189999999850642,0.1285999999977605,0.1452999999970146,0.16179999999701522,0.17849999999999966,0.19519999999925375,0.21179999999701948,0.22839999999850846,0.24509999999776255,0.261899999998505,0.2783999999985056,0.29619999999925284,0.3275999999977657,0.3443999999985081,0.36529999999702056,0.3790999999977629,0.3947999999970193,0.41149999999999665,0.42819999999925074,0.44519999999925375,0.46139999999850545,0.4782999999970201,0.497099999997765,0.512299999997019,0.5319999999999965,0.546999999999997,0.5634999999999977,0.5788999999985052,0.5953999999985058,0.6115999999977646,0.6281999999992536,0.6446999999992542,0.6614999999999966,0.6784999999999997,0.6977999999970166,0.7113999999985055,0.7287999999970154,0.7450999999977626,0.7625999999977608,0.7793999999985104,0.7959999999999994,0.8123999999985045]",,6,0,6,0,1,test,001,2022-08-25_16h29.00.963,GoFitts,2022.1.4,Win32,60.04563468,,,,
,,,,"[-192.14153616405002,-139.59899741946234]","[158.91851901022883,176.49689605088113]",40.5,475,0,"[-196.79998779296875,-204.79998779296875,-205.5999755859375,-205.5999755859375,-205.5999755859375,-205.5999755859375,-205.5999755859375,-205.5999755859375,-205.5999755859375,-205.5999755859375,-205.5999755859375,-205.5999755859375,-205.5999755859375,-205.5999755859375,-204.79998779296875,-204.79998779296875,-204,-201.5999755859375,-195.5999755859375,-181.20001220703125,-169.5999755859375,-134.39996337890625,-76.79998779296875,-0.79998779296875,24,128.4000244140625,143.60003662109375,155.60003662109375]","[-123.20001220703125,-135.60003662109375,-138,-140,-140,-140,-140,-140,-140,-140,-140,-140,-140,-140,-140.4000244140625,-140.4000244140625,-140,-138.4000244140625,-134.4000244140625,-124.4000244140625,-116,-88.4000244140625,-35.20001220703125,38.399993896484375,60.399993896484375,141.60000610351562,151.19998168945312,160.39999389648438]","[0,0,0,0,0,0,0,0,0,0,0,0,0,0,0,0,0,0,0,0,0,0,0,0,0,0,0,0]","[0,0,0,0,0,0,0,0,0,0,0,0,0,0,0,0,0,0,0,0,0,0,0,0,0,0,0,0]","[0,0,0,0,0,0,0,0,0,0,0,0,0,0,0,0,0,0,0,0,0,0,0,0,0,0,0,0]","[0.0011999999992511334,0.014800000000739999,0.030600000001484773,0.048600000001485455,0.07549999999999812,0.08580000000074506,0.09730000000074313,0.12830000000074193,0.13260000000148864,0.14699999999999847,0.16390000000222926,0.19430000000074443,0.19810000000148875,0.2136000000014846,0.23090000000222943,0.24749999999999517,0.2661000000014866,0.29480000000074114,0.30780000000073926,0.32450000000000045,0.34499999999999886,0.3496000000014874,0.3674999999999997,0.39699999999999847,0.4138000000007409,0.43060000000149046,0.4469000000022305,0.46399999999999864]",,7,0,7,0,1,test,001,2022-08-25_16h29.00.963,GoFitts,2022.1.4,Win32,60.04563468,,,,
,,,,"[158.91851901022883,176.49689605088113]","[-118.7500000000001,-205.68103339880415]",40.5,475,0,"[155.60003662109375,156.79998779296875,157.20001220703125,156.79998779296875,155.20001220703125,155.20001220703125,154.79998779296875,154.79998779296875,154.79998779296875,154.79998779296875,154.79998779296875,154.79998779296875,154.79998779296875,154.79998779296875,154.79998779296875,154.79998779296875,154.79998779296875,154.79998779296875,154.79998779296875,154.79998779296875,154.79998779296875,146.79998779296875,120.79998779296875,108.4000244140625,60.4000244140625,60.4000244140625,30,-29.5999755859375,-40.79998779296875,-66.79998779296875,-71.5999755859375,-82.39996337890625,-84.79998779296875,-88.79998779296875,-95.5999755859375,-100.79998779296875,-102,-104.79998779296875,-109.5999755859375,-120.39996337890625,-122,-122,-122,-121.20001220703125]","[160.39999389648438,162,162.79998779296875,162.79998779296875,162.79998779296875,162.79998779296875,162.79998779296875,162.79998779296875,162.79998779296875,162.79998779296875,162.79998779296875,162.79998779296875,163.19998168945312,163.19998168945312,163.19998168945312,163.19998168945312,163.19998168945312,163.19998168945312,163.19998168945312,163.19998168945312,163.19998168945312,156.39999389648438,131.19998168945312,119.19998168945312,71.60000610351562,71.60000610351562,39.199981689453125,-29.20001220703125,-42.800018310546875,-74.80001831054688,-80.4000244140625,-94,-97.20001220703125,-102.4000244140625,-109.60003662109375,-115.60003662109375,-117.60003662109375,-122,-128.79998779296875,-148,-152.79998779296875,-158,-167.60003662109375,-187.60003662109375]","[0,0,0,0,0,0,0,0,0,0,0,0,0,0,0,0,0,0,0,0,0,0,0,0,0,0,0,0,0,0,0,0,0,0,0,0,0,0,0,0,0,0,0,0]","[0,0,0,0,0,0,0,0,0,0,0,0,0,0,0,0,0,0,0,0,0,0,0,0,0,0,0,0,0,0,0,0,0,0,0,0,0,0,0,0,0,0,0,0]","[0,0,0,0,0,0,0,0,0,0,0,0,0,0,0,0,0,0,0,0,0,0,0,0,0,0,0,0,0,0,0,0,0,0,0,0,0,0,0,0,0,0,0,0]","[0.0008999999985093154,0.017800000000740113,0.03330000000074307,0.049899999998508804,0.07019999999925375,0.08280000000074494,0.09989999999850596,0.129800000000742,0.134999999999998,0.1629999999999967,0.16769999999925034,0.18219999999925562,0.21389999999851028,0.2316999999992504,0.24269999999925318,0.25939999999850727,0.2743000000007427,0.2820999999977616,0.298800000000746,0.3155000000000001,0.33200000000000074,0.34930000000074557,0.36869999999925085,0.38269999999925375,0.4013999999985103,0.4164999999999992,0.4323999999985091,0.4498999999985074,0.4758000000007456,0.4851999999992529,0.49909999999776034,0.515599999997761,0.5353000000007455,0.5526999999992555,0.5820999999977658,0.6154999999999973,0.6328000000007421,0.6509999999999962,0.665300000000741,0.682300000000744,0.6988000000007446,0.7240999999977618,0.7328999999985086,0.7643999999985098]",,8,0,8,0,1,test,001,2022-08-25_16h29.00.963,GoFitts,2022.1.4,Win32,60.04563468,,,,
,,,,"[-118.7500000000001,-205.68103339880415]","[73.39153616405002,225.87592262009898]",40.5,475,0,"[-121.20001220703125,-121.20001220703125,-121.20001220703125,-121.20001220703125,-121.20001220703125,-119.5999755859375,-119.5999755859375,-119.5999755859375,-118,-118,-116.39996337890625,-115.5999755859375,-114.39996337890625,-113.5999755859375,-110.79998779296875,-110,-104.79998779296875,-96.79998779296875,-85.20001220703125,-68.79998779296875,-52.79998779296875,-40.39996337890625,-27.20001220703125,-22.39996337890625,-11.5999755859375,-5.20001220703125,1.60003662109375,4.79998779296875,11.60003662109375,13.60003662109375,17.20001220703125,21.60003662109375,23.20001220703125,28.4000244140625,38,47.20001220703125,51.60003662109375,58.79998779296875]","[-187.60003662109375,-193.20001220703125,-200.4000244140625,-213.60003662109375,-216,-220.79998779296875,-220.79998779296875,-220.79998779296875,-220.79998779296875,-220.79998779296875,-219.60003662109375,-219.20001220703125,-218.4000244140625,-217.20001220703125,-213.60003662109375,-212.4000244140625,-202.4000244140625,-179.20001220703125,-120.79998779296875,-25.600006103515625,60.79998779296875,91.19998168945312,114.79998779296875,122,134.79998779296875,140.39999389648438,144,144.79998779296875,147.60000610351562,148.79998779296875,152,156,156.79998779296875,162,176,192,199.59999084472656,212.39999389648438]","[0,0,0,0,0,0,0,0,0,0,0,0,0,0,0,0,0,0,0,0,0,0,0,0,0,0,0,0,0,0,0,0,0,0,0,0,0,0]","[0,0,0,0,0,0,0,0,0,0,0,0,0,0,0,0,0,0,0,0,0,0,0,0,0,0,0,0,0,0,0,0,0,0,0,0,0,0]","[0,0,0,0,0,0,0,0,0,0,0,0,0,0,0,0,0,0,0,0,0,0,0,0,0,0,0,0,0,0,0,0,0,0,0,0,0,0]","[0.0008999999985093154,0.015899999998509884,0.028600000001489434,0.06489999999850937,0.08380000000074261,0.10349999999999682,0.11699999999999733,0.13319999999925614,0.14999999999999858,0.16689999999850613,0.18360000000149057,0.2001000000014912,0.21730000000074057,0.23449999999999704,0.26639999999851227,0.2849999999999966,0.3103999999985092,0.3203999999985072,0.3338999999985077,0.3666999999992555,0.3943000000007473,0.4041000000014918,0.41689999999850613,0.4488999999985097,0.4701999999992523,0.4841000000014901,0.5105000000000004,0.521800000000745,0.5478999999985064,0.5655000000000001,0.5841999999992566,0.6000000000000014,0.6171000000014857,0.6338000000007469,0.6651999999992526,0.6824999999999974,0.6946999999992514,0.7031999999992564]",,9,0,9,0,1,test,001,2022-08-25_16h29.00.963,GoFitts,2022.1.4,Win32,60.04563468,,,,
,,,,"[73.39153616405002,225.87592262009898]","[-24.82551002606788,-236.1989501499649]",40.5,475,0,"[58.79998779296875,73.60003662109375,76.79998779296875,83.20001220703125,84.4000244140625,84.79998779296875,84.79998779296875,84.79998779296875,84.79998779296875,84.79998779296875,84.79998779296875,84.79998779296875,84.79998779296875,84.79998779296875,84.4000244140625,82.79998779296875,80.79998779296875,77.60003662109375,68,59.60003662109375,48,38.79998779296875,32.79998779296875,29.20001220703125,26.4000244140625,26,24.79998779296875,22,19.20001220703125,16.79998779296875,10.79998779296875,10.79998779296875,9.20001220703125,8.4000244140625,8.4000244140625,8.4000244140625,8,5.20001220703125,1.60003662109375,-7.5999755859375,-10.79998779296875,-16,-24]","[212.39999389648438,238.39999389648438,244.8000030517578,257.1999969482422,261.59999084472656,262.3999938964844,262.3999938964844,262.3999938964844,262.3999938964844,262.3999938964844,262.3999938964844,262.3999938964844,262.3999938964844,262,259.59999084472656,256,248.39999389648438,237.1999969482422,208,184,152.39999389648438,118.39999389648438,83.60000610351562,38.79998779296875,-1.600006103515625,-34.800018310546875,-97.60003662109375,-121.60003662109375,-134.79998779296875,-141.60003662109375,-153.60003662109375,-153.60003662109375,-159.20001220703125,-161.60003662109375,-163.60003662109375,-165.60003662109375,-168.4000244140625,-178,-186.79998779296875,-202.4000244140625,-207.20001220703125,-215.60003662109375,-228.4000244140625]","[0,0,0,0,0,0,0,0,0,0,0,0,0,0,0,0,0,0,0,0,0,0,0,0,0,0,0,0,0,0,0,0,0,0,0,0,0,0,0,0,0,0,0]","[0,0,0,0,0,0,0,0,0,0,0,0,0,0,0,0,0,0,0,0,0,0,0,0,0,0,0,0,0,0,0,0,0,0,0,0,0,0,0,0,0,0,0]","[0,0,0,0,0,0,0,0,0,0,0,0,0,0,0,0,0,0,0,0,0,0,0,0,0,0,0,0,0,0,0,0,0,0,0,0,0,0,0,0,0,0,0]","[0.0003000000007489234,0.02850000000000108,0.043899999998508576,0.0625,0.09600000000000364,0.10789999999850863,0.12230000000074881,0.13019999999925602,0.1460000000000008,0.16280000000074324,0.1796000000014928,0.19599999999999795,0.21269999999925915,0.23000000000000398,0.24669999999925807,0.26410000000149125,0.2793999999985104,0.2966999999992552,0.314300000000749,0.3305000000000007,0.3466999999992524,0.3636999999992554,0.3808999999985119,0.3965000000000032,0.41310000000149216,0.4299999999999997,0.44650000000000034,0.4650000000000034,0.4903000000007438,0.49989999999851165,0.528899999998508,0.5453999999985086,0.5618000000007441,0.5784999999999982,0.5951000000014943,0.6113999999985111,0.6289999999999978,0.6613999999985083,0.678600000001488,0.696399999998512,0.7139999999999986,0.7321999999992528,0.7473000000007488]",,10,0,10,0,1,test,001,2022-08-25_16h29.00.963,GoFitts,2022.1.4,Win32,60.04563468,,,,
,,,,"[-24.82551002606788,-236.1989501499649]","[-24.825510026067665,236.19895014996493]",40.5,475,0,"[-24,-27.5999755859375,-28,-28,-28,-28,-28,-27.5999755859375,-27.5999755859375,-27.5999755859375,-27.5999755859375,-26.39996337890625,-19.20001220703125,-16.39996337890625,14.79998779296875,25.20001220703125,31.60003662109375,32.4000244140625,34.4000244140625,36.4000244140625,33.60003662109375,32.79998779296875,28.4000244140625,26,22.79998779296875,18.4000244140625,18.4000244140625,12.4000244140625,-3.5999755859375,-6.39996337890625,-10.39996337890625,-16.39996337890625,-18.39996337890625,-21.5999755859375,-24.79998779296875,-25.5999755859375,-27.5999755859375]","[-228.4000244140625,-237.60003662109375,-239.60003662109375,-240.4000244140625,-241.60003662109375,-242.79998779296875,-245.60003662109375,-247.60003662109375,-247.60003662109375,-247.60003662109375,-247.60003662109375,-247.60003662109375,-242.4000244140625,-240.4000244140625,-209.60003662109375,-185.60003662109375,-152,-137.20001220703125,-114,-11.20001220703125,40.79998779296875,65.60000610351562,135.60000610351562,155.19998168945312,166.79998779296875,174.39999389648438,174.39999389648438,178,183.1999969482422,184.39999389648438,186.39999389648438,191.1999969482422,195.1999969482422,201.1999969482422,211.59999084472656,214.39999389648438,224.8000030517578]","[0,0,0,0,0,0,0,0,0,0,0,0,0,0,0,0,0,0,0,0,0,0,0,0,0,0,0,0,0,0,0,0,0,0,0,0,0]","[0,0,0,0,0,0,0,0,0,0,0,0,0,0,0,0,0,0,0,0,0,0,0,0,0,0,0,0,0,0,0,0,0,0,0,0,0]","[0,0,0,0,0,0,0,0,0,0,0,0,0,0,0,0,0,0,0,0,0,0,0,0,0,0,0,0,0,0,0,0,0,0,0,0,0]","[0.0012999999970162435,0.015699999999249314,0.03259999999776397,0.04929999999701806,0.06509999999776284,0.08459999999776358,0.09879999999701994,0.11459999999776471,0.13079999999701641,0.14769999999925432,0.16429999999702005,0.1810999999977625,0.21329999999701954,0.22589999999851074,0.2643999999985098,0.2810999999977639,0.2990999999977646,0.3155999999977652,0.3343999999985101,0.34899999999999665,0.3653999999985089,0.38109999999776534,0.3981999999992496,0.4143999999985084,0.43169999999925324,0.46319999999925443,0.47969999999925506,0.49319999999925557,0.530799999997015,0.5474999999999994,0.5644999999999953,0.5812999999970145,0.5973999999985082,0.6147999999970182,0.6460999999977659,0.6639999999999944,0.6814999999999998]",,11,0,11,0,1,test,001,2022-08-25_16h29.00.963,GoFitts,2022.1.4,Win32,60.04563468,,,,
,,,,"[-24.825510026067665,236.19895014996493]","[73.39153616404997,-225.875922620099]",40.5,475,0,"[-27.5999755859375,-28.79998779296875,-30,-30.39996337890625,-31.5999755859375,-32.79998779296875,-33.5999755859375,-33.5999755859375,-33.5999755859375,-33.5999755859375,-34.39996337890625,-34.39996337890625,-33.20001220703125,-26,-26,-2.39996337890625,9.60003662109375,15.60003662109375,17.20001220703125,18,18.4000244140625,18.4000244140625,18.79998779296875,18.79998779296875,18.79998779296875,18.79998779296875,20,21.20001220703125,22.4000244140625,27.20001220703125,52.4000244140625,73.20001220703125]","[224.8000030517578,235.1999969482422,243.59999084472656,246.39999389648438,255.1999969482422,258,259.1999969482422,259.1999969482422,259.1999969482422,256.8000030517578,248.8000030517578,230,178.39999389648438,105.19998168945312,105.19998168945312,-33.20001220703125,-100.79998779296875,-144.79998779296875,-162.79998779296875,-168.79998779296875,-173.60003662109375,-175.20001220703125,-178,-178,-178,-178,-183.20001220703125,-188,-191.20001220703125,-198.79998779296875,-218.79998779296875,-226]","[0,0,0,0,0,0,0,0,0,0,0,0,0,0,0,0,0,0,0,0,0,0,0,0,0,0,0,0,0,0,0,0]","[0,0,0,0,0,0,0,0,0,0,0,0,0,0,0,0,0,0,0,0,0,0,0,0,0,0,0,0,0,0,0,0]","[0,0,0,0,0,0,0,0,0,0,0,0,0,0,0,0,0,0,0,0,0,0,0,0,0,0,0,0,0,0,0,0]","[0.0011999999992582389,0.015000000000000568,0.03180000000075012,0.047800000000748355,0.07100000000000506,0.08419999999925665,0.0991000000014921,0.12880000000075142,0.133899999998512,0.16339999999851074,0.18110000000149284,0.1993999999985121,0.2163999999985151,0.23580000000075074,0.24980000000074654,0.2658000000007519,0.2963000000007483,0.3135000000000048,0.32580000000074705,0.3453999999985129,0.36489999999851364,0.38210000000149336,0.4011999999992568,0.4143999999985155,0.4313000000007463,0.4480000000000004,0.46510000000149176,0.4969999999999999,0.515100000001496,0.5313000000007477,0.5488999999985111,0.5801999999992589]",,12,0,12,0,1,test,001,2022-08-25_16h29.00.963,GoFitts,2022.1.4,Win32,60.04563468,,,,
,,,,"[73.39153616404997,-225.875922620099]","[-118.74999999999994,205.6810333988042]",40.5,475,0,"[73.20001220703125,75.60003662109375,79.20001220703125,79.20001220703125,79.20001220703125,79.20001220703125,79.20001220703125,79.20001220703125,80,80,80.79998779296875,80.79998779296875,80.79998779296875,80.79998779296875,80.79998779296875,81.60003662109375,84,85.20001220703125,65.20001220703125,46.79998779296875,13.60003662109375,2.4000244140625,-52.39996337890625,-57.5999755859375,-64.79998779296875,-74.39996337890625,-75.5999755859375,-80,-84.79998779296875,-86.39996337890625,-90.79998779296875,-93.20001220703125,-100,-101.5999755859375,-107.5999755859375,-115.20001220703125]","[-226,-226.79998779296875,-229.20001220703125,-229.20001220703125,-229.20001220703125,-229.20001220703125,-229.20001220703125,-229.20001220703125,-230,-230,-231.60003662109375,-231.60003662109375,-231.60003662109375,-231.60003662109375,-231.60003662109375,-230.4000244140625,-225.20001220703125,-220.79998779296875,-115.20001220703125,-77.20001220703125,-11.600006103515625,7.600006103515625,74,80.79998779296875,91.19998168945312,108,111.19998168945312,120.39999389648438,129.60000610351562,133.60000610351562,140.39999389648438,143.60000610351562,156.39999389648438,162,178,192]","[0,0,0,0,0,0,0,0,0,0,0,0,0,0,0,0,0,0,0,0,0,0,0,0,0,0,0,0,0,0,0,0,0,0,0,0]","[0,0,0,0,0,0,0,0,0,0,0,0,0,0,0,0,0,0,0,0,0,0,0,0,0,0,0,0,0,0,0,0,0,0,0,0]","[0,0,0,0,0,0,0,0,0,0,0,0,0,0,0,0,0,0,0,0,0,0,0,0,0,0,0,0,0,0,0,0,0,0,0,0]","[0.000499999999995282,0.015200000002977276,0.03240000000223375,0.04520000000297841,0.053100000001485625,0.07960000000149137,0.09740000000223148,0.11399999999999721,0.13310000000149103,0.16490000000223404,0.1772000000029763,0.197499999999998,0.2014999999999958,0.21690000000223364,0.23340000000223426,0.25220000000297915,0.2823000000007454,0.29610000000148773,0.33410000000149154,0.350900000002234,0.3817000000029793,0.3951000000014915,0.43280000000074637,0.4457000000029794,0.4549000000022332,0.48070000000297597,0.5003000000007418,0.5328000000007407,0.5523000000007414,0.5667000000029816,0.5850000000000009,0.6003000000007432,0.6337000000029818,0.6496000000014917,0.666800000000741,0.6987000000029795]",,13,0,13,0,1,test,001,2022-08-25_16h29.00.963,GoFitts,2022.1.4,Win32,60.04563468,,,,
,,,,"[-118.74999999999994,205.6810333988042]","[158.9185190102289,-176.49689605088108]",40.5,475,0,"[-115.20001220703125,-122.39996337890625,-124.39996337890625,-125.5999755859375,-126.39996337890625,-127.5999755859375,-127.5999755859375,-127.5999755859375,-127.5999755859375,-127.5999755859375,-126.79998779296875,-120.39996337890625,-95.20001220703125,-68.79998779296875,-19.20001220703125,-2.79998779296875,28.4000244140625,48.79998779296875,79.60003662109375,94,98.79998779296875,102,105.20001220703125,106,106,107.20001220703125,107.20001220703125,110,111.60003662109375,135.20001220703125,141.60003662109375]","[192,202.39999389648438,206.39999389648438,213.59999084472656,217.59999084472656,222.39999389648438,223.1999969482422,223.1999969482422,223.1999969482422,223.1999969482422,218.39999389648438,200.39999389648438,152,111.19998168945312,48,30.79998779296875,-2.800018310546875,-26,-62.800018310546875,-80.79998779296875,-88.4000244140625,-93.20001220703125,-98.4000244140625,-100,-100,-100.79998779296875,-101.20001220703125,-108,-112.4000244140625,-161.20001220703125,-169.60003662109375]","[0,0,0,0,0,0,0,0,0,0,0,0,0,0,0,0,0,0,0,0,0,0,0,0,0,0,0,0,0,0,0]","[0,0,0,0,0,0,0,0,0,0,0,0,0,0,0,0,0,0,0,0,0,0,0,0,0,0,0,0,0,0,0]","[0,0,0,0,0,0,0,0,0,0,0,0,0,0,0,0,0,0,0,0,0,0,0,0,0,0,0,0,0,0,0]","[0.0008999999985093154,0.018000000000000682,0.03399999999999892,0.06669999999925125,0.08319999999925187,0.10060000000149216,0.13210000000149336,0.14780000000074267,0.16410000000148983,0.16889999999850858,0.2001999999992563,0.2163000000007429,0.24310000000149046,0.2508999999985093,0.2828000000007478,0.2998000000007437,0.3186999999992537,0.3348000000007474,0.35280000000074807,0.36780000000074153,0.38489999999850966,0.40010000000148693,0.41689999999851324,0.43339999999850676,0.4496000000014888,0.4666000000014918,0.4841999999992552,0.515500000000003,0.5286999999992545,0.566199999999256,0.5831000000014868]",,14,0,14,0,1,test,001,2022-08-25_16h29.00.963,GoFitts,2022.1.4,Win32,60.04563468,,,,
,,,,,,,,0,,,,,,,,,,,,,test,001,2022-08-25_16h29.00.963,GoFitts,2022.1.4,Win32,60.04563468,0,0,0,1
,,return,3.4527,"[0.79998779296875,4.399993896484375]","[350,0]",20,700,1,"[0.79998779296875,0.79998779296875,0.79998779296875,0.79998779296875,0.79998779296875,0.79998779296875,0.79998779296875,0.79998779296875,0.79998779296875,0.79998779296875,0.79998779296875,0.79998779296875,0.79998779296875,0.79998779296875,0.79998779296875,0.79998779296875,0.79998779296875,0.79998779296875,0.79998779296875,0.79998779296875,0.79998779296875,0.79998779296875,0.79998779296875,0.79998779296875,0.79998779296875,2.4000244140625,6.4000244140625,14.79998779296875,44,88.79998779296875,150,301.2000732421875,322.800048828125,338.800048828125,363.2000732421875,365.2000732421875,365.2000732421875,365.2000732421875,365.2000732421875,365.2000732421875,367.5999755859375,375.2000732421875,378.800048828125,380,380,378.800048828125,368,363.5999755859375,353.2000732421875]","[4.399993896484375,4.399993896484375,4.399993896484375,4.399993896484375,4.399993896484375,4.399993896484375,4.399993896484375,4.399993896484375,4.399993896484375,4.399993896484375,4.399993896484375,4.399993896484375,4.399993896484375,4.399993896484375,4.399993896484375,4.399993896484375,4.399993896484375,4.399993896484375,4.399993896484375,4.399993896484375,4.399993896484375,4.399993896484375,4.399993896484375,4.399993896484375,4.399993896484375,6,8,10.399993896484375,15.600006103515625,15.600006103515625,15.600006103515625,-1.20001220703125,-3.600006103515625,-5.20001220703125,-5.20001220703125,-5.20001220703125,-4.800018310546875,-4.800018310546875,-4.800018310546875,-4.800018310546875,-4.800018310546875,-5.20001220703125,-5.20001220703125,-5.20001220703125,-5.20001220703125,-4.800018310546875,-4.800018310546875,-4.800018310546875,-4.800018310546875]","[0,0,0,0,0,0,0,0,0,0,0,0,0,0,0,0,0,0,0,0,0,0,0,0,0,0,0,0,0,0,0,0,0,0,0,0,0,0,0,0,0,0,0,0,0,0,0,0,0]","[0,0,0,0,0,0,0,0,0,0,0,0,0,0,0,0,0,0,0,0,0,0,0,0,0,0,0,0,0,0,0,0,0,0,0,0,0,0,0,0,0,0,0,0,0,0,0,0,0]","[0,0,0,0,0,0,0,0,0,0,0,0,0,0,0,0,0,0,0,0,0,0,0,0,0,0,0,0,0,0,0,0,0,0,0,0,0,0,0,0,0,0,0,0,0,0,0,0,0]","[0.001999999999995339,0.009300000000735054,0.01999999999999602,0.027800000000738123,0.044600000001480566,0.07760000000148182,0.09360000000148716,0.10640000000222471,0.11480000000074142,0.14160000000148898,0.15899999999999181,0.17599999999998772,0.192300000000742,0.20910000000148443,0.22719999999924312,0.2424999999999926,0.25880000000073267,0.2756999999992473,0.29210000000148284,0.30910000000147875,0.325499999999991,0.3426000000014824,0.35899999999999466,0.3758000000007371,0.3919999999999959,0.4099000000022244,0.4259999999999877,0.4426999999992489,0.45940000000223336,0.47649999999998727,0.4924000000022346,0.5094000000022305,0.5269999999999868,0.5434000000022223,0.5616000000014765,0.5784999999999911,0.6096999999992505,0.6206999999992462,0.6291000000014861,0.6444999999999936,0.6781999999992507,0.6946999999992443,0.7111000000014798,0.7281999999992479,0.746300000000744,0.7618000000007328,0.7953000000007364,0.8114999999999952,0.8304999999999865]",,0,0,0,0,1,test,001,2022-08-25_16h29.00.963,GoFitts,2022.1.4,Win32,60.04563468,,,,
,,,,"[350,0]","[-342.351660256832,-72.76909178621567]",20,700,1,"[353.2000732421875,335.2000732421875,328.4000244140625,325.5999755859375,325.5999755859375,325.5999755859375,325.5999755859375,325.5999755859375,326,326,328,328,329.2000732421875,332,333.2000732421875,334,334,334,314.800048828125,282.800048828125,238.79998779296875,143.20001220703125,36.79998779296875,-28,-28,-100,-116,-148.39996337890625,-154.79998779296875,-154.79998779296875,-156,-162.39996337890625,-168.79998779296875,-185.5999755859375,-194.39996337890625,-196.79998779296875,-200,-201.20001220703125,-204,-207.20001220703125,-224.39996337890625,-232.39996337890625,-267.6000061035156,-279.1999816894531,-307.1999816894531,-325.1999816894531,-327.1999816894531,-329.6000061035156,-330.3999938964844,-332.79998779296875,-335.1999816894531]","[-4.800018310546875,-4,-3.600006103515625,-3.20001220703125,-3.20001220703125,-3.20001220703125,-3.20001220703125,-3.20001220703125,-3.20001220703125,-3.20001220703125,-4,-4,-4,-4,-4,-4,-4,-4,-4,-4,-4,-4,-10,-21.600006103515625,-21.600006103515625,-38,-41.600006103515625,-50.399993896484375,-54,-54,-55.20001220703125,-57.20001220703125,-58.399993896484375,-61.600006103515625,-64,-64.80001831054688,-65.60000610351562,-65.60000610351562,-65.60000610351562,-65.60000610351562,-63.600006103515625,-63.20001220703125,-62.800018310546875,-64.39999389648438,-70.39999389648438,-74.80001831054688,-75.60000610351562,-76.80001831054688,-77.20001220703125,-77.20001220703125,-77.20001220703125]","[0,0,0,0,0,0,0,0,0,0,0,0,0,0,0,0,0,0,0,0,0,0,0,0,0,0,0,0,0,0,0,0,0,0,0,0,0,0,0,0,0,0,0,0,0,0,0,0,0,0,0]","[0,0,0,0,0,0,0,0,0,0,0,0,0,0,0,0,0,0,0,0,0,0,0,0,0,0,0,0,0,0,0,0,0,0,0,0,0,0,0,0,0,0,0,0,0,0,0,0,0,0,0]","[0,0,0,0,0,0,0,0,0,0,0,0,0,0,0,0,0,0,0,0,0,0,0,0,0,0,0,0,0,0,0,0,0,0,0,0,0,0,0,0,0,0,0,0,0,0,0,0,0,0,0]","[0.000599999997760392,0.014199999999249258,0.03300000000000125,0.046899999998501585,0.06289999999850693,0.08019999999925176,0.11209999999776699,0.12389999999849977,0.13379999999700942,0.16279999999702,0.1797999999970159,0.21129999999701,0.22429999999701522,0.2631999999992445,0.2798999999985057,0.29889999999851113,0.312599999997758,0.329199999999247,0.3612999999970157,0.3731999999992439,0.3960000000000008,0.41319999999925017,0.4435000000000002,0.4555999999977587,0.46359999999775425,0.47979999999701306,0.49799999999999045,0.5137999999970191,0.5455999999977621,0.5623999999985045,0.5798999999985028,0.6123999999985017,0.6303999999985024,0.655699999999257,0.6727999999970109,0.688999999999993,0.6992999999970095,0.7142999999970101,0.7293999999985061,0.7465999999977555,0.7791999999992498,0.7972999999970085,0.8222999999970142,0.8397999999970125,0.8467999999970175,0.8781999999992536,0.8913999999984981,0.9004999999999939,0.9285999999977577,0.9608999999985031,0.9775999999977643]",,1,0,1,0,1,test,001,2022-08-25_16h29.00.963,GoFitts,2022.1.4,Win32,60.04563468,,,,
,,,,"[-342.351660256832,-72.76909178621567]","[319.7409101749103,142.35782507653005]",20,700,1,"[-335.1999816894531,-343.6000061035156,-349.1999816894531,-349.1999816894531,-349.1999816894531,-349.1999816894531,-349.1999816894531,-349.1999816894531,-349.1999816894531,-349.1999816894531,-349.1999816894531,-349.1999816894531,-349.1999816894531,-348.79998779296875,-348,-348,-346.79998779296875,-344.3999938964844,-343.6000061035156,-336,-319.6000061035156,-293.1999816894531,-212.79998779296875,-93.20001220703125,-33.20001220703125,-4.39996337890625,73.20001220703125,93.60003662109375,126.4000244140625,170.4000244140625,177.60003662109375,188.79998779296875,192.79998779296875,192.79998779296875,206,210,216.79998779296875,220.4000244140625,222,227.20001220703125,229.20001220703125,245.20001220703125,268,309.2000732421875,318.4000244140625]","[-77.20001220703125,-76.80001831054688,-76.80001831054688,-76.80001831054688,-76.80001831054688,-76.80001831054688,-76.80001831054688,-76.80001831054688,-76.80001831054688,-76.80001831054688,-76.80001831054688,-76.80001831054688,-76.80001831054688,-76.80001831054688,-76.39999389648438,-76.39999389648438,-76.39999389648438,-75.20001220703125,-74.80001831054688,-72,-66.39999389648438,-56.399993896484375,-19.600006103515625,34,56.399993896484375,66,89.60000610351562,96.79998779296875,108,116.79998779296875,116.79998779296875,115.19998168945312,115.19998168945312,115.19998168945312,116.79998779296875,117.60000610351562,120.39999389648438,122.39999389648438,123.19998168945312,125.60000610351562,126.39999389648438,129.19998168945312,132.39999389648438,134.79998779296875,135.19998168945312]","[0,0,0,0,0,0,0,0,0,0,0,0,0,0,0,0,0,0,0,0,0,0,0,0,0,0,0,0,0,0,0,0,0,0,0,0,0,0,0,0,0,0,0,0,0]","[0,0,0,0,0,0,0,0,0,0,0,0,0,0,0,0,0,0,0,0,0,0,0,0,0,0,0,0,0,0,0,0,0,0,0,0,0,0,0,0,0,0,0,0,0]","[0,0,0,0,0,0,0,0,0,0,0,0,0,0,0,0,0,0,0,0,0,0,0,0,0,0,0,0,0,0,0,0,0,0,0,0,0,0,0,0,0,0,0,0,0]","[0.0006999999992558514,0.02789999999851034,0.03489999999851534,0.0651999999992654,0.07619999999926108,0.0843000000007521,0.10069999999926438,0.1171000000014999,0.13369999999926563,0.15069999999926154,0.16750000000000398,0.1839999999999975,0.2006999999992587,0.21800000000000352,0.25010000000149546,0.26330000000075415,0.27219999999925903,0.2993999999985135,0.31799999999999784,0.3496999999992596,0.363100000001495,0.3718000000007464,0.4013999999985174,0.4326000000015,0.44619999999926563,0.4573999999985148,0.48180000000074585,0.49850000000000705,0.5183000000007496,0.5490000000000066,0.5625,0.5998000000007551,0.6133999999985207,0.6210000000000093,0.6488999999985197,0.6664999999999992,0.683800000000744,0.7165000000000106,0.7343000000007436,0.7528999999985189,0.7673000000007448,0.7870000000000061,0.8011999999992554,0.8328000000007449,0.8503000000007432]",,2,0,2,0,1,test,001,2022-08-25_16h29.00.963,GoFitts,2022.1.4,Win32,60.04563468,,,,
,,,,"[319.7409101749103,142.35782507653005]","[-283.1559480312316,-205.72483830236555]",20,700,1,"[318.4000244140625,340,340.800048828125,340.800048828125,340.800048828125,340.800048828125,340.800048828125,340.800048828125,340.800048828125,340.800048828125,340.800048828125,340.800048828125,340.800048828125,340.800048828125,340.800048828125,337.5999755859375,326.800048828125,321.2000732421875,318.800048828125,314.4000244140625,313.5999755859375,312,304,296.4000244140625,208.4000244140625,185.60003662109375,127.20001220703125,66.4000244140625,6,-54.79998779296875,-106.39996337890625,-190.79998779296875,-196,-197.20001220703125,-197.5999755859375,-197.5999755859375,-200,-212,-219.20001220703125,-252.79998779296875,-265.1999816894531,-271.6000061035156,-275.1999816894531,-276.3999938964844,-282.3999938964844,-287.6000061035156]","[135.19998168945312,140,141.19998168945312,141.19998168945312,141.19998168945312,141.19998168945312,141.19998168945312,141.19998168945312,141.19998168945312,141.19998168945312,141.19998168945312,141.19998168945312,141.19998168945312,141.19998168945312,141.19998168945312,141.60000610351562,140.79998779296875,140.79998779296875,140.79998779296875,140.79998779296875,140.79998779296875,140,136.79998779296875,133.60000610351562,95.60000610351562,83.60000610351562,51.199981689453125,14.79998779296875,-21.20001220703125,-58,-86.4000244140625,-156,-163.20001220703125,-164.79998779296875,-165.20001220703125,-165.20001220703125,-165.60003662109375,-167.20001220703125,-168.4000244140625,-174.4000244140625,-176.79998779296875,-178.79998779296875,-182,-183.60003662109375,-192,-198.4000244140625]","[0,0,0,0,0,0,0,0,0,0,0,0,0,0,0,0,0,0,0,0,0,0,0,0,0,0,0,0,0,0,0,0,0,0,0,0,0,0,0,0,0,0,0,0,0,0]","[0,0,0,0,0,0,0,0,0,0,0,0,0,0,0,0,0,0,0,0,0,0,0,0,0,0,0,0,0,0,0,0,0,0,0,0,0,0,0,0,0,0,0,0,0,0]","[0,0,0,0,0,0,0,0,0,0,0,0,0,0,0,0,0,0,0,0,0,0,0,0,0,0,0,0,0,0,0,0,0,0,0,0,0,0,0,0,0,0,0,0,0,0]","[0.0009000000022325594,0.025800000000742784,0.03270000000297557,0.04890000000223438,0.06550000000000011,0.08199999999999363,0.099100000001485,0.11540000000222506,0.13210000000148625,0.14880000000073323,0.16530000000074097,0.18199999999998795,0.19860000000147693,0.21540000000223358,0.23199999999999932,0.24930000000074415,0.27970000000297546,0.2852000000029733,0.3146000000014766,0.33180000000074017,0.34920000000298046,0.365800000000732,0.39720000000296807,0.4102000000029733,0.4483000000007422,0.465999999999994,0.48399999999999466,0.4991000000014765,0.5174999999999983,0.5334000000022314,0.5498000000007437,0.5824000000022238,0.599100000001485,0.6178000000007415,0.6324999999999932,0.6504999999999939,0.6659999999999968,0.681999999999988,0.7154999999999916,0.7347000000029738,0.7604999999999933,0.7697000000029703,0.7969000000022248,0.8149999999999977,0.84210000000148,0.852800000000741]",,3,0,3,0,1,test,001,2022-08-25_16h29.00.963,GoFitts,2022.1.4,Win32,60.04563468,,,,
,,,,"[-283.1559480312316,-205.72483830236555]","[234.19571222560037,260.100688917088]",20,700,1,"[-287.6000061035156,-297.6000061035156,-299.6000061035156,-299.6000061035156,-299.6000061035156,-299.6000061035156,-299.6000061035156,-298.3999938964844,-298,-298,-298,-298,-298,-298,-296,-294,-292.3999938964844,-290.3999938964844,-285.6000061035156,-267.1999816894531,-244.39996337890625,-182,-125.5999755859375,-94.79998779296875,51.20001220703125,90,104.79998779296875,130.4000244140625,130.4000244140625,129.60003662109375,129.60003662109375,129.60003662109375,129.60003662109375,129.60003662109375,130,134,143.20001220703125,168.79998779296875,191.60003662109375,195.60003662109375,207.20001220703125,207.20001220703125,212,214,216,216,216,216.79998779296875,217.60003662109375,218,218,219.60003662109375,225.20001220703125,227.20001220703125]","[-198.4000244140625,-210.4000244140625,-212,-212,-212,-212,-212,-212.79998779296875,-213.20001220703125,-213.20001220703125,-213.20001220703125,-213.20001220703125,-213.20001220703125,-213.20001220703125,-213.20001220703125,-212.4000244140625,-211.60003662109375,-210.79998779296875,-208.4000244140625,-197.20001220703125,-178.4000244140625,-113.60003662109375,-46.399993896484375,-10,148,183.59999084472656,196.39999389648438,225.1999969482422,226.39999389648438,228.39999389648438,228.39999389648438,228.39999389648438,228.39999389648438,228.39999389648438,229.1999969482422,232.39999389648438,238.39999389648438,245.1999969482422,245.1999969482422,245.1999969482422,246,246,248.39999389648438,250,251.1999969482422,251.1999969482422,251.1999969482422,252.39999389648438,254,255.1999969482422,255.1999969482422,258.8000030517578,265.1999969482422,266.8000030517578]","[0,0,0,0,0,0,0,0,0,0,0,0,0,0,0,0,0,0,0,0,0,0,0,0,0,0,0,0,0,0,0,0,0,0,0,0,0,0,0,0,0,0,0,0,0,0,0,0,0,0,0,0,0,0]","[0,0,0,0,0,0,0,0,0,0,0,0,0,0,0,0,0,0,0,0,0,0,0,0,0,0,0,0,0,0,0,0,0,0,0,0,0,0,0,0,0,0,0,0,0,0,0,0,0,0,0,0,0,0]","[0,0,0,0,0,0,0,0,0,0,0,0,0,0,0,0,0,0,0,0,0,0,0,0,0,0,0,0,0,0,0,0,0,0,0,0,0,0,0,0,0,0,0,0,0,0,0,0,0,0,0,0,0,0]","[0.00030000000073471256,0.029800000000733462,0.045100000001482954,0.06199999999999761,0.0926999999992546,0.10489999999850852,0.11480000000074142,0.12919999999924414,0.16010000000147784,0.17099999999999227,0.17869999999925312,0.19510000000148864,0.212300000000738,0.22839999999850136,0.2473000000007346,0.27730000000073574,0.2968999999985016,0.31210000000147886,0.329100000001489,0.3623000000007437,0.3781999999992536,0.39749999999999375,0.41230000000074085,0.429399999998509,0.4606999999992496,0.47210000000148966,0.4898999999984994,0.5274999999999892,0.5398999999984966,0.5764999999999958,0.5871000000014845,0.5949999999999989,0.6116000000014878,0.628399999998507,0.6458000000007331,0.6789999999999878,0.6946999999992443,0.7126000000014869,0.7438999999985043,0.7611000000014769,0.7743000000007356,0.7823999999985034,0.8098999999985068,0.8264999999999958,0.8481999999992524,0.8786999999992418,0.8956000000014797,0.9114999999999895,0.9289999999999878,0.9456000000014768,0.9614999999999867,0.9783999999985014,0.9948999999985091,1.0271000000014823]",,4,0,4,0,1,test,001,2022-08-25_16h29.00.963,GoFitts,2022.1.4,Win32,60.04563468,,,,
,,,,"[234.19571222560037,260.100688917088]","[-175.00000000000014,-303.1088913245535]",20,700,1,"[227.20001220703125,231.20001220703125,231.20001220703125,231.20001220703125,231.20001220703125,229.20001220703125,223.60003662109375,218.79998779296875,212,149.60003662109375,74.79998779296875,58,21.60003662109375,21.60003662109375,-52.39996337890625,-69.20001220703125,-74.79998779296875,-74.79998779296875,-75.20001220703125,-76.39996337890625,-77.20001220703125,-80.39996337890625,-81.20001220703125,-81.20001220703125,-85.5999755859375,-85.5999755859375,-88.39996337890625,-93.20001220703125,-96.39996337890625,-110.39996337890625,-118,-141.20001220703125,-147.5999755859375,-165.5999755859375,-165.5999755859375,-172,-176.79998779296875,-179.5999755859375]","[266.8000030517578,269.1999969482422,269.1999969482422,269.1999969482422,269.1999969482422,266.8000030517578,262,258,252.39999389648438,201.1999969482422,126.79998779296875,108,61.199981689453125,61.199981689453125,-46.399993896484375,-100.4000244140625,-162.4000244140625,-174.79998779296875,-183.60003662109375,-185.20001220703125,-186,-188,-188.79998779296875,-188.79998779296875,-189.20001220703125,-189.20001220703125,-189.20001220703125,-190.79998779296875,-192.79998779296875,-204,-210.4000244140625,-233.60003662109375,-241.60003662109375,-266.4000244140625,-266.4000244140625,-280.4000244140625,-293.20001220703125,-302.4000244140625]","[0,0,0,0,0,0,0,0,0,0,0,0,0,0,0,0,0,0,0,0,0,0,0,0,0,0,0,0,0,0,0,0,0,0,0,0,0,0]","[0,0,0,0,0,0,0,0,0,0,0,0,0,0,0,0,0,0,0,0,0,0,0,0,0,0,0,0,0,0,0,0,0,0,0,0,0,0]","[0,0,0,0,0,0,0,0,0,0,0,0,0,0,0,0,0,0,0,0,0,0,0,0,0,0,0,0,0,0,0,0,0,0,0,0,0,0]","[0.000599999997760392,0.02309999999776835,0.03650000000000375,0.05019999999925062,0.09330000000075245,0.10099999999999909,0.13299999999999557,0.1503999999985126,0.16819999999925983,0.18430000000074642,0.21659999999776858,0.23289999999850863,0.24639999999851625,0.2545000000000073,0.28309999999775926,0.3160000000000025,0.32939999999851466,0.33909999999777085,0.3658999999985042,0.3816999999992561,0.400899999998515,0.43300000000000693,0.44650000000000034,0.4545999999977681,0.4830999999977621,0.5153999999985075,0.5271999999992545,0.5498000000007437,0.5608999999985116,0.5764999999999958,0.5848999999985125,0.6003999999985155,0.6176999999992603,0.6358999999985144,0.6503999999985126,0.6668000000007481,0.6834999999999951,0.7003000000007518]",,5,0,5,0,1,test,001,2022-08-25_16h29.00.963,GoFitts,2022.1.4,Win32,60.04563468,,,,
,,,,"[-175.00000000000014,-303.1088913245535]","[108.1559480312316,332.8697807033037]",20,700,1,"[-179.5999755859375,-184.39996337890625,-186,-186.79998779296875,-187.20001220703125,-187.20001220703125,-187.20001220703125,-186.39996337890625,-186,-186,-186,-186,-186,-186,-185.20001220703125,-184.39996337890625,-182.39996337890625,-181.5999755859375,-176.79998779296875,-163.5999755859375,-160.39996337890625,-148.39996337890625,-148.39996337890625,-124.39996337890625,-124.39996337890625,-98.79998779296875,-49.20001220703125,-18.39996337890625,9.20001220703125,36.4000244140625,72.79998779296875,80,83.20001220703125,84.4000244140625,85.20001220703125,86.4000244140625,86.79998779296875,87.60003662109375,88.79998779296875,90,94.79998779296875,94.79998779296875,99.20001220703125]","[-302.4000244140625,-312.79998779296875,-317.20001220703125,-318.79998779296875,-320.79998779296875,-321.20001220703125,-321.20001220703125,-322.79998779296875,-324,-324,-324,-324,-324,-324,-322.79998779296875,-321.60003662109375,-319.20001220703125,-318,-311.20001220703125,-268.4000244140625,-247.20001220703125,-156.4000244140625,-156.4000244140625,-24.800018310546875,-24.800018310546875,115.60000610351562,202,217.59999084472656,226.39999389648438,233.59999084472656,244.8000030517578,250,255.59999084472656,258,260,262.3999938964844,263.1999969482422,270.3999938964844,279.59999084472656,284.3999938964844,308.4000015258789,308.4000015258789,332.4000015258789]","[0,0,0,0,0,0,0,0,0,0,0,0,0,0,0,0,0,0,0,0,0,0,0,0,0,0,0,0,0,0,0,0,0,0,0,0,0,0,0,0,0,0,0]","[0,0,0,0,0,0,0,0,0,0,0,0,0,0,0,0,0,0,0,0,0,0,0,0,0,0,0,0,0,0,0,0,0,0,0,0,0,0,0,0,0,0,0]","[0,0,0,0,0,0,0,0,0,0,0,0,0,0,0,0,0,0,0,0,0,0,0,0,0,0,0,0,0,0,0,0,0,0,0,0,0,0,0,0,0,0,0]","[0.0006999999992558514,0.01600000000001245,0.03260000000150143,0.0519000000022416,0.066500000000012,0.08400000000001029,0.11190000000224387,0.12080000000074875,0.14919999999926148,0.17999999999999972,0.19080000000075614,0.1993000000007541,0.23000000000001108,0.23390000000224376,0.24980000000075364,0.2820000000000036,0.29990000000224626,0.3155000000000072,0.3329000000022475,0.36510000000149745,0.3806999999992584,0.3941000000014938,0.4029000000022407,0.4313000000007534,0.44640000000223523,0.46569999999926637,0.4986000000014954,0.5153000000007566,0.5331000000014896,0.5496000000014973,0.5821999999992542,0.599499999999999,0.6303000000007515,0.6480000000000032,0.6663000000007528,0.6826000000014929,0.7084000000022357,0.7161999999992545,0.7484000000022419,0.7644000000022473,0.7779000000022407,0.7866000000014921,0.814300000000749]",,6,0,6,0,1,test,001,2022-08-25_16h29.00.963,GoFitts,2022.1.4,Win32,60.04563468,,,,
,,,,"[108.1559480312316,332.8697807033037]","[-36.58496214367898,-348.08266337889563]",20,700,1,"[99.20001220703125,99.60003662109375,99.20001220703125,99.20001220703125,99.20001220703125,99.20001220703125,99.20001220703125,99.20001220703125,99.20001220703125,99.20001220703125,99.20001220703125,98.79998779296875,98.79998779296875,97.20001220703125,93.60003662109375,89.20001220703125,75.20001220703125,64.79998779296875,51.20001220703125,49.20001220703125,43.60003662109375,36.4000244140625,32.79998779296875,24,18.4000244140625,6.79998779296875,-4,-13.20001220703125,-29.5999755859375,-38,-46,-57.5999755859375,-64.39996337890625,-69.5999755859375,-73.5999755859375,-74.79998779296875,-74.79998779296875,-74.79998779296875,-72.39996337890625,-69.20001220703125,-66,-62.39996337890625,-56.79998779296875,-51.5999755859375,-48,-46,-46,-42.79998779296875]","[332.4000015258789,341.1999969482422,344.7999954223633,345.1999969482422,345.1999969482422,345.1999969482422,345.1999969482422,345.1999969482422,345.1999969482422,343.5999984741211,332,315.5999984741211,280,225.1999969482422,165.60000610351562,110.79998779296875,-16.399993896484375,-76.80001831054688,-169.20001220703125,-184,-203.20001220703125,-214.79998779296875,-218.4000244140625,-224.4000244140625,-228,-236,-243.60003662109375,-249.60003662109375,-261.60003662109375,-269.20001220703125,-278,-293.20001220703125,-305.20001220703125,-314.4000244140625,-322.4000244140625,-326.79998779296875,-330.79998779296875,-334.4000244140625,-338.4000244140625,-341.60003662109375,-344,-345.60003662109375,-347.60003662109375,-349.60003662109375,-350.79998779296875,-351.60003662109375,-351.60003662109375,-351.60003662109375]","[0,0,0,0,0,0,0,0,0,0,0,0,0,0,0,0,0,0,0,0,0,0,0,0,0,0,0,0,0,0,0,0,0,0,0,0,0,0,0,0,0,0,0,0,0,0,0,0]","[0,0,0,0,0,0,0,0,0,0,0,0,0,0,0,0,0,0,0,0,0,0,0,0,0,0,0,0,0,0,0,0,0,0,0,0,0,0,0,0,0,0,0,0,0,0,0,0]","[0,0,0,0,0,0,0,0,0,0,0,0,0,0,0,0,0,0,0,0,0,0,0,0,0,0,0,0,0,0,0,0,0,0,0,0,0,0,0,0,0,0,0,0,0,0,0,0]","[0.0015000000000071623,0.03310000000149671,0.05010000000149262,0.06780000000074438,0.08360000000149626,0.10080000000074563,0.11710000000148568,0.13370000000298887,0.15050000000000807,0.16790000000223415,0.2009000000022354,0.2198000000007454,0.24280000000074153,0.2505000000000024,0.2833000000007502,0.30260000000149034,0.33170000000298216,0.34620000000298035,0.383100000001491,0.3989000000022429,0.4119000000022339,0.42810000000149273,0.4369999999999976,0.4517000000029867,0.46770000000297784,0.4843000000007436,0.5019999999999953,0.5169000000022379,0.5335000000000036,0.5603000000007512,0.5771000000014936,0.5939000000022361,0.609800000000746,0.6263000000007537,0.6437000000029798,0.6597000000029851,0.6682000000029831,0.6830000000000069,0.6997000000029772,0.7266000000014969,0.7441000000014952,0.7593000000007493,0.7674999999999983,0.7830000000000013,0.7996000000014902,0.8182000000029888,0.8332000000029893,0.8509999999999991]",,7,0,7,0,1,test,001,2022-08-25_16h29.00.963,GoFitts,2022.1.4,Win32,60.04563468,,,,
,,,,"[-36.58496214367898,-348.08266337889563]","[-36.584962143678666,348.0826633788957]",20,700,1,"[-42.79998779296875,-39.5999755859375,-34.39996337890625,-34,-34,-34,-34,-34,-34,-34,-35.20001220703125,-38.79998779296875,-39.20001220703125,-39.20001220703125,-39.20001220703125,-38.79998779296875,-42,-45.20001220703125,-46.39996337890625,-48,-50.39996337890625,-50.39996337890625,-50.79998779296875,-50.79998779296875,-50.79998779296875,-50.79998779296875,-50.79998779296875,-50.79998779296875,-50.79998779296875,-50.79998779296875,-50.79998779296875,-50,-47.20001220703125,-46.39996337890625,-45.20001220703125,-42.79998779296875,-42,-41.20001220703125,-40.39996337890625]","[-351.60003662109375,-350.79998779296875,-347.60003662109375,-347.20001220703125,-346.79998779296875,-346.79998779296875,-346.79998779296875,-346.79998779296875,-346.79998779296875,-345.60003662109375,-342.4000244140625,-311.20001220703125,-277.60003662109375,-203.60003662109375,-154.79998779296875,-124,62.399993896484375,152,189.1999969482422,208.8000030517578,220,222.39999389648438,223.59999084472656,226.39999389648438,227.59999084472656,227.59999084472656,230.39999389648438,243.59999084472656,246.8000030517578,250.8000030517578,255.1999969482422,257.59999084472656,268.8000030517578,273.1999969482422,278.3999938964844,290.8000030517578,297.59999084472656,306,342.4000015258789]","[0,0,0,0,0,0,0,0,0,0,0,0,0,0,0,0,0,0,0,0,0,0,0,0,0,0,0,0,0,0,0,0,0,0,0,0,0,0,0]","[0,0,0,0,0,0,0,0,0,0,0,0,0,0,0,0,0,0,0,0,0,0,0,0,0,0,0,0,0,0,0,0,0,0,0,0,0,0,0]","[0,0,0,0,0,0,0,0,0,0,0,0,0,0,0,0,0,0,0,0,0,0,0,0,0,0,0,0,0,0,0,0,0,0,0,0,0,0,0]","[0.0003999999985211389,0.015300000000749492,0.04100000000001103,0.05219999999926017,0.07930000000075665,0.09530000000074779,0.11269999999926483,0.13050000000001205,0.14750000000000796,0.16509999999776426,0.1963999999985191,0.22489999999851307,0.23499999999999943,0.24800000000000466,0.28009999999777335,0.2936999999992622,0.3308000000007496,0.34850000000000136,0.3753000000007489,0.3865000000000123,0.412699999999262,0.42989999999851136,0.4506999999992587,0.46709999999777096,0.4895999999977647,0.5013000000007537,0.5153000000007495,0.5460000000000065,0.5628999999985211,0.5770000000000124,0.6128000000007461,0.6293000000007538,0.6470999999977636,0.6628000000007574,0.6740999999977646,0.6835000000000093,0.6980000000000075,0.7140999999977709,0.7310999999977668]",,8,0,8,0,1,test,001,2022-08-25_16h29.00.963,GoFitts,2022.1.4,Win32,60.04563468,,,,
,,,,"[-36.584962143678666,348.0826633788957]","[108.15594803123153,-332.8697807033038]",20,700,1,"[-40.39996337890625,-44,-48.79998779296875,-51.5999755859375,-52.39996337890625,-52.39996337890625,-52.39996337890625,-52.39996337890625,-52.39996337890625,-51.20001220703125,-50,-43.20001220703125,-38,-24.39996337890625,-20.79998779296875,-16.39996337890625,8.4000244140625,15.20001220703125,17.20001220703125,28.79998779296875,30.79998779296875,32.79998779296875,35.60003662109375,38.4000244140625,42.4000244140625,42.4000244140625,42.4000244140625,42.4000244140625,42.4000244140625,42.4000244140625,43.60003662109375,44.4000244140625,48,50.79998779296875,54,80.4000244140625,98.79998779296875,105.20001220703125,119.20001220703125,120,120.4000244140625,120.4000244140625,120.4000244140625,120.4000244140625,120.4000244140625,120.4000244140625,120.4000244140625,120.4000244140625,120.4000244140625,120.4000244140625,120.4000244140625,120.4000244140625,119.60003662109375,108.4000244140625,103.20001220703125,98.79998779296875,98.79998779296875,97.60003662109375,97.20001220703125,97.20001220703125,96.79998779296875,96.4000244140625,96.4000244140625,96.4000244140625,98,98,98,98,98.79998779296875]","[342.4000015258789,365.1999969482422,380,385.20000076293945,386,386,386,376.39999771118164,374.39999771118164,366.4000015258789,364,346.7999954223633,335.5999984741211,302.8000030517578,290.8000030517578,276.8000030517578,126,55.199981689453125,18.79998779296875,-113.60003662109375,-146,-205.60003662109375,-248,-274.79998779296875,-291.20001220703125,-291.20001220703125,-291.20001220703125,-291.20001220703125,-291.20001220703125,-288.79998779296875,-286.4000244140625,-286,-286.4000244140625,-287.60003662109375,-289.20001220703125,-302.4000244140625,-310.79998779296875,-313.60003662109375,-324,-326.4000244140625,-327.20001220703125,-327.20001220703125,-329.20001220703125,-329.20001220703125,-329.20001220703125,-329.20001220703125,-329.20001220703125,-329.20001220703125,-329.20001220703125,-329.20001220703125,-329.20001220703125,-329.20001220703125,-329.20001220703125,-316.4000244140625,-311.60003662109375,-309.60003662109375,-309.60003662109375,-310.4000244140625,-316,-316,-318,-322.79998779296875,-324.4000244140625,-327.20001220703125,-330.4000244140625,-330.4000244140625,-330.4000244140625,-330.4000244140625,-331.20001220703125]","[0,0,0,0,0,0,0,0,0,0,0,0,0,0,0,0,0,0,0,0,0,0,0,0,0,0,0,0,0,0,0,0,0,0,0,0,0,0,0,0,0,0,0,0,0,0,0,0,0,0,0,0,0,0,0,0,0,0,0,0,0,0,0,0,0,0,0,0,0]","[0,0,0,0,0,0,0,0,0,0,0,0,0,0,0,0,0,0,0,0,0,0,0,0,0,0,0,0,0,0,0,0,0,0,0,0,0,0,0,0,0,0,0,0,0,0,0,0,0,0,0,0,0,0,0,0,0,0,0,0,0,0,0,0,0,0,0,0,0]","[0,0,0,0,0,0,0,0,0,0,0,0,0,0,0,0,0,0,0,0,0,0,0,0,0,0,0,0,0,0,0,0,0,0,0,0,0,0,0,0,0,0,0,0,0,0,0,0,0,0,0,0,0,0,0,0,0,0,0,0,0,0,0,0,0,0,0,0,0]","[0.0008000000007371,0.027999999999991587,0.03699999999999193,0.06510000000147897,0.09749999999999659,0.11010000000148068,0.11889999999850431,0.14910000000148216,0.16610000000149228,0.19839999999850022,0.21560000000148705,0.23219999999925278,0.24960000000149307,0.26580000000073767,0.29810000000148307,0.31210000000149307,0.3473000000007431,0.3658999999985042,0.3841000000014816,0.39889999999850545,0.4248000000007437,0.44169999999924414,0.45910000000148443,0.46860000000148716,0.4968000000007464,0.5083000000007445,0.516699999999247,0.5323999999985034,0.5489999999999924,0.566199999999256,0.5993000000007385,0.6158000000007462,0.6474999999999937,0.6661000000014923,0.683800000000744,0.6988000000007446,0.7248999999984989,0.7421000000014857,0.7496999999992511,0.7809999999999917,0.7980000000000018,0.8094999999999999,0.8273999999985051,0.8361000000014798,0.8623000000007437,0.8796000000014885,0.8966000000014844,0.9131000000014922,0.930499999999995,0.9463999999985049,0.9633999999985008,0.9806999999992456,0.9983000000007394,1.0313000000007406,1.0441000000014924,1.0801000000014795,1.0916000000014918,1.1133999999985065,1.1266999999992464,1.1463999999985077,1.1596000000014897,1.1828000000007393,1.2003000000007376,1.216399999998501,1.246699999999251,1.2588999999985049,1.274800000000738,1.2838000000007384,1.2986999999992577]",,9,0,9,0,1,test,001,2022-08-25_16h29.00.963,GoFitts,2022.1.4,Win32,60.04563468,,,,
,,,,"[108.15594803123153,-332.8697807033038]","[-174.99999999999991,303.10889132455355]",20,700,1,"[98.79998779296875,98.79998779296875,98.79998779296875,99.20001220703125,99.60003662109375,99.60003662109375,99.60003662109375,100.4000244140625,103.20001220703125,104.79998779296875,104.79998779296875,104.79998779296875,104.79998779296875,104.79998779296875,105.20001220703125,106,106.79998779296875,108,108,108,108,108,106.79998779296875,104,89.60003662109375,73.60003662109375,27.60003662109375,2,-35.20001220703125,-70.39996337890625,-81.20001220703125,-114,-132.39996337890625,-135.5999755859375,-140.79998779296875,-144,-156.39996337890625,-158.39996337890625,-164.79998779296875,-166.79998779296875,-167.20001220703125,-167.20001220703125,-167.20001220703125,-167.20001220703125,-167.5999755859375,-170,-174.79998779296875]","[-331.20001220703125,-331.20001220703125,-331.20001220703125,-330.4000244140625,-323.60003662109375,-301.60003662109375,-293.60003662109375,-277.60003662109375,-263.20001220703125,-258,-257.20001220703125,-257.20001220703125,-260,-269.60003662109375,-276.79998779296875,-293.20001220703125,-308.79998779296875,-315.60003662109375,-316,-316,-316,-316,-313.60003662109375,-308.79998779296875,-280,-250,-174.4000244140625,-121.60003662109375,-33.20001220703125,58,84.39999389648438,162.39999389648438,206,218.39999389648438,234.8000030517578,241.59999084472656,258.8000030517578,260.8000030517578,270.3999938964844,274.3999938964844,275.59999084472656,276.3999938964844,277.1999969482422,278.8000030517578,282.3999938964844,288.8000030517578,296.8000030517578]","[0,0,0,0,0,0,0,0,0,0,0,0,0,0,0,0,0,0,0,0,0,0,0,0,0,0,0,0,0,0,0,0,0,0,0,0,0,0,0,0,0,0,0,0,0,0,0]","[0,0,0,0,0,0,0,0,0,0,0,0,0,0,0,0,0,0,0,0,0,0,0,0,0,0,0,0,0,0,0,0,0,0,0,0,0,0,0,0,0,0,0,0,0,0,0]","[0,0,0,0,0,0,0,0,0,0,0,0,0,0,0,0,0,0,0,0,0,0,0,0,0,0,0,0,0,0,0,0,0,0,0,0,0,0,0,0,0,0,0,0,0,0,0]","[0.0026999999992511903,0.029800000000747673,0.034800000000743125,0.049699999999248234,0.08319999999925187,0.10259999999776426,0.12459999999776983,0.13530000000073983,0.14889999999850545,0.16639999999850374,0.18309999999776494,0.2141999999992521,0.2260999999977713,0.24689999999850443,0.2586999999992514,0.2701999999992495,0.2968000000007436,0.3143000000007419,0.33199999999999363,0.34900000000000375,0.365399999998516,0.38219999999925847,0.399800000000738,0.43200000000000216,0.4501999999992563,0.4663999999985151,0.49849999999999284,0.515199999999254,0.5333000000007502,0.5663000000007514,0.5821999999992613,0.5998000000007409,0.6155999999977695,0.6490999999977589,0.6749999999999972,0.686399999998514,0.7153000000007381,0.7326999999992552,0.7506999999992559,0.7766999999992521,0.7858999999985059,0.8130999999977604,0.8305000000000007,0.8428000000007501,0.8585000000000065,0.866899999998509,0.897599999997766]",,10,0,10,0,1,test,001,2022-08-25_16h29.00.963,GoFitts,2022.1.4,Win32,60.04563468,,,,
,,,,"[-174.99999999999991,303.10889132455355]","[234.19571222560046,-260.1006889170879]",20,700,1,"[-174.79998779296875,-178.39996337890625,-178.79998779296875,-179.5999755859375,-180,-180,-180,-180,-180,-180,-178.79998779296875,-176,-134.39996337890625,-94.39996337890625,-64,-48,4.79998779296875,23.20001220703125,71.60003662109375,96.79998779296875,106.79998779296875,135.60003662109375,137.60003662109375,139.60003662109375,139.60003662109375,139.60003662109375,139.60003662109375,139.60003662109375,140,141.20001220703125,142.4000244140625,149.60003662109375,157.20001220703125,165.20001220703125,170.4000244140625,186,206,215.60003662109375,224,225.60003662109375,228.79998779296875,230]","[296.8000030517578,300.8000030517578,301.1999969482422,304.4000015258789,306.4000015258789,306.4000015258789,306.4000015258789,306.4000015258789,306.4000015258789,306.4000015258789,304.7999954223633,302,252.39999389648438,196.39999389648438,146,120,42.399993896484375,13.199981689453125,-54,-83.20001220703125,-94,-120.4000244140625,-122,-123.20001220703125,-123.20001220703125,-123.20001220703125,-123.20001220703125,-123.20001220703125,-123.20001220703125,-124,-124.79998779296875,-130.4000244140625,-137.60003662109375,-146.79998779296875,-152.79998779296875,-173.20001220703125,-203.20001220703125,-221.60003662109375,-238,-241.60003662109375,-250.4000244140625,-253.20001220703125]","[0,0,0,0,0,0,0,0,0,0,0,0,0,0,0,0,0,0,0,0,0,0,0,0,0,0,0,0,0,0,0,0,0,0,0,0,0,0,0,0,0,0]","[0,0,0,0,0,0,0,0,0,0,0,0,0,0,0,0,0,0,0,0,0,0,0,0,0,0,0,0,0,0,0,0,0,0,0,0,0,0,0,0,0,0]","[0,0,0,0,0,0,0,0,0,0,0,0,0,0,0,0,0,0,0,0,0,0,0,0,0,0,0,0,0,0,0,0,0,0,0,0,0,0,0,0,0,0]","[0.0005000000000023874,0.017899999998519434,0.03630000000075029,0.061500000000009436,0.07350000000000989,0.09909999999776176,0.11119999999925767,0.12139999999851625,0.15080000000074278,0.16739999999850852,0.1866999999992629,0.21050000000001035,0.23139999999851568,0.24930000000074415,0.2658000000007519,0.284000000000006,0.30059999999777176,0.3170999999977653,0.3338999999985077,0.35119999999925255,0.36700000000000443,0.3836999999992514,0.40069999999926154,0.417599999997762,0.4335999999977673,0.45039999999850977,0.4673999999985199,0.4843000000007436,0.5016999999992606,0.531800000000743,0.5363999999985083,0.5656999999992536,0.5840000000000032,0.6006999999992644,0.6173999999985114,0.6343999999985073,0.6653000000007552,0.681599999997772,0.6985999999977679,0.7153999999985103,0.7336999999992599,0.7515000000000072]",,11,0,11,0,1,test,001,2022-08-25_16h29.00.963,GoFitts,2022.1.4,Win32,60.04563468,,,,
,,,,"[234.19571222560046,-260.1006889170879]","[-283.15594803123156,205.72483830236564]",20,700,1,"[230,230,230,229.60003662109375,229.20001220703125,229.20001220703125,230,231.60003662109375,233.60003662109375,234.4000244140625,234.79998779296875,234.79998779296875,234.79998779296875,234.79998779296875,234.79998779296875,234.4000244140625,233.20001220703125,225.60003662109375,219.20001220703125,204.4000244140625,204.4000244140625,150,73.60003662109375,51.20001220703125,-17.20001220703125,-103.5999755859375,-115.5999755859375,-115.5999755859375,-144.39996337890625,-154.79998779296875,-162.39996337890625,-162.39996337890625,-167.20001220703125,-172.79998779296875,-174,-177.5999755859375,-179.20001220703125,-183.20001220703125,-188.39996337890625,-195.20001220703125,-202.39996337890625,-210.79998779296875,-222.79998779296875,-228.79998779296875,-241.5999755859375,-254.39996337890625,-282.79998779296875]","[-253.20001220703125,-255.60003662109375,-257.20001220703125,-259.20001220703125,-266,-268.79998779296875,-273.20001220703125,-276,-278.4000244140625,-279.60003662109375,-280,-280,-278.4000244140625,-276.4000244140625,-274.4000244140625,-272.4000244140625,-268,-252,-241.20001220703125,-222.79998779296875,-222.79998779296875,-163.20001220703125,-98.4000244140625,-79.20001220703125,-21.20001220703125,49.199981689453125,61.600006103515625,61.600006103515625,92.79998779296875,105.19998168945312,116.79998779296875,116.79998779296875,124,130.79998779296875,131.60000610351562,135.19998168945312,136.79998779296875,140,144.39999389648438,150.79998779296875,158,166,175.19998168945312,179.1999969482422,186.39999389648438,194.39999389648438,211.59999084472656]","[0,0,0,0,0,0,0,0,0,0,0,0,0,0,0,0,0,0,0,0,0,0,0,0,0,0,0,0,0,0,0,0,0,0,0,0,0,0,0,0,0,0,0,0,0,0,0]","[0,0,0,0,0,0,0,0,0,0,0,0,0,0,0,0,0,0,0,0,0,0,0,0,0,0,0,0,0,0,0,0,0,0,0,0,0,0,0,0,0,0,0,0,0,0,0]","[0,0,0,0,0,0,0,0,0,0,0,0,0,0,0,0,0,0,0,0,0,0,0,0,0,0,0,0,0,0,0,0,0,0,0,0,0,0,0,0,0,0,0,0,0,0,0]","[0.0008000000007371,0.0301999999992546,0.047800000000734144,0.0646999999992488,0.08209999999776585,0.09949999999999193,0.1298999999985,0.14569999999925187,0.15209999999775903,0.17949999999999022,0.19559999999775357,0.19999999999998863,0.23109999999775255,0.24880000000074176,0.2645999999977562,0.28169999999924755,0.2988999999984969,0.31489999999850227,0.33180000000074017,0.34819999999925244,0.3655999999977553,0.38169999999924187,0.3995999999977613,0.4296999999992437,0.4439999999999884,0.47999999999998977,0.4970999999977579,0.5031999999992536,0.5299999999999869,0.5464999999999947,0.5519999999999925,0.5653000000007324,0.5821999999992471,0.6136999999992554,0.6328000000007421,0.6503000000007404,0.6663000000007457,0.6828000000007393,0.7003999999985098,0.7154999999999916,0.7470999999977579,0.758499999999998,0.7788999999985009,0.7965999999977527,0.8028000000007438,0.824399999998505,0.8628999999985041]",,12,0,12,0,1,test,001,2022-08-25_16h29.00.963,GoFitts,2022.1.4,Win32,60.04563468,,,,
,,,,"[-283.15594803123156,205.72483830236564]","[319.74091017491037,-142.35782507653005]",20,700,1,"[-282.79998779296875,-284,-284.3999938964844,-284.3999938964844,-284.3999938964844,-284.3999938964844,-285.1999816894531,-287.1999816894531,-289.1999816894531,-289.1999816894531,-290,-290,-289.1999816894531,-281.6000061035156,-244.39996337890625,-224.79998779296875,-62.79998779296875,-62.79998779296875,-8,68.4000244140625,127.20001220703125,156.79998779296875,166.4000244140625,178.4000244140625,178.4000244140625,191.20001220703125,204,204,204,204,204,205.20001220703125,210.79998779296875,212.79998779296875,216.4000244140625,220.79998779296875,223.60003662109375,237.60003662109375,260.800048828125,265.5999755859375,269.5999755859375,269.5999755859375,277.2000732421875,285.5999755859375,294,296.800048828125,299.2000732421875,300,300.800048828125,303.2000732421875,305.2000732421875,305.2000732421875,305.2000732421875,305.2000732421875,306.4000244140625,308.800048828125,314]","[211.59999084472656,212.39999389648438,212.39999389648438,212.39999389648438,212.39999389648438,212.39999389648438,212.8000030517578,212.8000030517578,212,212,210.8000030517578,210,207.59999084472656,200.8000030517578,178,167.60000610351562,88.39999389648438,88.39999389648438,56.399993896484375,12.399993896484375,-28.800018310546875,-52,-58.800018310546875,-68,-68,-78,-85.20001220703125,-85.20001220703125,-85.20001220703125,-85.20001220703125,-85.20001220703125,-85.60003662109375,-88,-88.4000244140625,-89.60003662109375,-92,-93.60003662109375,-101.60003662109375,-114.79998779296875,-117.60003662109375,-120,-120,-124,-127.60003662109375,-131.60003662109375,-134,-136.4000244140625,-137.20001220703125,-138,-140.4000244140625,-142,-142,-142,-142,-143.20001220703125,-144.4000244140625,-146]","[0,0,0,0,0,0,0,0,0,0,0,0,0,0,0,0,0,0,0,0,0,0,0,0,0,0,0,0,0,0,0,0,0,0,0,0,0,0,0,0,0,0,0,0,0,0,0,0,0,0,0,0,0,0,0,0,0]","[0,0,0,0,0,0,0,0,0,0,0,0,0,0,0,0,0,0,0,0,0,0,0,0,0,0,0,0,0,0,0,0,0,0,0,0,0,0,0,0,0,0,0,0,0,0,0,0,0,0,0,0,0,0,0,0,0]","[0,0,0,0,0,0,0,0,0,0,0,0,0,0,0,0,0,0,0,0,0,0,0,0,0,0,0,0,0,0,0,0,0,0,0,0,0,0,0,0,0,0,0,0,0,0,0,0,0,0,0,0,0,0,0,0,0]","[0.00030000000073471256,0.01639999999851227,0.028800000000742898,0.047800000000734144,0.051699999999257784,0.06789999999850238,0.0856999999992496,0.11769999999924607,0.1306999999992513,0.14089999999850988,0.1664999999999992,0.18369999999924858,0.20000000000000284,0.21560000000148705,0.2338999999984992,0.25099999999999056,0.2823000000007454,0.2866999999992572,0.30130000000073665,0.3326999999992495,0.3496000000014874,0.36560000000149273,0.3703999999985115,0.38750000000000284,0.4021999999992545,0.41849999999999454,0.449300000000747,0.45439999999850045,0.4681000000014848,0.48480000000074597,0.5013999999985117,0.5183999999985076,0.5494999999999948,0.5671999999992465,0.5838000000007355,0.6015000000000015,0.6176999999992461,0.6348000000007374,0.6643999999985084,0.6688999999985015,0.6859999999999928,0.7016000000014913,0.7189999999999941,0.7353999999985064,0.7678999999985052,0.7848000000007431,0.8174999999999955,0.8329999999999984,0.8461000000014849,0.8553999999985109,0.8816000000014839,0.8976999999992472,0.915399999998499,0.9326999999992438,0.9488000000007446,0.9648000000007357,0.9834999999999923]",,13,0,13,0,1,test,001,2022-08-25_16h29.00.963,GoFitts,2022.1.4,Win32,60.04563468,,,,
,,,,"[319.74091017491037,-142.35782507653005]","[-342.351660256832,72.76909178621575]",20,700,1,"[314,324,325.5999755859375,326,326,326,326,326,326,326,326,325.5999755859375,325.2000732421875,324.800048828125,323.2000732421875,306,276.4000244140625,259.2000732421875,236.4000244140625,177.20001220703125,-22,-22,-51.5999755859375,-150.39996337890625,-161.5999755859375,-182.79998779296875,-196,-201.5999755859375,-220.39996337890625,-229.20001220703125,-239.5999755859375,-262.79998779296875,-268,-275.1999816894531,-278,-283.6000061035156,-289.1999816894531,-294,-304.79998779296875,-314,-326,-330.79998779296875,-331.1999816894531,-332.3999938964844,-334]","[-146,-146.79998779296875,-146.79998779296875,-146.79998779296875,-146.79998779296875,-146.79998779296875,-145.60003662109375,-145.60003662109375,-142.79998779296875,-142.79998779296875,-142.79998779296875,-142,-141.60003662109375,-140.79998779296875,-139.60003662109375,-131.60003662109375,-119.60003662109375,-114,-107.20001220703125,-87.60003662109375,-39.600006103515625,-39.600006103515625,-34,-14,-12.399993896484375,-7.600006103515625,-4,-2,2,4,7.199981689453125,14,15.600006103515625,18,19.199981689453125,21.199981689453125,25.199981689453125,29.199981689453125,38,44.79998779296875,56.399993896484375,63.600006103515625,65.19998168945312,68,70.79998779296875]","[0,0,0,0,0,0,0,0,0,0,0,0,0,0,0,0,0,0,0,0,0,0,0,0,0,0,0,0,0,0,0,0,0,0,0,0,0,0,0,0,0,0,0,0,0]","[0,0,0,0,0,0,0,0,0,0,0,0,0,0,0,0,0,0,0,0,0,0,0,0,0,0,0,0,0,0,0,0,0,0,0,0,0,0,0,0,0,0,0,0,0]","[0,0,0,0,0,0,0,0,0,0,0,0,0,0,0,0,0,0,0,0,0,0,0,0,0,0,0,0,0,0,0,0,0,0,0,0,0,0,0,0,0,0,0,0,0]","[0.0008999999985093154,0.034000000000006025,0.04999999999999716,0.06669999999925835,0.08330000000074733,0.10010000000148978,0.11689999999850897,0.13369999999925142,0.150899999998515,0.18250000000000455,0.19869999999924914,0.20960000000148682,0.21739999999850568,0.2338000000007412,0.2505000000000024,0.27649999999999864,0.28619999999925483,0.30139999999850886,0.3168000000007396,0.33410000000148443,0.36130000000075313,0.37839999999850704,0.3873000000007494,0.4151000000014875,0.4318000000007487,0.4491000000014935,0.46530000000075233,0.48260000000149716,0.5153999999985075,0.5323000000007454,0.5483000000007507,0.5601999999992557,0.5808000000007496,0.5988999999985083,0.6043000000007481,0.6200000000000045,0.6483000000007451,0.660100000001492,0.6818000000007487,0.7003000000007518,0.7171000000014942,0.7481999999992581,0.7603000000007398,0.76889999999851,0.7985000000000042]",,14,0,14,0,1,test,001,2022-08-25_16h29.00.963,GoFitts,2022.1.4,Win32,60.04563468,,,,
,,,,,,,,1,,,,,,,,,,,,,test,001,2022-08-25_16h29.00.963,GoFitts,2022.1.4,Win32,60.04563468,1,0,0,1
,,return,1.0949,"[279.5999755859375,-6.399993896484375]","[209.1033144871432,232.2327579616857]",25.5,625,2,"[279.5999755859375,279.5999755859375,279.5999755859375,279.5999755859375,279.5999755859375,278.4000244140625,277.5999755859375,276.800048828125,276.800048828125,276.800048828125,276.800048828125,276.800048828125,276.800048828125,276.800048828125,273.5999755859375,262.800048828125,257.5999755859375,242,232,228.4000244140625,206.79998779296875,189.60003662109375,174.4000244140625,165.20001220703125,168.4000244140625,178.4000244140625,184.4000244140625,190.79998779296875,204,231.20001220703125,234.4000244140625,239.60003662109375,239.60003662109375,240.4000244140625,241.20001220703125,245.20001220703125,245.60003662109375,246.4000244140625,246.4000244140625,245.20001220703125,234,229.20001220703125,218.79998779296875]","[-6.399993896484375,-6.399993896484375,-6.399993896484375,-6.399993896484375,-6.399993896484375,-6.399993896484375,-5.600006103515625,-5.20001220703125,-5.20001220703125,-5.20001220703125,-5.20001220703125,-5.20001220703125,-5.20001220703125,-5.20001220703125,-4.800018310546875,-1.600006103515625,0,2.79998779296875,6.79998779296875,9.199981689453125,28.399993896484375,49.199981689453125,74,101.60000610351562,143.60000610351562,168,177.59999084472656,186.8000030517578,202.39999389648438,226.39999389648438,229.59999084472656,234.8000030517578,235.1999969482422,238.39999389648438,241.59999084472656,248.8000030517578,250,253.59999084472656,253.59999084472656,254,248.8000030517578,246,240]","[0,0,0,0,0,0,0,0,0,0,0,0,0,0,0,0,0,0,0,0,0,0,0,0,0,0,0,0,0,0,0,0,0,0,0,0,0,0,0,0,0,0,0]","[0,0,0,0,0,0,0,0,0,0,0,0,0,0,0,0,0,0,0,0,0,0,0,0,0,0,0,0,0,0,0,0,0,0,0,0,0,0,0,0,0,0,0]","[0,0,0,0,0,0,0,0,0,0,0,0,0,0,0,0,0,0,0,0,0,0,0,0,0,0,0,0,0,0,0,0,0,0,0,0,0,0,0,0,0,0,0]","[0.0014999999999929514,0.02910000000149182,0.0331000000014825,0.04890000000223438,0.07890000000223552,0.09670000000296852,0.12970000000296977,0.14120000000298205,0.14930000000073562,0.1651000000014875,0.18199999999998795,0.19860000000149114,0.21510000000148466,0.23220000000297603,0.24930000000074415,0.2814000000022361,0.29860000000148545,0.3155000000000001,0.3329999999999984,0.3486000000014826,0.36540000000222506,0.3818000000007373,0.3994999999999891,0.4156000000014899,0.44720000000297944,0.4649000000022312,0.48110000000149,0.4933000000007439,0.5027000000029744,0.5308000000007382,0.5459999999999923,0.5649999999999977,0.5826000000014915,0.6129999999999995,0.6259999999999906,0.6459000000022286,0.6651000000014875,0.681600000001481,0.69820000000297,0.715900000002236,0.7473000000007346,0.7638000000007423,0.7808000000007382]",,0,0,0,0,1,test,001,2022-08-25_16h29.00.963,GoFitts,2022.1.4,Win32,60.04563468,,,,
,,,,"[209.1033144871432,232.2327579616857]","[-156.25000000000014,-270.632938682637]",25.5,625,2,"[218.79998779296875,189.60003662109375,187.60003662109375,184.79998779296875,184.4000244140625,184,184,184,184,184,184,184,184,184,184,184,184,184,183.60003662109375,168,132,69.20001220703125,54,5.20001220703125,-28.79998779296875,-72.39996337890625,-84,-88,-94.79998779296875,-101.20001220703125,-104.79998779296875,-108.79998779296875,-110,-114.39996337890625,-120,-123.5999755859375,-134.39996337890625,-134.39996337890625,-144.79998779296875,-148,-148.79998779296875,-151.20001220703125,-154,-157.5999755859375,-160.39996337890625,-161.5999755859375]","[240,221.1999969482422,219.1999969482422,216.8000030517578,216,214.8000030517578,214.8000030517578,214.8000030517578,214.8000030517578,214.8000030517578,214.8000030517578,214.8000030517578,214.8000030517578,214.8000030517578,214.8000030517578,214.8000030517578,214.8000030517578,214.8000030517578,213.1999969482422,194,154.79998779296875,77.60000610351562,58,-1.20001220703125,-44.800018310546875,-113.20001220703125,-132,-138.4000244140625,-148.4000244140625,-162,-169.20001220703125,-174.79998779296875,-176.4000244140625,-180.79998779296875,-185.20001220703125,-188.4000244140625,-199.60003662109375,-199.60003662109375,-214,-220,-222.79998779296875,-229.20001220703125,-237.60003662109375,-248.4000244140625,-257.20001220703125,-261.60003662109375]","[0,0,0,0,0,0,0,0,0,0,0,0,0,0,0,0,0,0,0,0,0,0,0,0,0,0,0,0,0,0,0,0,0,0,0,0,0,0,0,0,0,0,0,0,0,0]","[0,0,0,0,0,0,0,0,0,0,0,0,0,0,0,0,0,0,0,0,0,0,0,0,0,0,0,0,0,0,0,0,0,0,0,0,0,0,0,0,0,0,0,0,0,0]","[0,0,0,0,0,0,0,0,0,0,0,0,0,0,0,0,0,0,0,0,0,0,0,0,0,0,0,0,0,0,0,0,0,0,0,0,0,0,0,0,0,0,0,0,0,0]","[0.000600000001483636,0.021900000002233355,0.04340000000223654,0.051400000002232105,0.08240000000223802,0.09860000000148261,0.1039000000022412,0.11749999999999261,0.13400000000000034,0.15040000000223586,0.16719999999925506,0.18360000000149057,0.20030000000073755,0.21699999999999875,0.23349999999999227,0.25040000000223017,0.2666999999992612,0.2836999999992571,0.30130000000075086,0.33230000000074256,0.34869999999925483,0.3661999999992531,0.3838000000007469,0.40019999999925915,0.41769999999925744,0.44869999999924914,0.46560000000148705,0.4829000000022319,0.4999000000022278,0.5171999999992494,0.5338000000007384,0.5646999999992488,0.5778000000007495,0.5978000000007455,0.6106000000014831,0.633199999999249,0.6471000000014868,0.6559000000022337,0.6808000000007439,0.6991999999992515,0.715900000002236,0.7318000000007459,0.7486999999992605,0.7656000000014842,0.7823000000007454,0.7980000000000018]",,1,0,1,0,1,test,001,2022-08-25_16h29.00.963,GoFitts,2022.1.4,Win32,60.04563468,,,,
,,,,"[-156.25000000000014,-270.632938682637]","[96.56781074217108,297.2051613422355]",25.5,625,2,"[-161.5999755859375,-164,-165.5999755859375,-165.5999755859375,-165.5999755859375,-165.5999755859375,-165.5999755859375,-165.5999755859375,-164.79998779296875,-164.79998779296875,-153.5999755859375,-153.5999755859375,-142.79998779296875,-140.39996337890625,-136,-132,-126.39996337890625,-98,-82.79998779296875,-74.39996337890625,-54.39996337890625,-7.20001220703125,4.79998779296875,43.20001220703125,50.4000244140625,52,52.4000244140625,52.4000244140625,52.4000244140625,50,48.79998779296875,48.79998779296875,48.79998779296875,48.79998779296875,48.79998779296875,48.79998779296875,48.79998779296875,51.60003662109375,64.79998779296875,79.20001220703125,106,126,128.4000244140625,128.4000244140625,126.79998779296875,126.79998779296875,126,125.20001220703125,122.4000244140625,121.60003662109375,120.4000244140625,120,118.79998779296875,118.79998779296875,116.79998779296875,116.79998779296875,116,115.20001220703125,115.20001220703125,115.20001220703125,115.20001220703125,114.79998779296875,114.4000244140625,114,113.20001220703125,112,109.60003662109375,109.20001220703125]","[-261.60003662109375,-273.20001220703125,-282.79998779296875,-285.60003662109375,-286.79998779296875,-286.79998779296875,-286.79998779296875,-286.79998779296875,-286.79998779296875,-286.79998779296875,-280.4000244140625,-280.4000244140625,-273.60003662109375,-272,-268.79998779296875,-264.79998779296875,-256.79998779296875,-181.20001220703125,-119.60003662109375,-86.79998779296875,-14,108.79998779296875,132.39999389648438,196.39999389648438,210.39999389648438,213.1999969482422,215.59999084472656,218.39999389648438,221.59999084472656,229.1999969482422,231.59999084472656,231.59999084472656,231.59999084472656,232.39999389648438,233.59999084472656,233.59999084472656,235.1999969482422,238.8000030517578,248,258.3999938964844,275.59999084472656,294,302,304.4000015258789,308.4000015258789,308.4000015258789,309.5999984741211,310.4000015258789,313.1999969482422,313.5999984741211,314,314.4000015258789,315.1999969482422,315.1999969482422,317.1999969482422,317.1999969482422,319.1999969482422,320.4000015258789,320.4000015258789,320.4000015258789,320.4000015258789,320,316.7999954223633,314.4000015258789,309.1999969482422,305.1999969482422,298.3999938964844,297.1999969482422]","[0,0,0,0,0,0,0,0,0,0,0,0,0,0,0,0,0,0,0,0,0,0,0,0,0,0,0,0,0,0,0,0,0,0,0,0,0,0,0,0,0,0,0,0,0,0,0,0,0,0,0,0,0,0,0,0,0,0,0,0,0,0,0,0,0,0,0,0]","[0,0,0,0,0,0,0,0,0,0,0,0,0,0,0,0,0,0,0,0,0,0,0,0,0,0,0,0,0,0,0,0,0,0,0,0,0,0,0,0,0,0,0,0,0,0,0,0,0,0,0,0,0,0,0,0,0,0,0,0,0,0,0,0,0,0,0,0]","[0,0,0,0,0,0,0,0,0,0,0,0,0,0,0,0,0,0,0,0,0,0,0,0,0,0,0,0,0,0,0,0,0,0,0,0,0,0,0,0,0,0,0,0,0,0,0,0,0,0,0,0,0,0,0,0,0,0,0,0,0,0,0,0,0,0,0,0]","[0.0003000000007489234,0.015700000002979664,0.035600000001494436,0.06730000000074199,0.08460000000148682,0.10010000000148978,0.10549999999999216,0.11899999999999977,0.1354999999999933,0.15220000000297773,0.180499999999995,0.18760000000149546,0.21680000000074529,0.2337000000029832,0.25060000000148364,0.2669000000022379,0.28420000000298273,0.3168000000007396,0.32960000000149137,0.34970000000298285,0.3544000000022294,0.38370000000297466,0.40230000000074995,0.4207000000029808,0.4366000000014907,0.4519000000022402,0.4687000000029826,0.48740000000223915,0.5027000000029744,0.5196000000014891,0.5494999999999948,0.5664000000022327,0.5716000000014958,0.5889000000022406,0.6033000000007434,0.6198000000007511,0.6354999999999933,0.6664999999999992,0.684100000001493,0.7019999999999982,0.7187000000029826,0.7512000000029815,0.7680000000000007,0.7857000000029757,0.8168000000007396,0.8333000000007473,0.8397000000029777,0.8618000000007413,0.8836000000014934,0.8967000000029799,0.9159000000022388,0.9209000000022343,0.9349000000022301,0.9663000000007429,0.9838000000007412,0.996600000001493,1.0052000000029722,1.0319999999999965,1.0489000000022344,1.0661000000014837,1.082499999999996,1.1004000000022387,1.1167000000029788,1.132800000000742,1.149800000000738,1.1663000000007457,1.1842000000029742,1.2022000000029749]",,2,0,2,0,1,test,001,2022-08-25_16h29.00.963,GoFitts,2022.1.4,Win32,60.04563468,,,,
,,,,"[96.56781074217108,297.2051613422355]","[-32.66514477114195,-310.7880923025854]",25.5,625,2,"[109.20001220703125,107.20001220703125,106.79998779296875,106.79998779296875,106.79998779296875,106.79998779296875,106.79998779296875,106.79998779296875,106.79998779296875,106.79998779296875,107.20001220703125,108.4000244140625,110.79998779296875,112,112.4000244140625,112.79998779296875,112.79998779296875,112.79998779296875,112.79998779296875,111.20001220703125,110.4000244140625,105.20001220703125,100,92.79998779296875,83.20001220703125,76.79998779296875,46,36,25.20001220703125,10,6,0.4000244140625,0,0,0,0,0,0,0,0,0,-4.39996337890625,-6.39996337890625,-10.39996337890625,-14.79998779296875,-16,-20,-20.79998779296875,-22,-22.79998779296875]","[297.1999969482422,292,291.59999084472656,291.59999084472656,291.59999084472656,291.59999084472656,291.59999084472656,291.59999084472656,291.59999084472656,293.1999969482422,294.3999938964844,296,302,305.5999984741211,308.7999954223633,312.4000015258789,313.1999969482422,313.1999969482422,313.1999969482422,312.4000015258789,311.1999969482422,298.3999938964844,280.8000030517578,256.3999938964844,216.39999389648438,178,17.600006103515625,-29.20001220703125,-70,-109.60003662109375,-117.60003662109375,-141.20001220703125,-147.60003662109375,-153.20001220703125,-153.20001220703125,-158,-168,-170,-180.79998779296875,-185.20001220703125,-188.4000244140625,-207.20001220703125,-211.60003662109375,-226.79998779296875,-250.79998779296875,-258.4000244140625,-282.79998779296875,-289.60003662109375,-300.79998779296875,-310.79998779296875]","[0,0,0,0,0,0,0,0,0,0,0,0,0,0,0,0,0,0,0,0,0,0,0,0,0,0,0,0,0,0,0,0,0,0,0,0,0,0,0,0,0,0,0,0,0,0,0,0,0,0]","[0,0,0,0,0,0,0,0,0,0,0,0,0,0,0,0,0,0,0,0,0,0,0,0,0,0,0,0,0,0,0,0,0,0,0,0,0,0,0,0,0,0,0,0,0,0,0,0,0,0]","[0,0,0,0,0,0,0,0,0,0,0,0,0,0,0,0,0,0,0,0,0,0,0,0,0,0,0,0,0,0,0,0,0,0,0,0,0,0,0,0,0,0,0,0,0,0,0,0,0,0]","[0.0005000000000023874,0.034800000000743125,0.04839999999850875,0.07050000000000978,0.08119999999925653,0.09780000000074551,0.11450000000000671,0.1311999999992537,0.14780000000074267,0.16530000000075518,0.181599999997772,0.19839999999851443,0.21519999999925687,0.23459999999776926,0.2483999999985116,0.27919999999926404,0.2920000000000016,0.3011999999992554,0.31509999999776994,0.33159999999776346,0.3623999999985159,0.3801999999992631,0.3920999999977681,0.41339999999851784,0.4258999999985065,0.44219999999926074,0.480000000000004,0.4965999999977697,0.5135999999977656,0.5300999999977734,0.5421999999992551,0.5795000000000101,0.5970000000000084,0.608399999998511,0.6165999999977743,0.6318999999985095,0.6633000000007456,0.6755999999977718,0.7138000000007452,0.7265000000000015,0.7355000000000018,0.7793000000007453,0.7909999999999968,0.7991999999992601,0.8301999999992518,0.8415999999977686,0.8623000000007437,0.8738000000007418,0.883499999999998,0.8983000000007451]",,3,0,3,0,1,test,001,2022-08-25_16h29.00.963,GoFitts,2022.1.4,Win32,60.04563468,,,,
