身分證字號,date,expName,psychopyVersion,OS,frameRate,from,to,w,a,id,sequence_loop.thisN,enter_time,mouse.x,mouse.y,mouse.leftButton,mouse.midButton,mouse.rightButton,mouse.time,trial_loop.thisRepN,trial_loop.thisTrialN,trial_loop.thisN,trial_loop.thisIndex,trial_loop.ran,leave_time,sequence_loop.thisRepN,sequence_loop.thisTrialN,sequence_loop.thisIndex,sequence_loop.ran
test,2024-09-02_17h23.31.715,GoFitts,2023.2.3,Win32,74.07407407,,,,,,,,,,,,,,,,,,,,,,,
test,2024-09-02_17h23.31.715,GoFitts,2023.2.3,Win32,74.07407407,,,,,,,,,,,,,,,,,,,,,,,
test,2024-09-02_17h23.31.715,GoFitts,2023.2.3,Win32,74.07407407,"[83,37]","[-143.14067816804064,30.42549038651391]",47,292.6770521,3.75,0,0.4789,"[83,80,77,75,74,72,72,72,72,72,72,72,72,72,72,72,72,72,72,72,72,72,72,69,65,56,48,34,17,-3,-27,-44,-67,-86,-101,-115,-123,-129,-132,-132,-132,-132,-132,-132,-132,-132,-132,-132,-132,-132,-132,-132,-132,-132,-132,-132,-132,-132,-132,-132,-132,-132,-132,-132,-132,-132,-132,-132,-132,-132,-132,-132,-132,-132,-132]","[37,39,42,44,45,46,46,46,46,46,46,46,46,46,46,46,46,46,46,46,46,46,46,46,46,46,46,45,44,42,41,40,39,38,38,37,37,36,35,35,35,35,35,35,35,35,35,35,35,35,35,35,35,35,35,35,35,35,35,35,35,35,35,35,35,35,35,35,35,35,35,35,35,35,35]","[0,0,0,0,0,0,0,0,0,0,0,0,0,0,0,0,0,0,0,0,0,0,0,0,0,0,0,0,0,0,0,0,0,0,0,0,0,0,0,0,0,0,0,0,0,0,0,0,0,0,0,0,0,0,0,0,0,0,0,0,0,0,0,0,0,0,0,0,0,0,0,0,0,0,0]","[0,0,0,0,0,0,0,0,0,0,0,0,0,0,0,0,0,0,0,0,0,0,0,0,0,0,0,0,0,0,0,0,0,0,0,0,0,0,0,0,0,0,0,0,0,0,0,0,0,0,0,0,0,0,0,0,0,0,0,0,0,0,0,0,0,0,0,0,0,0,0,0,0,0,0]","[0,0,0,0,0,0,0,0,0,0,0,0,0,0,0,0,0,0,0,0,0,0,0,0,0,0,0,0,0,0,0,0,0,0,0,0,0,0,0,0,0,0,0,0,0,0,0,0,0,0,0,0,0,0,0,0,0,0,0,0,0,0,0,0,0,0,0,0,0,0,0,0,0,0,0]","[0.00020000000298026066,0.01249999999999929,0.025200000002979728,0.039499999999999424,0.052700000002979586,0.07020000000297966,0.07870000000298027,0.09170000000298018,0.10510000000148967,0.1182000000029797,0.13140000000223484,0.14449999999999985,0.1598000000007449,0.1732000000029803,0.1849000000022345,0.1979999999999995,0.21060000000148982,0.2244000000022348,0.23799999999999955,0.2521000000014899,0.2639000000022351,0.2784999999999993,0.29070000000298,0.30510000000148985,0.3184000000022351,0.33199999999999985,0.345900000002235,0.3591000000014901,0.37260000000148974,0.38520000000298005,0.39970000000298,0.4114999999999993,0.4241000000014896,0.4387000000029797,0.4517000000029796,0.46580000000074495,0.478900000002235,0.4921000000014901,0.5049000000022348,0.518900000002235,0.5328000000007451,0.5457000000029799,0.557400000002235,0.5705,0.5839000000022345,0.5972000000029798,0.6104000000022349,0.6239999999999997,0.6373000000007449,0.6524000000022347,0.6639999999999997,0.6786000000014898,0.69260000000149,0.7052000000029803,0.7208000000007448,0.7319999999999993,0.7459000000022353,0.757300000000745,0.7714000000022345,0.7839000000022347,0.7988000000007451,0.8114000000022346,0.8238000000007446,0.83720000000298,0.8513000000007445,0.8638000000007446,0.8773000000007452,0.8904000000022352,0.9059000000022346,0.9178000000007449,0.9308000000007448,0.9457000000029803,0.9579999999999993,0.9703000000007451,0.9842000000029802]",0,0,0,0,1,,,,,
test,2024-09-02_17h23.31.715,GoFitts,2023.2.3,Win32,74.07407407,"[-143.14067816804064,30.42549038651391]","[146.33852606769835,0]",47,292.6770521,3.75,0,0.3474,"[-132,-132,-132,-132,-132,-132,-132,-132,-132,-132,-132,-132,-132,-132,-131,-127,-117,-101,-75,-44,-7,29,68,93,114,124,128,129,129,129,129,129,130,132,136,142,146,148,150,150,150,150,150,150,150,150,150,150,150,150,150,150,150,150,150,150,150,150,150,150,150,150,150,150,150]","[35,35,35,35,35,35,35,35,35,35,35,35,35,35,35,34,33,32,31,28,25,21,17,13,11,8,7,6,6,6,6,6,6,4,3,1,0,0,0,0,0,0,0,0,0,0,0,0,0,0,0,0,0,0,0,0,0,0,0,0,0,0,0,0,0]","[0,0,0,0,0,0,0,0,0,0,0,0,0,0,0,0,0,0,0,0,0,0,0,0,0,0,0,0,0,0,0,0,0,0,0,0,0,0,0,0,0,0,0,0,0,0,0,0,0,0,0,0,0,0,0,0,0,0,0,0,0,0,0,0,0]","[0,0,0,0,0,0,0,0,0,0,0,0,0,0,0,0,0,0,0,0,0,0,0,0,0,0,0,0,0,0,0,0,0,0,0,0,0,0,0,0,0,0,0,0,0,0,0,0,0,0,0,0,0,0,0,0,0,0,0,0,0,0,0,0,0]","[0,0,0,0,0,0,0,0,0,0,0,0,0,0,0,0,0,0,0,0,0,0,0,0,0,0,0,0,0,0,0,0,0,0,0,0,0,0,0,0,0,0,0,0,0,0,0,0,0,0,0,0,0,0,0,0,0,0,0,0,0,0,0,0,0]","[0.0001999999992543522,0.013800000000744994,0.0259999999999998,0.03849999999999998,0.05169999999925423,0.06949999999999967,0.07830000000074477,0.09239999999850923,0.10519999999925478,0.11830000000074481,0.13180000000074443,0.14530000000074494,0.15830000000074484,0.17339999999850964,0.1849999999999996,0.1988999999985097,0.21280000000074484,0.22589999999850985,0.2394999999999996,0.25349999999999984,0.2668000000007451,0.2793000000007444,0.2936999999992542,0.3058000000007448,0.3201000000014895,0.3326000000014897,0.3473999999985091,0.3593999999985096,0.3731999999992546,0.3849999999999998,0.3981999999992549,0.4118999999985089,0.42710000000148973,0.44010000000148963,0.45280000000074416,0.4659999999999993,0.47910000000148933,0.49310000000149046,0.504999999999999,0.5201999999992548,0.532600000001489,0.5469999999999988,0.5591999999992545,0.5716000000014905,0.587199999999255,0.5983000000007443,0.6123000000007455,0.6248000000007448,0.6389999999999993,0.6518999999985091,0.6671999999992551,0.679399999998509,0.6916000000014897,0.7061999999992548,0.720100000001489,0.7315000000000005,0.7473000000007453,0.7593000000007439,0.7714999999999996,0.7858000000007443,0.7983000000007454,0.8128999999985087,0.8248999999985092,0.8383000000007446,0.8518000000007451]",1,0,1,0,1,0.2128,,,,
test,2024-09-02_17h23.31.715,GoFitts,2023.2.3,Win32,74.07407407,"[146.33852606769835,0]","[-143.14067816804064,-30.425490386513875]",47,292.6770521,3.75,0,0.414,"[150,150,150,150,150,150,150,150,150,150,150,150,150,148,143,132,118,95,63,35,6,-27,-52,-70,-84,-95,-102,-108,-114,-120,-126,-132,-138,-142,-145,-148,-149,-149,-150,-150,-150,-151,-151,-151,-151,-151,-151,-151,-151,-151,-151,-151,-151,-151,-151,-151,-151,-151,-151,-151,-151,-151,-151,-151,-151,-151,-151,-151,-151,-151]","[0,0,0,0,0,0,0,0,0,0,0,0,0,0,0,0,0,0,0,0,-1,-2,-4,-6,-8,-9,-9,-10,-10,-11,-12,-13,-15,-16,-18,-18,-20,-20,-20,-20,-21,-21,-21,-21,-21,-21,-21,-21,-21,-21,-21,-21,-21,-21,-21,-21,-21,-21,-21,-21,-21,-21,-21,-21,-21,-21,-21,-21,-21,-21]","[0,0,0,0,0,0,0,0,0,0,0,0,0,0,0,0,0,0,0,0,0,0,0,0,0,0,0,0,0,0,0,0,0,0,0,0,0,0,0,0,0,0,0,0,0,0,0,0,0,0,0,0,0,0,0,0,0,0,0,0,0,0,0,0,0,0,0,0,0,0]","[0,0,0,0,0,0,0,0,0,0,0,0,0,0,0,0,0,0,0,0,0,0,0,0,0,0,0,0,0,0,0,0,0,0,0,0,0,0,0,0,0,0,0,0,0,0,0,0,0,0,0,0,0,0,0,0,0,0,0,0,0,0,0,0,0,0,0,0,0,0]","[0,0,0,0,0,0,0,0,0,0,0,0,0,0,0,0,0,0,0,0,0,0,0,0,0,0,0,0,0,0,0,0,0,0,0,0,0,0,0,0,0,0,0,0,0,0,0,0,0,0,0,0,0,0,0,0,0,0,0,0,0,0,0,0,0,0,0,0,0,0]","[0,0.013699999999255752,0.025899999998511447,0.03930000000074507,0.052800000000745584,0.06619999999925597,0.08019999999925531,0.09280000000074651,0.10680000000074585,0.12150000000000105,0.13269999999925552,0.14619999999925604,0.15930000000074607,0.17339999999851052,0.18830000000074598,0.20169999999925636,0.2135999999977649,0.2270000000000003,0.24139999999851014,0.2545999999977653,0.26700000000000124,0.28089999999851045,0.2953000000007453,0.3070000000000004,0.32150000000000034,0.3343999999985101,0.3470000000000013,0.3603000000007466,0.3736999999992552,0.3876999999992563,0.4005999999977661,0.4140000000000015,0.42769999999925545,0.4405000000000001,0.4548000000007466,0.4660000000000011,0.4811999999992551,0.4928000000007451,0.5081999999992561,0.5191999999992554,0.5336999999992553,0.5463999999985099,0.5608000000007465,0.5751999999992563,0.5883000000007463,0.6001999999992549,0.6131999999992566,0.6261999999992565,0.6426999999992553,0.6528000000007452,0.6670000000000016,0.6793000000007456,0.6946999999992549,0.7075000000000014,0.7203999999985111,0.732599999997765,0.747099999997765,0.7615000000000016,0.7728000000007462,0.7860999999977665,0.8015000000000008,0.8125999999977651,0.8271999999992552,0.840099999997765,0.8526999999992562,0.8675000000000015,0.8800999999977659,0.8948000000007461,0.9061999999992558,0.9213000000007465]",2,0,2,0,1,0.2136,,,,
test,2024-09-02_17h23.31.715,GoFitts,2023.2.3,Win32,74.07407407,"[-143.14067816804064,-30.425490386513875]","[133.68689576725916,59.521240845436104]",47,292.6770521,3.75,0,0.4786,"[-151,-151,-151,-151,-151,-151,-151,-151,-151,-151,-151,-150,-150,-150,-148,-143,-137,-125,-109,-84,-63,-36,-5,22,45,68,81,92,100,103,105,106,107,108,110,111,114,117,119,123,127,129,131,131,132,132,132,132,132,132,132,132,132,132,132,132,132,132,132,132,132,132,132,132,132,132,132,132,132,132,132,132,132,132,132]","[-21,-21,-21,-21,-21,-21,-21,-21,-21,-21,-21,-21,-21,-21,-21,-20,-18,-15,-11,-5,-2,3,9,14,19,26,30,35,39,41,43,44,45,46,48,50,52,56,59,61,64,65,66,67,67,67,67,67,67,67,67,67,67,67,67,67,67,67,67,67,67,67,67,67,67,67,67,67,67,67,67,67,67,67,67]","[0,0,0,0,0,0,0,0,0,0,0,0,0,0,0,0,0,0,0,0,0,0,0,0,0,0,0,0,0,0,0,0,0,0,0,0,0,0,0,0,0,0,0,0,0,0,0,0,0,0,0,0,0,0,0,0,0,0,0,0,0,0,0,0,0,0,0,0,0,0,0,0,0,0,0]","[0,0,0,0,0,0,0,0,0,0,0,0,0,0,0,0,0,0,0,0,0,0,0,0,0,0,0,0,0,0,0,0,0,0,0,0,0,0,0,0,0,0,0,0,0,0,0,0,0,0,0,0,0,0,0,0,0,0,0,0,0,0,0,0,0,0,0,0,0,0,0,0,0,0,0]","[0,0,0,0,0,0,0,0,0,0,0,0,0,0,0,0,0,0,0,0,0,0,0,0,0,0,0,0,0,0,0,0,0,0,0,0,0,0,0,0,0,0,0,0,0,0,0,0,0,0,0,0,0,0,0,0,0,0,0,0,0,0,0,0,0,0,0,0,0,0,0,0,0,0,0]","[0,0.011899999998510324,0.0255999999977643,0.037399999998509514,0.050800000000744916,0.06519999999925474,0.07730000000074533,0.09159999999776502,0.10519999999925567,0.11759999999776483,0.13250000000000028,0.1460999999977659,0.15850000000000009,0.17069999999925578,0.18519999999925574,0.1996999999992557,0.21169999999925437,0.22509999999776475,0.2394999999999996,0.2528000000007449,0.2651999999992558,0.27830000000074584,0.29169999999925444,0.3049999999999997,0.31859999999776534,0.3325999999977647,0.34500000000000064,0.35839999999850924,0.37280000000074587,0.38659999999776495,0.3991999999992544,0.4126999999992549,0.4253000000007461,0.43859999999776456,0.4528999999985093,0.46530000000074523,0.4785999999977655,0.4924999999999997,0.5053999999985095,0.5181999999992559,0.5318000000007448,0.5448999999985098,0.5585999999977656,0.5716999999992556,0.5873999999985102,0.5983000000007461,0.6108000000007454,0.6240000000000006,0.6375999999977644,0.6508999999985097,0.6645000000000003,0.6781999999992543,0.6923999999985107,0.7040999999977657,0.7175999999977645,0.7308999999985097,0.7445999999977655,0.7583999999985096,0.7710000000000008,0.7846999999992548,0.7971999999992558,0.8108000000007447,0.8260000000000005,0.8375000000000004,0.8505999999977654,0.8648999999985101,0.8774999999999995,0.8930999999977658,0.9043000000007453,0.9175999999977655,0.9310999999977643,0.9441999999992543,0.9583000000007456,0.9708000000007448,0.9858000000007454]",3,0,3,0,1,0.2251,,,,
test,2024-09-02_17h23.31.715,GoFitts,2023.2.3,Win32,74.07407407,"[133.68689576725916,59.521240845436104]","[-118.39035452054924,-86.01562746481072]",47,292.6770521,3.75,0,0.4381,"[132,132,132,132,132,132,132,132,132,132,132,132,132,131,126,119,107,88,67,39,13,-11,-32,-50,-63,-73,-80,-86,-89,-91,-94,-96,-98,-100,-103,-107,-109,-113,-116,-117,-119,-120,-120,-121,-121,-121,-121,-121,-121,-121,-121,-121,-121,-121,-121,-121,-121,-121,-121,-121,-121,-121,-121,-121,-121,-121,-121,-121,-121,-121,-121,-121]","[67,67,67,67,67,67,67,67,67,67,67,67,67,65,61,55,47,34,20,4,-10,-22,-33,-44,-51,-57,-62,-64,-66,-68,-69,-71,-72,-73,-75,-76,-77,-79,-80,-81,-82,-83,-83,-83,-83,-83,-83,-83,-83,-83,-83,-83,-83,-83,-83,-83,-83,-83,-83,-83,-83,-83,-83,-83,-83,-83,-83,-83,-83,-83,-83,-83]","[0,0,0,0,0,0,0,0,0,0,0,0,0,0,0,0,0,0,0,0,0,0,0,0,0,0,0,0,0,0,0,0,0,0,0,0,0,0,0,0,0,0,0,0,0,0,0,0,0,0,0,0,0,0,0,0,0,0,0,0,0,0,0,0,0,0,0,0,0,0,0,0]","[0,0,0,0,0,0,0,0,0,0,0,0,0,0,0,0,0,0,0,0,0,0,0,0,0,0,0,0,0,0,0,0,0,0,0,0,0,0,0,0,0,0,0,0,0,0,0,0,0,0,0,0,0,0,0,0,0,0,0,0,0,0,0,0,0,0,0,0,0,0,0,0]","[0,0,0,0,0,0,0,0,0,0,0,0,0,0,0,0,0,0,0,0,0,0,0,0,0,0,0,0,0,0,0,0,0,0,0,0,0,0,0,0,0,0,0,0,0,0,0,0,0,0,0,0,0,0,0,0,0,0,0,0,0,0,0,0,0,0,0,0,0,0,0,0]","[0,0.012600000001491196,0.025400000002235856,0.03760000000149155,0.05219999999925484,0.06450000000000067,0.07860000000149014,0.09100000000000108,0.10569999999925628,0.11790000000223522,0.13100000000000023,0.14540000000223507,0.157800000000746,0.17160000000149012,0.18510000000149063,0.19769999999925503,0.21200000000000152,0.22540000000223515,0.2386000000014903,0.25280000000074665,0.2651999999992558,0.27880000000074645,0.2920000000000016,0.30519999999925496,0.31860000000149036,0.33200000000000074,0.34630000000074546,0.3596000000014907,0.37310000000149124,0.38530000000074516,0.39880000000074567,0.41290000000223515,0.4263000000007455,0.43810000000149074,0.45199999999999996,0.4661999999992563,0.4778000000007463,0.4920000000000009,0.5051000000014909,0.5200000000000014,0.5331999999992565,0.5465,0.5576000000014911,0.5709000000022364,0.5841999999992549,0.5979000000022356,0.613400000002235,0.6243000000007459,0.6386999999992558,0.651199999999255,0.6644000000022352,0.6776000000014903,0.6911000000014909,0.704300000000746,0.7181000000014901,0.7309000000022365,0.7445000000000004,0.7578000000007457,0.7711000000014909,0.7858000000007461,0.7976000000014913,0.8124000000022367,0.8253000000007464,0.8386000000014917,0.8509000000022358,0.8644000000022363,0.8776999999992565,0.8911999999992553,0.9044000000022354,0.9176999999992557,0.9311000000014911,0.9444000000022363]",4,0,4,0,1,0.2119,,,,
test,2024-09-02_17h23.31.715,GoFitts,2023.2.3,Win32,74.07407407,"[-118.39035452054924,-86.01562746481072]","[97.91958668134058,108.7507184151988]",47,292.6770521,3.75,0,0.4149,"[-121,-121,-121,-121,-121,-121,-121,-121,-121,-121,-121,-121,-120,-118,-112,-102,-87,-67,-37,-13,14,39,60,70,79,82,84,85,85,86,86,87,87,87,87,87,87,88,88,88,89,90,90,91,91,92,92,92,92,92,92,92,92,92,92,92,92,92,92,92,92,92,92,92,92,92,92,92,92,92]","[-83,-83,-83,-83,-83,-83,-83,-83,-83,-83,-83,-83,-83,-83,-77,-68,-54,-39,-17,1,19,37,52,60,68,72,75,77,79,81,84,88,91,93,95,96,98,99,101,102,103,104,105,106,107,107,107,107,107,107,107,107,107,107,107,107,107,107,107,107,107,107,107,107,107,107,107,107,107,107]","[0,0,0,0,0,0,0,0,0,0,0,0,0,0,0,0,0,0,0,0,0,0,0,0,0,0,0,0,0,0,0,0,0,0,0,0,0,0,0,0,0,0,0,0,0,0,0,0,0,0,0,0,0,0,0,0,0,0,0,0,0,0,0,0,0,0,0,0,0,0]","[0,0,0,0,0,0,0,0,0,0,0,0,0,0,0,0,0,0,0,0,0,0,0,0,0,0,0,0,0,0,0,0,0,0,0,0,0,0,0,0,0,0,0,0,0,0,0,0,0,0,0,0,0,0,0,0,0,0,0,0,0,0,0,0,0,0,0,0,0,0]","[0,0,0,0,0,0,0,0,0,0,0,0,0,0,0,0,0,0,0,0,0,0,0,0,0,0,0,0,0,0,0,0,0,0,0,0,0,0,0,0,0,0,0,0,0,0,0,0,0,0,0,0,0,0,0,0,0,0,0,0,0,0,0,0,0,0,0,0,0,0]","[0,0.013400000002235402,0.02610000000148993,0.03950000000000031,0.05440000000223577,0.06590000000223561,0.0796999999992547,0.09280000000074473,0.10619999999925511,0.11940000000223527,0.13290000000223579,0.14819999999925493,0.1595000000000013,0.17340000000223554,0.1880000000000006,0.2004999999999999,0.21369999999925504,0.22719999999925555,0.24130000000074503,0.25400000000000134,0.26710000000149137,0.28130000000074595,0.2948000000007447,0.30610000000149107,0.32140000000223523,0.33369999999925604,0.34800000000000075,0.36019999999925467,0.3736999999992552,0.3873000000007458,0.4006999999992562,0.4149000000022358,0.4280000000000008,0.4393000000007454,0.4539000000022355,0.4660000000000011,0.48060000000149117,0.49390000000223644,0.5083000000007463,0.5206999999992554,0.5339000000022356,0.5471000000014907,0.5603000000007459,0.5739000000022365,0.5884000000022365,0.6018000000007451,0.6141000000014909,0.6280000000000001,0.6403000000007459,0.6536000000014912,0.6660000000000004,0.680199999999255,0.6926000000014909,0.7068000000007455,0.7193000000007448,0.734,0.7461000000014906,0.7605000000000004,0.7729999999999997,0.7861999999992548,0.7996999999992553,0.8128000000007454,0.8263000000007459,0.839500000000001,0.8528000000007463,0.8686999999992562,0.8794000000022351,0.8926000000014902,0.9071999999992553,0.919400000002236]",5,0,5,0,1,0.2005,,,,
test,2024-09-02_17h23.31.715,GoFitts,2023.2.3,Win32,74.07407407,"[97.91958668134058,108.7507184151988]","[-73.16926303384925,-126.73288112699802]",47,292.6770521,3.75,0,0.2816,"[92,92,92,92,92,92,89,85,79,71,58,46,31,15,-1,-14,-27,-37,-45,-53,-59,-64,-68,-71,-72,-74,-75,-76,-77,-77,-78,-78,-78,-78,-78,-78,-78,-78,-78,-78,-78,-78,-78,-78,-78,-78,-78,-78,-78,-78,-78,-78,-78,-78,-78,-78,-78,-78,-78,-78]","[107,107,107,107,107,105,100,92,83,69,52,32,8,-14,-35,-52,-69,-81,-90,-97,-102,-107,-110,-113,-115,-117,-119,-121,-121,-122,-122,-122,-122,-122,-122,-122,-122,-122,-122,-122,-122,-122,-122,-122,-122,-122,-122,-122,-122,-122,-122,-122,-122,-122,-122,-122,-122,-122,-122,-122]","[0,0,0,0,0,0,0,0,0,0,0,0,0,0,0,0,0,0,0,0,0,0,0,0,0,0,0,0,0,0,0,0,0,0,0,0,0,0,0,0,0,0,0,0,0,0,0,0,0,0,0,0,0,0,0,0,0,0,0,0]","[0,0,0,0,0,0,0,0,0,0,0,0,0,0,0,0,0,0,0,0,0,0,0,0,0,0,0,0,0,0,0,0,0,0,0,0,0,0,0,0,0,0,0,0,0,0,0,0,0,0,0,0,0,0,0,0,0,0,0,0]","[0,0,0,0,0,0,0,0,0,0,0,0,0,0,0,0,0,0,0,0,0,0,0,0,0,0,0,0,0,0,0,0,0,0,0,0,0,0,0,0,0,0,0,0,0,0,0,0,0,0,0,0,0,0,0,0,0,0,0,0]","[0,0.01539999999851105,0.026800000000745783,0.03939999999851018,0.05389999999851014,0.0663999999985112,0.08060000000149081,0.09389999999851106,0.1078000000007453,0.1205000000000016,0.13450000000000095,0.1473000000007456,0.16060000000149088,0.17489999999851058,0.1883999999985111,0.20150000000000112,0.21500000000000163,0.22800000000000153,0.24060000000149095,0.2538000000007461,0.26739999999850994,0.2816000000014913,0.2941000000014906,0.30819999999925507,0.32069999999925614,0.3343999999985101,0.34739999999851,0.3620000000000001,0.37400000000000055,0.38750000000000107,0.40050000000000097,0.41389999999851135,0.4280000000000008,0.44200000000000017,0.45460000000149137,0.46630000000074645,0.47969999999925506,0.49269999999925496,0.5061999999992555,0.5196000000014909,0.5340000000000007,0.5461999999992564,0.5595000000000017,0.5738999999985115,0.5863000000007457,0.5998000000007462,0.6138999999985106,0.6273999999985111,0.6423000000007466,0.6538000000007465,0.6688999999985104,0.6806999999992556,0.6928000000007462,0.7061000000014914,0.7203999999985111,0.7328999999985104,0.7461999999992557,0.759500000000001,0.7736999999992555,0.7873000000007462]",6,0,6,0,1,0.1078,,,,
test,2024-09-02_17h23.31.715,GoFitts,2023.2.3,Win32,74.07407407,"[-73.16926303384925,-126.73288112699802]","[45.22109148670004,139.1762088017127]",47,292.6770521,3.75,0,0.4268,"[-78,-78,-78,-78,-78,-78,-78,-78,-78,-78,-78,-78,-75,-69,-64,-57,-49,-41,-32,-24,-17,-9,-4,2,6,10,12,14,17,19,22,24,26,29,32,34,37,38,39,39,40,40,40,40,40,40,40,40,40,40,40,40,40,40,40,40,40,40,40,40,40,40,40,40,40,40,40,40,40,40,40]","[-122,-122,-122,-122,-122,-122,-122,-122,-122,-122,-122,-122,-117,-99,-80,-54,-28,0,25,45,62,77,87,96,102,108,113,116,120,123,126,128,130,132,136,139,142,144,145,145,145,145,145,145,145,145,145,145,145,145,145,145,145,145,145,145,145,145,145,145,145,145,145,145,145,145,145,145,145,145,145]","[0,0,0,0,0,0,0,0,0,0,0,0,0,0,0,0,0,0,0,0,0,0,0,0,0,0,0,0,0,0,0,0,0,0,0,0,0,0,0,0,0,0,0,0,0,0,0,0,0,0,0,0,0,0,0,0,0,0,0,0,0,0,0,0,0,0,0,0,0,0,0]","[0,0,0,0,0,0,0,0,0,0,0,0,0,0,0,0,0,0,0,0,0,0,0,0,0,0,0,0,0,0,0,0,0,0,0,0,0,0,0,0,0,0,0,0,0,0,0,0,0,0,0,0,0,0,0,0,0,0,0,0,0,0,0,0,0,0,0,0,0,0,0]","[0,0,0,0,0,0,0,0,0,0,0,0,0,0,0,0,0,0,0,0,0,0,0,0,0,0,0,0,0,0,0,0,0,0,0,0,0,0,0,0,0,0,0,0,0,0,0,0,0,0,0,0,0,0,0,0,0,0,0,0,0,0,0,0,0,0,0,0,0,0,0]","[0,0.014400000002236624,0.025300000000745726,0.038600000001491,0.05169999999925601,0.06619999999925597,0.07940000000223613,0.09380000000074595,0.10519999999925567,0.1208000000007452,0.13169999999925608,0.14510000000149148,0.15860000000149022,0.1741000000014914,0.1863000000007453,0.20050000000000168,0.21280000000074573,0.226100000001491,0.2396000000014915,0.2539000000022362,0.26740000000223674,0.28080000000074534,0.2928000000007458,0.3061999999992562,0.3196999999992567,0.3326999999992566,0.3474000000022368,0.35840000000223604,0.3746999999992564,0.3864000000022365,0.399699999999255,0.41300000000000026,0.42680000000074614,0.4396000000014908,0.4526999999992558,0.4665000000000017,0.4803000000007458,0.49269999999925496,0.5061000000014904,0.5206999999992554,0.532800000000746,0.5471999999992558,0.5596999999992551,0.5740000000000016,0.585100000001491,0.6006000000014904,0.6119000000022368,0.6261000000014914,0.6385000000000005,0.6518000000007458,0.6651999999992562,0.6806000000014905,0.6916999999992566,0.7051999999992553,0.7185000000000006,0.731900000002236,0.7459000000022353,0.7608000000007458,0.7718000000007468,0.7853000000007455,0.7985000000000007,0.8120000000000012,0.8254000000022366,0.8394000000022359,0.8526999999992562,0.8671999999992561,0.8796000000014903,0.8935000000000013,0.9054000000022366,0.9186000000014918,0.9329000000022365]",7,0,7,0,1,0.1741,,,,
test,2024-09-02_17h23.31.715,GoFitts,2023.2.3,Win32,74.07407407,"[45.22109148670004,139.1762088017127]","[-15.296541246710069,-145.53686831024683]",47,292.6770521,3.75,0,0.3463,"[40,40,40,40,40,40,40,40,40,40,40,40,39,38,35,31,25,20,15,10,4,-1,-4,-6,-8,-9,-11,-11,-11,-12,-12,-12,-13,-13,-13,-14,-14,-15,-15,-15,-15,-16,-16,-16,-16,-16,-16,-16,-16,-16,-16,-16,-16,-16,-16,-16,-16,-16,-16,-16,-16,-16,-16,-16,-16]","[145,145,145,145,145,145,145,145,145,145,145,138,128,116,93,71,41,10,-20,-44,-68,-88,-102,-110,-117,-121,-124,-125,-126,-127,-128,-128,-129,-130,-131,-132,-132,-133,-135,-136,-137,-138,-139,-139,-139,-139,-139,-139,-139,-139,-139,-139,-139,-139,-139,-139,-139,-139,-139,-139,-139,-139,-139,-139,-139]","[0,0,0,0,0,0,0,0,0,0,0,0,0,0,0,0,0,0,0,0,0,0,0,0,0,0,0,0,0,0,0,0,0,0,0,0,0,0,0,0,0,0,0,0,0,0,0,0,0,0,0,0,0,0,0,0,0,0,0,0,0,0,0,0,0]","[0,0,0,0,0,0,0,0,0,0,0,0,0,0,0,0,0,0,0,0,0,0,0,0,0,0,0,0,0,0,0,0,0,0,0,0,0,0,0,0,0,0,0,0,0,0,0,0,0,0,0,0,0,0,0,0,0,0,0,0,0,0,0,0,0]","[0,0,0,0,0,0,0,0,0,0,0,0,0,0,0,0,0,0,0,0,0,0,0,0,0,0,0,0,0,0,0,0,0,0,0,0,0,0,0,0,0,0,0,0,0,0,0,0,0,0,0,0,0,0,0,0,0,0,0,0,0,0,0,0,0]","[0,0.012800000000746437,0.025100000001490486,0.038600000001491,0.05380000000074503,0.06510000000149141,0.07850000000000001,0.09200000000000053,0.10619999999925511,0.11850000000000094,0.1318000000007462,0.14610000000149093,0.16060000000149088,0.17360000000149078,0.18769999999925524,0.19950000000000045,0.21169999999925615,0.22639999999851135,0.2396000000014915,0.2530000000000001,0.26739999999850994,0.2806000000014901,0.2945000000000011,0.3063000000007463,0.3201999999992555,0.33369999999925604,0.34630000000074546,0.35939999999851047,0.37189999999850976,0.3873000000007458,0.39960000000149165,0.41350000000000087,0.42519999999925595,0.4388000000007466,0.45199999999999996,0.4656000000014906,0.4786000000014905,0.4921999999992561,0.5078000000007457,0.52039999999851,0.5318999999985099,0.5451999999992552,0.55960000000149,0.5738000000007464,0.585100000001491,0.6003999999985101,0.61189999999851,0.627300000000746,0.6386000000014906,0.6518999999985109,0.6663000000007457,0.6786999999992549,0.692699999999256,0.7066999999992554,0.7185000000000006,0.7316999999992557,0.7451999999992562,0.7585000000000015,0.7721000000014904,0.7851000000014903,0.7985000000000007,0.811899999998511,0.8253999999985098,0.8406999999992557,0.8528000000007463]",8,0,8,0,1,0.1736,,,,
test,2024-09-02_17h23.31.715,GoFitts,2023.2.3,Win32,74.07407407,"[-15.296541246710069,-145.53686831024683]","[-15.296541246709937,145.53686831024686]",47,292.6770521,3.75,0,0.3742,"[-16,-16,-16,-16,-16,-16,-16,-16,-16,-16,-16,-16,-16,-16,-16,-14,-12,-12,-12,-12,-12,-13,-15,-17,-18,-19,-19,-20,-20,-20,-20,-20,-19,-19,-19,-19,-19,-19,-19,-19,-19,-19,-19,-19,-19,-19,-19,-19,-19,-19,-19,-19,-19,-19,-19,-19,-19,-19,-19,-19,-19,-19,-19,-19,-19,-19,-19]","[-139,-139,-139,-139,-139,-139,-139,-139,-139,-139,-139,-139,-139,-137,-132,-119,-96,-73,-41,-11,15,37,58,76,91,101,110,117,124,130,135,140,145,149,151,153,153,153,153,153,153,153,153,153,153,153,153,153,153,153,153,153,153,153,153,153,153,153,153,153,153,153,153,153,153,153,153]","[0,0,0,0,0,0,0,0,0,0,0,0,0,0,0,0,0,0,0,0,0,0,0,0,0,0,0,0,0,0,0,0,0,0,0,0,0,0,0,0,0,0,0,0,0,0,0,0,0,0,0,0,0,0,0,0,0,0,0,0,0,0,0,0,0,0,0]","[0,0,0,0,0,0,0,0,0,0,0,0,0,0,0,0,0,0,0,0,0,0,0,0,0,0,0,0,0,0,0,0,0,0,0,0,0,0,0,0,0,0,0,0,0,0,0,0,0,0,0,0,0,0,0,0,0,0,0,0,0,0,0,0,0,0,0]","[0,0,0,0,0,0,0,0,0,0,0,0,0,0,0,0,0,0,0,0,0,0,0,0,0,0,0,0,0,0,0,0,0,0,0,0,0,0,0,0,0,0,0,0,0,0,0,0,0,0,0,0,0,0,0,0,0,0,0,0,0,0,0,0,0,0,0]","[0.00010000000149013033,0.01550000000000118,0.027400000002236524,0.03850000000000087,0.053000000000000824,0.0663000000007461,0.07860000000149014,0.09280000000074651,0.1053000000007458,0.11869999999925618,0.13310000000149103,0.14540000000223507,0.1603000000007455,0.1733000000007454,0.18640000000223544,0.19960000000149059,0.21410000000149054,0.22640000000223637,0.24050000000000082,0.25360000000149086,0.2664000000022355,0.2806999999992552,0.29310000000149117,0.30519999999925496,0.31980000000074504,0.3330000000000002,0.34680000000074607,0.35980000000074597,0.3741999999992558,0.38810000000149003,0.39960000000149165,0.41260000000149155,0.4261999999992554,0.4405000000000001,0.4531000000014913,0.4661999999992563,0.48060000000149117,0.49180000000074564,0.505199999999256,0.5188000000007449,0.5319000000022367,0.5455000000000005,0.5589000000022359,0.57410000000149,0.5853000000007462,0.5986999999992548,0.6145000000000014,0.6253000000007454,0.6388000000007459,0.6539999999999999,0.6653000000007463,0.678800000000745,0.6939000000022357,0.7054000000022356,0.7194000000022367,0.734,0.7453000000007464,0.7586000000014916,0.7731000000014916,0.7851999999992554,0.7993000000007449,0.811900000002236,0.8273000000007453,0.8386000000014899,0.8519000000022352,0.8669000000022358,0.878699999999256]",9,0,9,0,1,0.1996,,,,
test,2024-09-02_17h23.31.715,GoFitts,2023.2.3,Win32,74.07407407,"[-15.296541246709937,145.53686831024686]","[45.22109148670001,-139.17620880171273]",47,292.6770521,3.75,0,0.3485,"[-19,-19,-19,-19,-19,-19,-19,-19,-18,-18,-16,-14,-12,-7,-3,3,9,15,20,26,32,37,41,44,47,49,50,51,52,54,55,55,55,55,55,55,55,55,55,55,55,55,55,55,55,55,55,55,55,55,55,55,55,55,55,55,55,55,55,55,55,55,55,55]","[153,153,153,153,153,153,153,153,150,143,134,123,112,91,74,52,30,5,-14,-37,-55,-73,-86,-98,-107,-114,-121,-126,-131,-140,-142,-145,-147,-149,-150,-150,-151,-151,-151,-151,-151,-151,-151,-151,-151,-151,-151,-151,-151,-151,-151,-151,-151,-151,-151,-151,-151,-151,-151,-151,-151,-151,-151,-151]","[0,0,0,0,0,0,0,0,0,0,0,0,0,0,0,0,0,0,0,0,0,0,0,0,0,0,0,0,0,0,0,0,0,0,0,0,0,0,0,0,0,0,0,0,0,0,0,0,0,0,0,0,0,0,0,0,0,0,0,0,0,0,0,0]","[0,0,0,0,0,0,0,0,0,0,0,0,0,0,0,0,0,0,0,0,0,0,0,0,0,0,0,0,0,0,0,0,0,0,0,0,0,0,0,0,0,0,0,0,0,0,0,0,0,0,0,0,0,0,0,0,0,0,0,0,0,0,0,0]","[0,0,0,0,0,0,0,0,0,0,0,0,0,0,0,0,0,0,0,0,0,0,0,0,0,0,0,0,0,0,0,0,0,0,0,0,0,0,0,0,0,0,0,0,0,0,0,0,0,0,0,0,0,0,0,0,0,0,0,0,0,0,0,0]","[0,0.014800000000745328,0.027100000001491154,0.03950000000000031,0.055199999999254956,0.0658999999985106,0.079300000000746,0.09319999999925521,0.10619999999925511,0.1205000000000016,0.1346999999992562,0.14789999999851133,0.16060000000149088,0.17480000000074547,0.1871000000014913,0.20039999999851155,0.21369999999925504,0.2278999999985114,0.24060000000149095,0.25369999999925597,0.26710000000149137,0.2803000000007465,0.2936000000014918,0.3070000000000004,0.3216999999992556,0.33460000000149215,0.3484999999999996,0.3611000000014908,0.37410000000149246,0.40039999999851084,0.4143000000007451,0.4276000000014921,0.44039999999851,0.45419999999925587,0.46689999999851217,0.48139999999851035,0.49280000000074686,0.5069999999999997,0.5191999999992571,0.532800000000746,0.5458999999985092,0.5593999999985098,0.5726999999992568,0.5860000000000003,0.6003999999985101,0.6146000000014897,0.6258999999985111,0.6393000000007465,0.6530000000000005,0.6660000000000021,0.6793999999985108,0.6941999999992543,0.7076000000014897,0.7191999999992564,0.7328000000007453,0.7461999999992575,0.7601999999992568,0.7728000000007444,0.7861999999992566,0.7993999999985117,0.8133999999985111,0.8281999999992546,0.8393000000007458,0.8531000000014917]",10,0,10,0,1,0.1606,,,,
test,2024-09-02_17h23.31.715,GoFitts,2023.2.3,Win32,74.07407407,"[45.22109148670001,-139.17620880171273]","[-73.16926303384915,126.73288112699808]",47,292.6770521,3.75,0,0.2671,"[55,55,55,55,55,55,55,55,55,55,52,43,33,19,3,-12,-27,-42,-51,-55,-60,-62,-64,-65,-66,-66,-66,-66,-66,-66,-66,-66,-66,-66,-66,-66,-66,-66,-66,-66,-66,-66,-66,-66,-66,-66,-66,-66,-66,-66,-66,-66,-66,-66,-66,-66,-66,-66,-66]","[-151,-151,-151,-151,-151,-151,-151,-151,-150,-142,-128,-101,-75,-40,-6,23,51,76,93,103,111,116,120,122,124,125,125,125,125,125,125,125,125,125,125,125,125,125,125,125,125,125,125,125,125,125,125,125,125,125,125,125,125,125,125,125,125,125,125]","[0,0,0,0,0,0,0,0,0,0,0,0,0,0,0,0,0,0,0,0,0,0,0,0,0,0,0,0,0,0,0,0,0,0,0,0,0,0,0,0,0,0,0,0,0,0,0,0,0,0,0,0,0,0,0,0,0,0,0]","[0,0,0,0,0,0,0,0,0,0,0,0,0,0,0,0,0,0,0,0,0,0,0,0,0,0,0,0,0,0,0,0,0,0,0,0,0,0,0,0,0,0,0,0,0,0,0,0,0,0,0,0,0,0,0,0,0,0,0]","[0,0,0,0,0,0,0,0,0,0,0,0,0,0,0,0,0,0,0,0,0,0,0,0,0,0,0,0,0,0,0,0,0,0,0,0,0,0,0,0,0,0,0,0,0,0,0,0,0,0,0,0,0,0,0,0,0,0,0]","[0,0.013300000000743495,0.026699999999255652,0.03900000000000148,0.05340000000223455,0.06619999999925597,0.07910000000148898,0.09250000000000114,0.10800000000000054,0.11899999999999977,0.1335000000000015,0.14669999999925665,0.15899999999999892,0.17380000000074602,0.1883000000007442,0.20110000000148887,0.2144000000022359,0.22780000000074452,0.2414999999999985,0.2530000000000001,0.26710000000149137,0.28000000000000114,0.29410000000148884,0.3064999999999998,0.3208000000007445,0.33360000000148915,0.348199999999256,0.35999999999999943,0.3724999999999987,0.3866999999992551,0.4011999999992568,0.4124000000022363,0.4258000000007449,0.43910000000149196,0.45230000000074355,0.4656000000014906,0.4791000000014911,0.4924999999999997,0.5066999999992561,0.5193000000007437,0.5324999999999989,0.5476000000014913,0.5591000000014894,0.5724000000022365,0.5856000000014916,0.6015000000000015,0.6125000000000007,0.6278000000007466,0.6389999999999993,0.6543000000007453,0.6661000000014887,0.678800000000745,0.6926000000014909,0.7084000000022357,0.7191000000014895,0.7323000000007447,0.7456000000014917,0.7613000000007446,0.7723000000007438]",11,0,11,0,1,0.1467,,,,
test,2024-09-02_17h23.31.715,GoFitts,2023.2.3,Win32,74.07407407,"[-73.16926303384915,126.73288112699808]","[97.91958668134062,-108.75071841519876]",47,292.6770521,3.75,0,0.5216,"[-66,-66,-66,-66,-66,-66,-66,-66,-66,-66,-66,-66,-66,-66,-66,-63,-58,-51,-43,-30,-19,-5,7,20,33,42,51,57,62,66,69,72,74,77,79,81,84,85,87,89,91,93,94,96,97,97,97,97,97,97,97,97,97,97,97,97,97,97,97,97,97,97,97,97,97,97,97,97,97,97,97,97,97,97,97,97,97,97]","[125,125,125,125,125,125,125,125,125,125,125,125,125,125,122,115,106,92,80,62,45,28,13,-1,-16,-27,-37,-44,-50,-55,-59,-62,-66,-69,-72,-75,-78,-80,-84,-88,-91,-94,-96,-98,-99,-99,-100,-100,-100,-100,-100,-100,-100,-100,-100,-100,-100,-100,-100,-100,-100,-100,-100,-100,-100,-100,-100,-100,-100,-100,-100,-100,-100,-100,-100,-100,-100,-100]","[0,0,0,0,0,0,0,0,0,0,0,0,0,0,0,0,0,0,0,0,0,0,0,0,0,0,0,0,0,0,0,0,0,0,0,0,0,0,0,0,0,0,0,0,0,0,0,0,0,0,0,0,0,0,0,0,0,0,0,0,0,0,0,0,0,0,0,0,0,0,0,0,0,0,0,0,0,0]","[0,0,0,0,0,0,0,0,0,0,0,0,0,0,0,0,0,0,0,0,0,0,0,0,0,0,0,0,0,0,0,0,0,0,0,0,0,0,0,0,0,0,0,0,0,0,0,0,0,0,0,0,0,0,0,0,0,0,0,0,0,0,0,0,0,0,0,0,0,0,0,0,0,0,0,0,0,0]","[0,0,0,0,0,0,0,0,0,0,0,0,0,0,0,0,0,0,0,0,0,0,0,0,0,0,0,0,0,0,0,0,0,0,0,0,0,0,0,0,0,0,0,0,0,0,0,0,0,0,0,0,0,0,0,0,0,0,0,0,0,0,0,0,0,0,0,0,0,0,0,0,0,0,0,0,0,0]","[0,0.013500000000000512,0.026199999999256818,0.04200000000000159,0.052699999999255454,0.06689999999851182,0.0793999999985111,0.09359999999776392,0.10619999999925511,0.11939999999851025,0.1333999999985096,0.1460999999977659,0.1593999999985094,0.17300000000000182,0.18709999999776628,0.2005999999977668,0.21389999999851028,0.22800000000000153,0.24059999999776593,0.2537999999970211,0.26829999999701926,0.2807999999970221,0.2936999999992551,0.3073999999985091,0.32119999999925497,0.334500000000002,0.3478999999985106,0.3612999999970192,0.37400000000000233,0.38709999999776556,0.40039999999850906,0.4145000000000003,0.4280000000000008,0.44039999999851176,0.45379999999702036,0.46850000000000236,0.483399999998511,0.49279999999702184,0.5070000000000014,0.5215999999977647,0.5355999999977641,0.5468999999985122,0.5620000000000012,0.5743999999985121,0.5882999999970195,0.6015999999977666,0.6128999999985112,0.6280999999977652,0.6395000000000017,0.6526999999992569,0.6662999999970189,0.6795000000000009,0.6927999999970211,0.7061999999992565,0.7213999999985106,0.7335999999977645,0.7481999999992546,0.7593999999985108,0.7728999999985113,0.7860000000000014,0.8003999999985112,0.8135999999977663,0.8260999999977656,0.8410000000000011,0.8527999999970213,0.8674999999999997,0.8793999999985118,0.8928999999985123,0.9062999999970209,0.9196999999992563,0.9342999999970196,0.946199999999255,0.9595999999977671,0.9726999999992572,0.98839999999851,0.9995000000000012,1.013899999998511,1.026299999997022]",12,0,12,0,1,0.2139,,,,
test,2024-09-02_17h23.31.715,GoFitts,2023.2.3,Win32,74.07407407,"[97.91958668134062,-108.75071841519876]","[-118.39035452054921,86.01562746481075]",47,292.6770521,3.75,0,0.4272,"[97,97,97,97,97,97,95,89,81,71,59,45,32,19,8,-5,-17,-26,-36,-45,-53,-60,-64,-68,-72,-77,-80,-85,-89,-91,-95,-97,-99,-101,-103,-105,-106,-107,-108,-108,-109,-109,-109,-109,-109,-109,-109,-109,-109,-109,-109,-109,-109,-109,-109,-109,-109,-109,-109,-109,-109,-109,-109,-109,-109,-109,-109,-109,-109,-109,-109]","[-100,-100,-100,-100,-100,-100,-98,-91,-82,-72,-60,-46,-35,-23,-12,0,12,21,30,39,47,52,55,58,60,63,65,68,70,72,74,76,77,78,80,81,82,82,83,83,83,84,84,84,84,84,84,84,84,84,84,84,84,84,84,84,84,84,84,84,84,84,84,84,84,84,84,84,84,84,84]","[0,0,0,0,0,0,0,0,0,0,0,0,0,0,0,0,0,0,0,0,0,0,0,0,0,0,0,0,0,0,0,0,0,0,0,0,0,0,0,0,0,0,0,0,0,0,0,0,0,0,0,0,0,0,0,0,0,0,0,0,0,0,0,0,0,0,0,0,0,0,0]","[0,0,0,0,0,0,0,0,0,0,0,0,0,0,0,0,0,0,0,0,0,0,0,0,0,0,0,0,0,0,0,0,0,0,0,0,0,0,0,0,0,0,0,0,0,0,0,0,0,0,0,0,0,0,0,0,0,0,0,0,0,0,0,0,0,0,0,0,0,0,0]","[0,0,0,0,0,0,0,0,0,0,0,0,0,0,0,0,0,0,0,0,0,0,0,0,0,0,0,0,0,0,0,0,0,0,0,0,0,0,0,0,0,0,0,0,0,0,0,0,0,0,0,0,0,0,0,0,0,0,0,0,0,0,0,0,0,0,0,0,0,0,0]","[0,0.013800000000745882,0.0259999999999998,0.039399999998508406,0.05289999999850892,0.06619999999925597,0.07959999999776457,0.09359999999776392,0.10800000000000054,0.12059999999776494,0.13409999999776545,0.14709999999776358,0.1603000000007455,0.17439999999850997,0.18709999999776628,0.201399999998511,0.21530000000074523,0.22709999999776542,0.24039999999850892,0.2538000000007443,0.26699999999999946,0.2813000000007442,0.2950000000000017,0.3075999999977661,0.32030000000074565,0.3368999999985114,0.3460999999977652,0.36139999999851113,0.37549999999999883,0.38700000000000045,0.4023000000007464,0.41499999999999915,0.4271999999992566,0.4403999999985082,0.4538000000007436,0.46709999999776386,0.48169999999925395,0.4938000000007463,0.5073999999985084,0.5223000000007438,0.5335999999977652,0.5483999999985087,0.5593000000007464,0.5728999999985085,0.5859999999999985,0.6000000000000014,0.6125999999977658,0.6260000000000012,0.6393000000007447,0.6544999999999987,0.6660000000000004,0.6813000000007463,0.6928000000007444,0.7078000000007449,0.7213999999985106,0.7346999999992541,0.7468999999985115,0.7611999999992562,0.7744999999999997,0.7860000000000014,0.8001999999992542,0.8128999999985105,0.8285999999977633,0.839300000000744,0.8528000000007445,0.8678000000007451,0.8795999999977653,0.8926999999992553,0.907,0.9205999999977657,0.933800000000744]",13,0,13,0,1,0.108,,,,
test,2024-09-02_17h23.31.715,GoFitts,2023.2.3,Win32,74.07407407,"[-118.39035452054921,86.01562746481075]","[133.6868957672592,-59.521240845436104]",47,292.6770521,3.75,0,0.3331,"[-109,-109,-109,-109,-109,-109,-109,-109,-109,-106,-100,-89,-75,-61,-46,-25,0,19,43,62,79,91,100,106,111,113,114,115,116,116,117,118,118,119,120,122,123,124,124,124,124,124,124,124,124,124,124,124,124,124,124,124,124,124,124,124,124,124,124,124,124,124,124,124]","[84,84,84,84,84,84,84,84,84,81,76,67,57,46,36,22,6,-4,-18,-27,-36,-41,-45,-48,-50,-51,-52,-52,-53,-53,-53,-53,-54,-54,-55,-56,-57,-58,-58,-58,-58,-58,-58,-58,-58,-58,-58,-58,-58,-58,-58,-58,-58,-58,-58,-58,-58,-58,-58,-58,-58,-58,-58,-58]","[0,0,0,0,0,0,0,0,0,0,0,0,0,0,0,0,0,0,0,0,0,0,0,0,0,0,0,0,0,0,0,0,0,0,0,0,0,0,0,0,0,0,0,0,0,0,0,0,0,0,0,0,0,0,0,0,0,0,0,0,0,0,0,0]","[0,0,0,0,0,0,0,0,0,0,0,0,0,0,0,0,0,0,0,0,0,0,0,0,0,0,0,0,0,0,0,0,0,0,0,0,0,0,0,0,0,0,0,0,0,0,0,0,0,0,0,0,0,0,0,0,0,0,0,0,0,0,0,0]","[0,0,0,0,0,0,0,0,0,0,0,0,0,0,0,0,0,0,0,0,0,0,0,0,0,0,0,0,0,0,0,0,0,0,0,0,0,0,0,0,0,0,0,0,0,0,0,0,0,0,0,0,0,0,0,0,0,0,0,0,0,0,0,0]","[0,0.01280000000074466,0.025199999999255596,0.03849999999999909,0.05189999999851125,0.06550000000000011,0.07960000000149137,0.0918999999985104,0.10619999999925511,0.11860000000148929,0.13189999999850954,0.14730000000074384,0.16239999999850951,0.17460000000149023,0.18619999999925696,0.1993999999985121,0.2140000000000022,0.2261999999992561,0.24060000000148918,0.2538000000007443,0.2678000000007472,0.28049999999999997,0.29469999999925633,0.3063000000007463,0.3204999999999991,0.3331000000014903,0.346100000001492,0.3598999999985111,0.37450000000000117,0.3871999999992539,0.39969999999925676,0.413600000001491,0.42549999999999955,0.4408999999985106,0.45289999999851105,0.4676000000014895,0.48049999999999926,0.4928999999985102,0.5061000000014921,0.5196000000014891,0.533600000001492,0.5450000000000017,0.5585000000000022,0.5725000000000016,0.5871999999992568,0.5985000000000014,0.6118000000007449,0.6258999999985093,0.6385000000000005,0.6528000000007452,0.6671999999992551,0.6783000000007462,0.6931999999992549,0.7051000000014902,0.7203000000007442,0.7333000000007459,0.7471999999992569,0.7593999999985108,0.771800000000745,0.7866999999992537,0.79939999999851,0.812699999999257,0.8273000000007471,0.8406999999992557]",14,0,14,0,1,0.1473,,,,
test,2024-09-02_17h23.31.715,GoFitts,2023.2.3,Win32,74.07407407,,,,,,0,,,,,,,,,,,,,,0,0,0,1
test,2024-09-02_17h23.31.715,GoFitts,2023.2.3,Win32,74.07407407,"[-67,-5]","[190.43412341409447,-211.4985207142202]",60,569.1986635,4.32,1,0.7209,"[-67,-67,-67,-67,-67,-67,-67,-67,-67,-67,-67,-67,-67,-67,-67,-67,-67,-67,-67,-67,-67,-67,-67,-63,-56,-45,-25,-6,19,44,69,95,111,124,136,141,146,150,151,153,153,154,155,156,157,157,158,158,159,160,161,161,162,162,164,165,166,167,169,169,170,170,170,170,170,170,170,170,170,170,170,170,170,170,170,170,170,170,170,170,170,170,170,170,170,170,170,170,170,170,170,170,170]","[-5,-5,-5,-5,-5,-5,-5,-5,-5,-5,-5,-5,-5,-5,-5,-5,-5,-5,-5,-5,-5,-5,-5,-7,-14,-22,-35,-48,-63,-79,-95,-112,-123,-133,-142,-148,-153,-158,-161,-165,-168,-172,-176,-180,-184,-188,-190,-193,-195,-197,-198,-199,-199,-200,-201,-201,-202,-203,-203,-204,-204,-204,-204,-204,-204,-204,-204,-204,-204,-204,-204,-204,-204,-204,-204,-204,-204,-204,-204,-204,-204,-204,-204,-204,-204,-204,-204,-204,-204,-204,-204,-204,-204]","[0,0,0,0,0,0,0,0,0,0,0,0,0,0,0,0,0,0,0,0,0,0,0,0,0,0,0,0,0,0,0,0,0,0,0,0,0,0,0,0,0,0,0,0,0,0,0,0,0,0,0,0,0,0,0,0,0,0,0,0,0,0,0,0,0,0,0,0,0,0,0,0,0,0,0,0,0,0,0,0,0,0,0,0,0,0,0,0,0,0,0,0,0]","[0,0,0,0,0,0,0,0,0,0,0,0,0,0,0,0,0,0,0,0,0,0,0,0,0,0,0,0,0,0,0,0,0,0,0,0,0,0,0,0,0,0,0,0,0,0,0,0,0,0,0,0,0,0,0,0,0,0,0,0,0,0,0,0,0,0,0,0,0,0,0,0,0,0,0,0,0,0,0,0,0,0,0,0,0,0,0,0,0,0,0,0,0]","[0,0,0,0,0,0,0,0,0,0,0,0,0,0,0,0,0,0,0,0,0,0,0,0,0,0,0,0,0,0,0,0,0,0,0,0,0,0,0,0,0,0,0,0,0,0,0,0,0,0,0,0,0,0,0,0,0,0,0,0,0,0,0,0,0,0,0,0,0,0,0,0,0,0,0,0,0,0,0,0,0,0,0,0,0,0,0,0,0,0,0,0,0]","[0.00009999999776511004,0.01289999999850977,0.02500000000000213,0.03839999999851074,0.05189999999851125,0.06509999999776639,0.07949999999999946,0.09180000000074529,0.10500000000000043,0.11959999999776372,0.13180000000074443,0.1451999999992566,0.1605999999977641,0.17350000000000065,0.18489999999851037,0.19849999999999923,0.21169999999925437,0.22580000000074563,0.23830000000074492,0.2516999999992571,0.26500000000000057,0.2783999999985092,0.2918000000007446,0.3055000000000021,0.31939999999850954,0.33169999999925537,0.3460000000000001,0.3593999999985087,0.3733000000007465,0.3863000000007446,0.39949999999999974,0.4128000000007468,0.42630000000074375,0.4394999999999989,0.45409999999776574,0.46719999999925577,0.47969999999925506,0.4939999999999998,0.5063000000007456,0.5193000000007437,0.5326999999992559,0.5470000000000006,0.5593000000007464,0.5735999999977643,0.5868000000007463,0.6003000000007468,0.6128000000007461,0.6260999999977663,0.6396999999992552,0.6541999999992569,0.6660000000000004,0.6805999999977637,0.6928000000007444,0.7061999999992565,0.7208999999985117,0.733399999998511,0.7473999999985104,0.7600000000000016,0.7736999999992555,0.7873000000007444,0.7995000000000019,0.8125,0.8248999999985109,0.8401999999992569,0.8515999999977666,0.8663999999985101,0.8803999999985095,0.8934999999999995,0.9088999999985106,0.9196999999992563,0.9316999999992568,0.9458999999985096,0.9603000000007462,0.9714999999999989,0.9849999999999994,0.9983999999985116,1.013300000000747,1.0248999999985102,1.038499999999999,1.0536999999992567,1.0650000000000013,1.0803000000007437,1.091699999999257,1.1060999999977668,1.1191999999992568,1.132199999999255,1.145899999998509,1.1585,1.1728000000007448,1.1863999999985104,1.1995999999977656,1.212800000000744,1.2275999999977643]",0,0,0,0,1,0.3054,,,,
test,2024-09-02_17h23.31.715,GoFitts,2023.2.3,Win32,74.07407407,"[190.43412341409447,-211.4985207142202]","[-230.2456959624903,167.28329000694146]",60,569.1986635,4.32,1,0.4392,"[170,170,170,170,170,170,170,170,170,170,163,150,130,95,66,25,-13,-49,-94,-113,-140,-151,-157,-163,-167,-171,-175,-182,-189,-197,-203,-209,-213,-217,-220,-223,-225,-227,-229,-229,-229,-230,-230,-230,-230,-230,-230,-230,-230,-230,-230,-230,-230,-230,-230,-230,-230,-230,-230,-230,-230,-230,-230,-230,-230,-230,-230,-230,-230,-230,-230,-230]","[-204,-204,-204,-204,-204,-204,-204,-204,-204,-202,-189,-164,-130,-79,-41,8,55,98,150,170,195,205,208,211,212,212,212,212,211,209,206,203,199,194,190,184,180,177,175,174,173,173,173,173,173,173,173,173,173,173,173,173,173,173,173,173,173,173,173,173,173,173,173,173,173,173,173,173,173,173,173,173]","[0,0,0,0,0,0,0,0,0,0,0,0,0,0,0,0,0,0,0,0,0,0,0,0,0,0,0,0,0,0,0,0,0,0,0,0,0,0,0,0,0,0,0,0,0,0,0,0,0,0,0,0,0,0,0,0,0,0,0,0,0,0,0,0,0,0,0,0,0,0,0,0]","[0,0,0,0,0,0,0,0,0,0,0,0,0,0,0,0,0,0,0,0,0,0,0,0,0,0,0,0,0,0,0,0,0,0,0,0,0,0,0,0,0,0,0,0,0,0,0,0,0,0,0,0,0,0,0,0,0,0,0,0,0,0,0,0,0,0,0,0,0,0,0,0]","[0,0,0,0,0,0,0,0,0,0,0,0,0,0,0,0,0,0,0,0,0,0,0,0,0,0,0,0,0,0,0,0,0,0,0,0,0,0,0,0,0,0,0,0,0,0,0,0,0,0,0,0,0,0,0,0,0,0,0,0,0,0,0,0,0,0,0,0,0,0,0,0]","[0,0.01240000000223418,0.023700000002978783,0.036900000002233924,0.05030000000074253,0.06360000000148958,0.0779000000022343,0.09240000000223247,0.10549999999999926,0.11710000000148924,0.13140000000223395,0.14560000000149032,0.15830000000074307,0.1727000000029797,0.18460000000148824,0.1986000000014876,0.21230000000074511,0.2246000000014874,0.2403000000007438,0.25130000000074304,0.26570000000297966,0.2788000000007429,0.29160000000148756,0.3057000000029788,0.31810000000148975,0.3312000000029798,0.3446000000014884,0.35790000000223543,0.37130000000074403,0.3861000000014876,0.3979999999999997,0.41120000000297807,0.4256000000014879,0.4392000000029803,0.45149999999999935,0.4654999999999987,0.477999999999998,0.4914000000022334,0.504999999999999,0.5194000000022321,0.5324999999999989,0.5459000000022343,0.55670000000298,0.5702000000029805,0.5834999999999972,0.597800000000742,0.6103000000007448,0.6254999999999988,0.6369000000022353,0.6502000000029788,0.6646000000014887,0.678800000000745,0.6913000000007443,0.7036000000014901,0.717800000000743,0.7303000000007422,0.7454000000022347,0.7568000000007444,0.7703000000007449,0.7854000000022339,0.7969000000022355,0.8106000000014895,0.8238000000007446,0.8379999999999974,0.8502000000029781,0.8637000000029786,0.8786000000014873,0.8912000000029785,0.9036000000014894,0.9202000000029784,0.93170000000298,0.9456000000014875]",1,0,1,0,1,0.1314,,,,
test,2024-09-02_17h23.31.715,GoFitts,2023.2.3,Win32,74.07407407,"[-230.2456959624903,167.28329000694146]","[259.994426755896,-115.75697681207403]",60,569.1986635,4.32,1,0.4121,"[-230,-230,-230,-229,-228,-224,-219,-214,-203,-187,-164,-139,-103,-66,-33,0,35,66,93,120,140,161,173,186,198,207,212,216,220,224,228,234,239,244,248,250,251,252,253,253,253,253,253,253,253,253,253,253,253,253,253,253,253,253,253,253,253,253,253,253,253,253,253,253,253,253,253,253,253,253]","[173,173,173,172,171,168,166,163,157,150,140,129,112,95,79,61,41,20,2,-18,-34,-50,-60,-69,-77,-84,-87,-90,-92,-95,-98,-101,-104,-106,-108,-109,-110,-111,-111,-111,-111,-111,-111,-111,-111,-111,-111,-111,-111,-111,-111,-111,-111,-111,-111,-111,-111,-111,-111,-111,-111,-111,-111,-111,-111,-111,-111,-111,-111,-111]","[0,0,0,0,0,0,0,0,0,0,0,0,0,0,0,0,0,0,0,0,0,0,0,0,0,0,0,0,0,0,0,0,0,0,0,0,0,0,0,0,0,0,0,0,0,0,0,0,0,0,0,0,0,0,0,0,0,0,0,0,0,0,0,0,0,0,0,0,0,0]","[0,0,0,0,0,0,0,0,0,0,0,0,0,0,0,0,0,0,0,0,0,0,0,0,0,0,0,0,0,0,0,0,0,0,0,0,0,0,0,0,0,0,0,0,0,0,0,0,0,0,0,0,0,0,0,0,0,0,0,0,0,0,0,0,0,0,0,0,0,0]","[0,0,0,0,0,0,0,0,0,0,0,0,0,0,0,0,0,0,0,0,0,0,0,0,0,0,0,0,0,0,0,0,0,0,0,0,0,0,0,0,0,0,0,0,0,0,0,0,0,0,0,0,0,0,0,0,0,0,0,0,0,0,0,0,0,0,0,0,0,0]","[0,0.01150000000000162,0.02400000000000091,0.040299999997021274,0.05069999999925656,0.06609999999776406,0.0793999999985111,0.09069999999925571,0.105299999997019,0.11950000000000216,0.13250000000000028,0.1452999999970217,0.15839999999851173,0.17179999999702034,0.18519999999925574,0.19849999999999923,0.21209999999776485,0.22500000000000142,0.23850000000000193,0.25189999999851054,0.2663999999985087,0.28049999999999997,0.2918999999985097,0.30519999999925673,0.3185000000000002,0.3325999999977647,0.345299999997021,0.3598999999985111,0.372299999997022,0.3865000000000016,0.3993999999985114,0.41209999999776414,0.4251999999992542,0.4394999999999989,0.45289999999851105,0.4657999999970208,0.478399999998512,0.4924999999999997,0.5055999999977665,0.5182999999970193,0.5316999999992547,0.5438999999985121,0.5598999999985104,0.5707999999970212,0.5840999999977647,0.5993999999985107,0.6106999999992553,0.6240000000000023,0.6381999999992551,0.6515000000000022,0.6649999999999991,0.6772999999970217,0.6913999999985094,0.7040999999977657,0.7173999999985092,0.7306999999992563,0.7439999999999998,0.7575000000000003,0.772000000000002,0.7850999999977653,0.7991999999992565,0.8106999999992546,0.8240999999977667,0.8373999999985102,0.8527999999970213,0.8640000000000008,0.8781999999992571,0.8907999999970215,0.9039999999999999,0.9182999999970214]",2,0,2,0,1,0.1195,,,,
test,2024-09-02_17h23.31.715,GoFitts,2023.2.3,Win32,74.07407407,"[259.994426755896,-115.75697681207403]","[-278.3801535083913,59.17152826691659]",60,569.1986635,4.32,1,0.4392,"[253,253,253,253,252,250,240,221,190,142,88,25,-31,-84,-133,-178,-210,-232,-242,-248,-249,-249,-249,-249,-249,-250,-250,-250,-250,-250,-250,-251,-253,-257,-264,-270,-276,-280,-282,-283,-283,-283,-283,-283,-283,-283,-283,-283,-283,-283,-283,-283,-283,-283,-283,-283,-283,-283,-283,-283,-283,-283,-283,-283,-283,-283,-283,-283,-283,-283,-283,-282]","[-111,-111,-111,-111,-111,-110,-106,-100,-89,-74,-59,-42,-28,-15,-2,9,18,26,30,33,35,35,35,36,36,36,36,36,36,36,36,37,38,41,47,53,57,60,62,63,63,63,63,63,63,63,63,63,63,63,63,63,63,63,63,64,64,64,64,64,64,64,64,64,64,64,64,64,64,64,64,64]","[0,0,0,0,0,0,0,0,0,0,0,0,0,0,0,0,0,0,0,0,0,0,0,0,0,0,0,0,0,0,0,0,0,0,0,0,0,0,0,0,0,0,0,0,0,0,0,0,0,0,0,0,0,0,0,0,0,0,0,0,0,0,0,0,0,0,0,0,0,0,0,0]","[0,0,0,0,0,0,0,0,0,0,0,0,0,0,0,0,0,0,0,0,0,0,0,0,0,0,0,0,0,0,0,0,0,0,0,0,0,0,0,0,0,0,0,0,0,0,0,0,0,0,0,0,0,0,0,0,0,0,0,0,0,0,0,0,0,0,0,0,0,0,0,0]","[0,0,0,0,0,0,0,0,0,0,0,0,0,0,0,0,0,0,0,0,0,0,0,0,0,0,0,0,0,0,0,0,0,0,0,0,0,0,0,0,0,0,0,0,0,0,0,0,0,0,0,0,0,0,0,0,0,0,0,0,0,0,0,0,0,0,0,0,0,0,0,0]","[0,0.013000000000001677,0.026100000001491708,0.040800000000746905,0.0519999999999996,0.06650000000000134,0.08000000000000185,0.09320000000298023,0.10630000000074347,0.12049999999999983,0.13390000000223523,0.14750000000000085,0.15980000000074668,0.17320000000298208,0.1863000000007453,0.19970000000298072,0.21280000000074395,0.22660000000148983,0.23970000000297986,0.2538000000007443,0.26710000000149137,0.28080000000074534,0.2919000000022365,0.3062000000029812,0.31940000000223634,0.3321000000014891,0.3464999999999989,0.3607000000029821,0.3726000000014906,0.3852000000029818,0.3984999999999985,0.41390000000223637,0.4261000000014903,0.4392000000029803,0.4535000000000018,0.467200000002979,0.4795000000000016,0.4938000000007463,0.5064999999999991,0.5196000000014891,0.5327000000029791,0.545200000002982,0.5586000000014906,0.5718000000007457,0.5854000000022346,0.5987000000029816,0.6119000000022368,0.6276000000014896,0.6387000000029808,0.6529999999999987,0.665100000001491,0.6797000000029811,0.6919000000022351,0.7054000000022356,0.7186000000014907,0.7321000000014912,0.7474999999999987,0.7608000000007458,0.773400000002237,0.7853000000007455,0.798600000001489,0.8133000000007442,0.8253000000007447,0.840700000002979,0.8543000000007446,0.8653000000007438,0.881600000001491,0.8939999999999984,0.9063000000007442,0.9194999999999993,0.931900000002237,0.9475000000000016]",3,0,3,0,1,0.0932,,,,
test,2024-09-02_17h23.31.715,GoFitts,2023.2.3,Win32,74.07407407,"[-278.3801535083913,59.17152826691659]","[284.5993317363869,0]",60,569.1986635,4.32,1,0.3326,"[-282,-278,-270,-260,-243,-218,-188,-156,-116,-90,-49,-21,16,50,78,109,135,159,182,199,214,227,237,245,253,257,260,263,266,268,271,274,278,282,284,285,285,285,285,285,285,285,285,285,285,285,285,285,285,285,285,285,285,285,285,285,285,285,285,285,285,285,285,285]","[64,63,62,60,58,56,54,51,49,46,42,39,34,29,25,21,16,13,10,8,6,5,4,4,4,4,4,4,4,4,4,4,4,4,4,4,4,4,4,4,4,4,4,4,4,4,4,4,4,4,4,4,4,4,4,4,4,4,4,4,4,4,4,4]","[0,0,0,0,0,0,0,0,0,0,0,0,0,0,0,0,0,0,0,0,0,0,0,0,0,0,0,0,0,0,0,0,0,0,0,0,0,0,0,0,0,0,0,0,0,0,0,0,0,0,0,0,0,0,0,0,0,0,0,0,0,0,0,0]","[0,0,0,0,0,0,0,0,0,0,0,0,0,0,0,0,0,0,0,0,0,0,0,0,0,0,0,0,0,0,0,0,0,0,0,0,0,0,0,0,0,0,0,0,0,0,0,0,0,0,0,0,0,0,0,0,0,0,0,0,0,0,0,0]","[0,0,0,0,0,0,0,0,0,0,0,0,0,0,0,0,0,0,0,0,0,0,0,0,0,0,0,0,0,0,0,0,0,0,0,0,0,0,0,0,0,0,0,0,0,0,0,0,0,0,0,0,0,0,0,0,0,0,0,0,0,0,0,0]","[0,0.011699999999255084,0.02539999999850906,0.038300000000745626,0.053000000000000824,0.06599999999999895,0.07849999999999824,0.09169999999925338,0.10650000000000048,0.11830000000074392,0.13319999999925614,0.14499999999999957,0.15830000000074662,0.17259999999776454,0.18569999999925457,0.19950000000000045,0.21230000000074511,0.22580000000074563,0.23909999999776588,0.2525999999977664,0.26489999999850866,0.2793999999985104,0.2918000000007446,0.3050999999977648,0.31830000000074676,0.3325999999977647,0.34499999999999886,0.3593999999985087,0.37259999999776383,0.385199999999255,0.3984999999999985,0.41199999999999903,0.42569999999925656,0.4385000000000012,0.45159999999776446,0.46509999999776497,0.48059999999776437,0.4906999999992543,0.5048999999985107,0.5173000000007448,0.5306999999992534,0.5450000000000017,0.5573999999985091,0.5723000000007445,0.5839999999999996,0.5975999999977653,0.6108000000007436,0.6260999999977663,0.6371999999992539,0.6508000000007463,0.6650999999977643,0.6773999999985101,0.6939999999999991,0.7058999999985112,0.7173000000007441,0.7308999999985097,0.7441999999992532,0.7595999999977643,0.7706999999992554,0.7853000000007455,0.7974999999999994,0.8106999999992546,0.8264999999999993,0.8373000000007451]",4,0,4,0,1,0.053,,,,
test,2024-09-02_17h23.31.715,GoFitts,2023.2.3,Win32,74.07407407,"[284.5993317363869,0]","[-278.3801535083913,-59.17152826691652]",60,569.1986635,4.32,1,0.4676,"[285,285,285,283,279,274,263,251,228,204,171,134,97,58,19,-14,-61,-90,-122,-148,-170,-187,-201,-210,-216,-222,-227,-230,-233,-236,-239,-241,-243,-246,-248,-252,-255,-259,-263,-267,-269,-271,-272,-272,-272,-272,-272,-272,-272,-272,-272,-272,-272,-272,-272,-272,-272,-272,-272,-272,-272,-272,-272,-272,-272,-272,-272,-272,-272,-272,-272,-272,-272,-272]","[4,3,3,3,3,3,3,2,1,-1,-4,-6,-9,-13,-17,-21,-26,-30,-33,-36,-38,-41,-44,-45,-46,-47,-48,-49,-50,-51,-52,-53,-53,-54,-54,-54,-55,-56,-56,-56,-56,-56,-56,-56,-56,-56,-56,-56,-56,-56,-56,-56,-56,-56,-56,-56,-56,-56,-56,-56,-56,-56,-56,-56,-56,-56,-56,-56,-56,-56,-56,-56,-56,-56]","[0,0,0,0,0,0,0,0,0,0,0,0,0,0,0,0,0,0,0,0,0,0,0,0,0,0,0,0,0,0,0,0,0,0,0,0,0,0,0,0,0,0,0,0,0,0,0,0,0,0,0,0,0,0,0,0,0,0,0,0,0,0,0,0,0,0,0,0,0,0,0,0,0,0]","[0,0,0,0,0,0,0,0,0,0,0,0,0,0,0,0,0,0,0,0,0,0,0,0,0,0,0,0,0,0,0,0,0,0,0,0,0,0,0,0,0,0,0,0,0,0,0,0,0,0,0,0,0,0,0,0,0,0,0,0,0,0,0,0,0,0,0,0,0,0,0,0,0,0]","[0,0,0,0,0,0,0,0,0,0,0,0,0,0,0,0,0,0,0,0,0,0,0,0,0,0,0,0,0,0,0,0,0,0,0,0,0,0,0,0,0,0,0,0,0,0,0,0,0,0,0,0,0,0,0,0,0,0,0,0,0,0,0,0,0,0,0,0,0,0,0,0,0,0]","[0,0.013899999998510992,0.027299999997019597,0.03959999999776542,0.054000000000002046,0.06650000000000134,0.08189999999851238,0.0940000000000012,0.10819999999925756,0.12129999999702079,0.13500000000000156,0.1479999999999997,0.16050000000000253,0.17389999999851113,0.18829999999702096,0.20050000000000168,0.21519999999925687,0.22769999999925616,0.2416999999992555,0.25409999999776645,0.26789999999851233,0.2807999999970221,0.2950000000000017,0.30829999999702196,0.32059999999776423,0.33399999999999963,0.3482999999970211,0.36189999999850997,0.37400000000000233,0.3872999999970226,0.4005999999977661,0.41539999999850963,0.42809999999776593,0.44139999999850943,0.4540000000000006,0.46759999999776625,0.48089999999850974,0.4937999999970195,0.5081999999992561,0.520500000000002,0.5337999999970222,0.5482999999970204,0.5616999999992558,0.5740999999977667,0.5869999999999997,0.5995000000000026,0.6128999999985112,0.6262999999970198,0.6415999999977657,0.6526999999992569,0.6676999999992574,0.6796999999992543,0.6930999999977665,0.7073999999985112,0.7213999999985106,0.7330000000000005,0.7475000000000023,0.7615000000000016,0.7730999999977648,0.7862999999970199,0.7996999999992553,0.8138999999985117,0.8273999999985122,0.8407999999970208,0.8530000000000015,0.8672999999970195,0.8795000000000002,0.8936999999992565,0.9061999999992558,0.9205000000000005,0.9337999999970208,0.9467999999970225,0.961599999997766,0.9730999999977676]",5,0,5,0,1,0.094,,,,
test,2024-09-02_17h23.31.715,GoFitts,2023.2.3,Win32,74.07407407,"[-278.3801535083913,-59.17152826691652]","[259.9944267558959,115.75697681207403]",60,569.1986635,4.32,1,0.414,"[-272,-270,-265,-255,-235,-206,-170,-127,-83,-36,9,46,71,91,109,120,132,143,154,162,171,181,188,193,197,202,206,211,215,221,228,237,246,253,258,261,262,262,262,262,262,262,262,262,262,262,262,262,262,262,262,262,262,262,262,262,262,262,262,262,262,262,262,262,262,262,262,262,262,262]","[-56,-56,-54,-48,-39,-26,-14,0,13,27,40,52,61,69,77,82,87,93,98,101,105,108,110,112,113,114,115,116,116,117,118,119,120,120,121,121,121,121,121,121,121,121,121,121,121,121,121,121,121,121,121,121,121,121,121,121,121,121,121,121,121,121,121,121,121,121,121,121,121,121]","[0,0,0,0,0,0,0,0,0,0,0,0,0,0,0,0,0,0,0,0,0,0,0,0,0,0,0,0,0,0,0,0,0,0,0,0,0,0,0,0,0,0,0,0,0,0,0,0,0,0,0,0,0,0,0,0,0,0,0,0,0,0,0,0,0,0,0,0,0,0]","[0,0,0,0,0,0,0,0,0,0,0,0,0,0,0,0,0,0,0,0,0,0,0,0,0,0,0,0,0,0,0,0,0,0,0,0,0,0,0,0,0,0,0,0,0,0,0,0,0,0,0,0,0,0,0,0,0,0,0,0,0,0,0,0,0,0,0,0,0,0]","[0,0,0,0,0,0,0,0,0,0,0,0,0,0,0,0,0,0,0,0,0,0,0,0,0,0,0,0,0,0,0,0,0,0,0,0,0,0,0,0,0,0,0,0,0,0,0,0,0,0,0,0,0,0,0,0,0,0,0,0,0,0,0,0,0,0,0,0,0,0]","[0,0.01530000000074594,0.02819999999925571,0.04040000000223287,0.054300000000743864,0.06790000000223628,0.08030000000074367,0.09469999999925349,0.10719999999925278,0.12110000000149057,0.13460000000149108,0.1476000000014892,0.1603000000007455,0.1739999999999995,0.1883000000007442,0.20040000000223301,0.21390000000223353,0.228199999999255,0.24190000000223577,0.25369999999925597,0.2671999999992529,0.2815000000000012,0.2939000000022354,0.3079000000022347,0.32019999999925375,0.3346999999992555,0.3469000000022362,0.36090000000223554,0.37440000000223606,0.38690000000223534,0.40030000000074395,0.4139999999999979,0.4281999999992543,0.440400000002235,0.45440000000223435,0.46780000000074295,0.48040000000223415,0.4936000000014893,0.5059000000022351,0.5194000000022356,0.5326000000014908,0.5470000000000006,0.5593000000007429,0.5748000000007458,0.5859999999999985,0.6001999999992549,0.614800000000745,0.626300000000743,0.6394000000022331,0.6526000000014882,0.6671999999992551,0.6794000000022358,0.6928000000007444,0.7064000000022332,0.7194000000022349,0.7351000000014913,0.7461000000014906,0.7594999999999992,0.7736999999992555,0.7883000000007456,0.8008000000007449,0.8128000000007454,0.8284000000022331,0.8414000000022348,0.852600000001491,0.8659999999999997,0.8804000000022363,0.8936000000014879,0.906800000000743,0.9213000000007447]",6,0,6,0,1,0.0543,,,,
test,2024-09-02_17h23.31.715,GoFitts,2023.2.3,Win32,74.07407407,"[259.9944267558959,115.75697681207403]","[-230.24569596249034,-167.2832900069414]",60,569.1986635,4.32,1,0.3333,"[262,262,262,262,260,254,243,226,200,163,114,58,14,-39,-78,-103,-134,-152,-169,-179,-191,-200,-208,-213,-218,-221,-224,-225,-227,-229,-230,-232,-234,-234,-235,-235,-235,-235,-235,-235,-235,-235,-235,-235,-235,-235,-235,-235,-235,-235,-235,-235,-235,-235,-235,-235,-235,-235,-235,-235,-235,-235,-235,-235]","[121,121,121,121,121,118,112,103,89,71,47,21,0,-26,-48,-62,-81,-93,-104,-111,-119,-125,-131,-135,-138,-141,-144,-146,-149,-152,-154,-157,-160,-161,-162,-162,-163,-163,-163,-163,-163,-163,-163,-163,-163,-163,-163,-163,-163,-163,-163,-163,-163,-163,-163,-163,-163,-163,-163,-163,-163,-163,-163,-163]","[0,0,0,0,0,0,0,0,0,0,0,0,0,0,0,0,0,0,0,0,0,0,0,0,0,0,0,0,0,0,0,0,0,0,0,0,0,0,0,0,0,0,0,0,0,0,0,0,0,0,0,0,0,0,0,0,0,0,0,0,0,0,0,0]","[0,0,0,0,0,0,0,0,0,0,0,0,0,0,0,0,0,0,0,0,0,0,0,0,0,0,0,0,0,0,0,0,0,0,0,0,0,0,0,0,0,0,0,0,0,0,0,0,0,0,0,0,0,0,0,0,0,0,0,0,0,0,0,0]","[0,0,0,0,0,0,0,0,0,0,0,0,0,0,0,0,0,0,0,0,0,0,0,0,0,0,0,0,0,0,0,0,0,0,0,0,0,0,0,0,0,0,0,0,0,0,0,0,0,0,0,0,0,0,0,0,0,0,0,0,0,0,0,0]","[0,0.012000000000000455,0.02490000000223347,0.03970000000298057,0.05099999999999838,0.06550000000000011,0.07910000000148898,0.09299999999999997,0.1053000000007458,0.11860000000148929,0.132900000002234,0.14660000000148798,0.15850000000000009,0.17310000000149017,0.18599999999999994,0.1988000000007446,0.21320000000297767,0.22540000000223515,0.2403000000007438,0.2519999999999989,0.26530000000074594,0.27940000000223364,0.29410000000148884,0.30630000000074276,0.3187000000029805,0.3334000000022357,0.3452000000029791,0.3591000000014901,0.3719999999999999,0.38520000000297827,0.39970000000298,0.4109999999999978,0.42650000000000077,0.43870000000297793,0.4519999999999982,0.4668000000007453,0.47880000000074574,0.49190000000223577,0.5058000000007432,0.5184999999999995,0.5316000000014895,0.5467000000029785,0.5576000000014893,0.5729000000022353,0.584300000000745,0.5983000000007443,0.6118000000007449,0.626300000000743,0.6376000000014876,0.6509999999999998,0.6644000000022352,0.678600000001488,0.6909000000022338,0.7054000000022356,0.7198000000007454,0.7318000000007459,0.7449999999999974,0.7602000000029783,0.7719999999999985,0.7866000000014886,0.7999000000022356,0.8131000000014907,0.8264999999999993,0.8376000000014905]",7,0,7,0,1,0.093,,,,
test,2024-09-02_17h23.31.715,GoFitts,2023.2.3,Win32,74.07407407,"[-230.24569596249034,-167.2832900069414]","[190.43412341409442,211.49852071422026]",60,569.1986635,4.32,1,0.4817,"[-235,-235,-235,-235,-235,-235,-235,-233,-228,-219,-209,-193,-168,-138,-106,-73,-46,-10,16,39,58,72,85,96,106,115,122,128,135,140,144,148,154,157,163,166,169,171,173,175,176,178,179,180,180,180,180,180,180,180,180,180,180,180,180,180,180,180,180,180,180,180,180,180,180,180,180,180,180,180,180,180,180,180,180]","[-163,-163,-163,-163,-163,-163,-161,-158,-151,-142,-132,-120,-101,-82,-63,-42,-25,0,22,47,69,88,105,120,135,144,152,159,164,169,172,175,180,184,189,193,198,202,207,211,214,217,218,220,220,220,220,220,220,220,220,220,220,220,220,220,220,220,220,220,220,220,220,220,220,220,220,220,220,220,220,220,220,220,220]","[0,0,0,0,0,0,0,0,0,0,0,0,0,0,0,0,0,0,0,0,0,0,0,0,0,0,0,0,0,0,0,0,0,0,0,0,0,0,0,0,0,0,0,0,0,0,0,0,0,0,0,0,0,0,0,0,0,0,0,0,0,0,0,0,0,0,0,0,0,0,0,0,0,0,0]","[0,0,0,0,0,0,0,0,0,0,0,0,0,0,0,0,0,0,0,0,0,0,0,0,0,0,0,0,0,0,0,0,0,0,0,0,0,0,0,0,0,0,0,0,0,0,0,0,0,0,0,0,0,0,0,0,0,0,0,0,0,0,0,0,0,0,0,0,0,0,0,0,0,0,0]","[0,0,0,0,0,0,0,0,0,0,0,0,0,0,0,0,0,0,0,0,0,0,0,0,0,0,0,0,0,0,0,0,0,0,0,0,0,0,0,0,0,0,0,0,0,0,0,0,0,0,0,0,0,0,0,0,0,0,0,0,0,0,0,0,0,0,0,0,0,0,0,0,0,0,0]","[0,0.014799999997020308,0.026000000000003354,0.03950000000000031,0.052799999997020564,0.06779999999702113,0.0806999999992577,0.09289999999851162,0.10709999999776798,0.12179999999702318,0.1346999999992562,0.14719999999925548,0.16100000000000136,0.17479999999702045,0.1875999999977651,0.20189999999851338,0.21479999999702315,0.22800000000000153,0.24119999999925668,0.25419999999925835,0.2680000000000007,0.2803999999985116,0.2936999999992551,0.30709999999776727,0.321399999998512,0.3336999999992578,0.3470999999977664,0.3605000000000018,0.375199999999257,0.3897999999970203,0.4025000000000034,0.41359999999776775,0.42819999999925784,0.44039999999851176,0.4543999999985111,0.4672999999970209,0.4816999999992575,0.4938999999985114,0.5080000000000027,0.5195000000000007,0.5348999999985118,0.5482999999970204,0.5615000000000023,0.5741999999992551,0.5870000000000033,0.6012999999970212,0.6143999999985112,0.6260999999977663,0.6413999999985123,0.6528999999985103,0.6670000000000016,0.6793999999985125,0.6945999999977666,0.7070000000000007,0.7195,0.7327999999970203,0.7460999999977673,0.7595999999977678,0.7746999999992568,0.7861999999992584,0.8023999999985101,0.8127999999970221,0.8270999999977668,0.8405000000000022,0.8545999999977667,0.866500000000002,0.8802999999970211,0.8927999999970204,0.9080000000000013,0.9195000000000029,0.9336999999992557,0.9460999999977666,0.961799999997023,0.9737999999970199,0.9867999999970216]",8,0,8,0,1,0.1347,,,,
test,2024-09-02_17h23.31.715,GoFitts,2023.2.3,Win32,74.07407407,"[190.43412341409442,211.49852071422026]","[-142.29966586819356,-246.4702511837858]",60,569.1986635,4.32,1,0.3744,"[180,180,180,180,178,176,168,157,141,123,103,75,55,28,4,-16,-34,-52,-64,-78,-88,-99,-104,-109,-114,-117,-120,-122,-124,-126,-127,-128,-128,-128,-129,-130,-130,-131,-131,-131,-131,-131,-131,-131,-131,-131,-131,-131,-131,-131,-131,-131,-131,-131,-131,-131,-131,-131,-131,-131,-131,-131,-131,-131,-131,-131,-131]","[220,220,220,220,215,210,199,185,164,142,116,80,51,13,-22,-51,-76,-100,-116,-136,-153,-170,-179,-189,-200,-207,-213,-219,-224,-229,-231,-234,-236,-237,-238,-238,-239,-239,-240,-241,-241,-241,-241,-241,-241,-241,-241,-241,-241,-241,-241,-241,-241,-241,-241,-241,-241,-241,-241,-241,-241,-241,-241,-241,-241,-241,-241]","[0,0,0,0,0,0,0,0,0,0,0,0,0,0,0,0,0,0,0,0,0,0,0,0,0,0,0,0,0,0,0,0,0,0,0,0,0,0,0,0,0,0,0,0,0,0,0,0,0,0,0,0,0,0,0,0,0,0,0,0,0,0,0,0,0,0,0]","[0,0,0,0,0,0,0,0,0,0,0,0,0,0,0,0,0,0,0,0,0,0,0,0,0,0,0,0,0,0,0,0,0,0,0,0,0,0,0,0,0,0,0,0,0,0,0,0,0,0,0,0,0,0,0,0,0,0,0,0,0,0,0,0,0,0,0]","[0,0,0,0,0,0,0,0,0,0,0,0,0,0,0,0,0,0,0,0,0,0,0,0,0,0,0,0,0,0,0,0,0,0,0,0,0,0,0,0,0,0,0,0,0,0,0,0,0,0,0,0,0,0,0,0,0,0,0,0,0,0,0,0,0,0,0]","[0,0.013200000002981938,0.02640000000223708,0.03910000000148983,0.05440000000223577,0.0667000000029816,0.08060000000149259,0.09320000000298023,0.10780000000074708,0.11970000000298242,0.13300000000000267,0.14780000000074622,0.16000000000000014,0.1729000000022367,0.1867000000029826,0.20080000000074705,0.21320000000298123,0.2274000000022376,0.23890000000223566,0.25440000000223506,0.2677000000029821,0.2824000000022373,0.29310000000149117,0.3066000000014917,0.3208000000007445,0.3339000000022345,0.3465000000000025,0.3608000000007472,0.37440000000223606,0.3876000000014912,0.40000000000000213,0.4132000000029805,0.4271000000014915,0.4398000000007478,0.4529999999999994,0.4664999999999999,0.4799000000022353,0.4933000000007475,0.5070000000000014,0.5198000000007461,0.5339000000022374,0.5474999999999994,0.5596000000014918,0.5742000000029819,0.5854000000022346,0.5997000000029828,0.6124000000022356,0.6267000000029803,0.639700000002982,0.6530000000000022,0.6663000000007457,0.6795000000000009,0.6922000000029804,0.7065000000000019,0.7190000000000012,0.7341000000014901,0.7454000000022347,0.7611000000014911,0.7721000000014904,0.7861000000014897,0.7987000000029809,0.8129000000022373,0.8255000000000017,0.8407000000029825,0.8522000000029806,0.866500000000002,0.8789000000022362]",9,0,9,0,1,0.0932,,,,
test,2024-09-02_17h23.31.715,GoFitts,2023.2.3,Win32,74.07407407,"[-142.29966586819356,-246.4702511837858]","[87.94603009429687,270.67004898113686]",60,569.1986635,4.32,1,0.5343,"[-131,-131,-131,-131,-131,-131,-131,-131,-131,-131,-131,-131,-129,-126,-122,-115,-106,-94,-73,-52,-30,-10,10,25,38,47,52,57,62,65,68,70,71,71,73,74,75,77,78,80,82,83,84,87,87,88,89,89,89,89,89,89,89,89,89,89,89,89,89,89,89,89,89,89,89,89,89,89,89,89,89,89,89,89,89,89,89,89,88]","[-241,-241,-241,-241,-241,-241,-241,-241,-241,-241,-240,-236,-228,-214,-196,-173,-143,-112,-67,-23,20,55,84,105,123,136,145,153,164,173,180,188,196,202,208,216,221,228,233,240,244,250,253,257,260,262,263,264,264,264,264,264,264,264,264,264,264,264,264,264,264,264,264,264,264,264,264,264,264,264,264,264,264,264,264,264,264,263,257]","[0,0,0,0,0,0,0,0,0,0,0,0,0,0,0,0,0,0,0,0,0,0,0,0,0,0,0,0,0,0,0,0,0,0,0,0,0,0,0,0,0,0,0,0,0,0,0,0,0,0,0,0,0,0,0,0,0,0,0,0,0,0,0,0,0,0,0,0,0,0,0,0,0,0,0,0,0,0,0]","[0,0,0,0,0,0,0,0,0,0,0,0,0,0,0,0,0,0,0,0,0,0,0,0,0,0,0,0,0,0,0,0,0,0,0,0,0,0,0,0,0,0,0,0,0,0,0,0,0,0,0,0,0,0,0,0,0,0,0,0,0,0,0,0,0,0,0,0,0,0,0,0,0,0,0,0,0,0,0]","[0,0,0,0,0,0,0,0,0,0,0,0,0,0,0,0,0,0,0,0,0,0,0,0,0,0,0,0,0,0,0,0,0,0,0,0,0,0,0,0,0,0,0,0,0,0,0,0,0,0,0,0,0,0,0,0,0,0,0,0,0,0,0,0,0,0,0,0,0,0,0,0,0,0,0,0,0,0,0]","[0.00010000000148835397,0.013699999999253976,0.026199999999253265,0.04049999999999798,0.05999999999999872,0.06830000000074321,0.07990000000223318,0.09419999999925466,0.10780000000074352,0.11960000000149051,0.13380000000074332,0.14710000000149037,0.15960000000148966,0.1748000000007437,0.18810000000149074,0.20049999999999812,0.21540000000223358,0.22730000000074568,0.2414999999999985,0.2539000000022362,0.2671000000014878,0.28049999999999997,0.2936999999992551,0.3071999999992556,0.3213000000007433,0.3359000000022334,0.34719999999925477,0.35960000000148895,0.3769000000022338,0.38810000000149003,0.4014000000022335,0.4139000000022328,0.4281999999992543,0.44119999999925597,0.4539000000022355,0.4684999999999988,0.48040000000223415,0.4946999999992556,0.5081999999992526,0.5209000000022357,0.5343000000007443,0.5479000000022332,0.5599000000022336,0.575400000002233,0.5879000000022359,0.6026999999992526,0.616300000000745,0.6273000000007443,0.6396999999992552,0.6529999999999987,0.6675000000000004,0.6798000000007427,0.6956999999992526,0.7071999999992542,0.7195,0.733199999999254,0.7473000000007453,0.7596999999992526,0.7746000000014881,0.7880000000000003,0.7994999999999983,0.8148000000007443,0.8271999999992552,0.8396000000014894,0.8529000000022329,0.8670000000000009,0.8796000000014885,0.8938000000007449,0.9063000000007442,0.9209999999999994,0.9328000000007428,0.946199999999255,0.9618000000007427,0.9726999999992536,0.9879999999999995,0.9995000000000012,1.0149000000022355,1.0261999999992533,1.040699999999255]",10,0,10,0,1,0.1748,,,,
test,2024-09-02_17h23.31.715,GoFitts,2023.2.3,Win32,74.07407407,"[87.94603009429687,270.67004898113686]","[-29.74873079340586,-283.04026681901547]",60,569.1986635,4.32,1,0.5207,"[88,87,83,79,71,66,59,50,41,33,24,18,13,8,4,0,-4,-8,-11,-14,-14,-15,-15,-15,-15,-15,-15,-15,-15,-15,-15,-15,-15,-15,-15,-15,-17,-18,-19,-21,-22,-22,-23,-23,-23,-23,-23,-23,-23,-23,-23,-23,-23,-23,-23,-23,-23,-23,-23,-23,-23,-23,-23,-23,-23,-23,-23,-23,-23,-23,-23,-23,-23,-23,-23,-23,-23,-23]","[257,247,228,202,159,123,81,32,-9,-45,-80,-106,-124,-140,-155,-166,-174,-182,-189,-193,-195,-196,-197,-199,-200,-200,-200,-200,-201,-201,-203,-205,-210,-215,-221,-230,-238,-247,-253,-259,-262,-266,-267,-268,-268,-268,-268,-268,-268,-268,-268,-269,-269,-269,-269,-269,-269,-269,-269,-269,-269,-269,-269,-269,-269,-269,-269,-269,-269,-269,-269,-269,-269,-269,-269,-269,-269,-269]","[0,0,0,0,0,0,0,0,0,0,0,0,0,0,0,0,0,0,0,0,0,0,0,0,0,0,0,0,0,0,0,0,0,0,0,0,0,0,0,0,0,0,0,0,0,0,0,0,0,0,0,0,0,0,0,0,0,0,0,0,0,0,0,0,0,0,0,0,0,0,0,0,0,0,0,0,0,0]","[0,0,0,0,0,0,0,0,0,0,0,0,0,0,0,0,0,0,0,0,0,0,0,0,0,0,0,0,0,0,0,0,0,0,0,0,0,0,0,0,0,0,0,0,0,0,0,0,0,0,0,0,0,0,0,0,0,0,0,0,0,0,0,0,0,0,0,0,0,0,0,0,0,0,0,0,0,0]","[0,0,0,0,0,0,0,0,0,0,0,0,0,0,0,0,0,0,0,0,0,0,0,0,0,0,0,0,0,0,0,0,0,0,0,0,0,0,0,0,0,0,0,0,0,0,0,0,0,0,0,0,0,0,0,0,0,0,0,0,0,0,0,0,0,0,0,0,0,0,0,0,0,0,0,0,0,0]","[0,0.013600000001488866,0.026300000000745172,0.0394000000022352,0.05380000000074503,0.06610000000149086,0.07949999999999946,0.09430000000074656,0.10660000000149239,0.12030000000074637,0.13400000000000034,0.1469000000022369,0.15920000000297918,0.1728000000007448,0.18700000000000117,0.20030000000074466,0.21260000000149049,0.2259999999999991,0.2403000000007438,0.2532000000029804,0.26610000000149014,0.2793000000007453,0.2939000000022354,0.3071000000014905,0.32020000000298054,0.3326000000014915,0.34640000000223736,0.3603000000007448,0.3726000000014906,0.38580000000074577,0.40080000000074634,0.4134999999999991,0.42930000000074386,0.43980000000074426,0.45280000000074594,0.46620000000298134,0.4794000000022365,0.4938000000007463,0.5069000000022363,0.5207000000029822,0.5327000000029791,0.547300000000746,0.5607000000029814,0.5729000000022353,0.5860000000000021,0.5992000000029805,0.612700000002981,0.6249000000022349,0.6394000000022366,0.6516000000014905,0.665100000001491,0.6798000000007463,0.6924000000022374,0.7050000000000018,0.7202000000029791,0.7317000000029807,0.745000000000001,0.7585000000000015,0.7724000000022357,0.7858000000007443,0.7991000000014914,0.8132000000029791,0.8249000000022342,0.8391000000014905,0.8539000000022341,0.8658000000007462,0.8784000000022374,0.8926000000014938,0.904900000002236,0.9183000000007482,0.9324000000022323,0.9449000000022352,0.9589000000022381,0.9725000000000037,0.9871000000014902,0.9984000000022348,1.0126000000014912,1.0249999999999986]",11,0,11,0,1,0.0263,,,,
test,2024-09-02_17h23.31.715,GoFitts,2023.2.3,Win32,74.07407407,"[-29.74873079340586,-283.04026681901547]","[-29.748730793405603,283.04026681901547]",60,569.1986635,4.32,1,0.2945,"[-23,-23,-23,-23,-24,-25,-26,-28,-31,-35,-42,-45,-48,-48,-48,-48,-47,-45,-43,-42,-40,-39,-38,-37,-35,-33,-32,-31,-30,-29,-29,-28,-28,-28,-28,-28,-28,-28,-28,-28,-28,-28,-28,-28,-28,-28,-28,-28,-28,-28,-28,-28,-28,-28,-28,-28,-28,-28,-28,-28,-28]","[-269,-269,-269,-266,-258,-250,-229,-200,-167,-126,-60,-16,63,86,127,158,188,206,223,233,243,253,261,268,273,280,284,289,291,293,295,296,297,297,297,297,297,297,297,297,297,297,297,297,297,297,297,297,297,297,297,297,297,297,297,297,297,297,297,297,297]","[0,0,0,0,0,0,0,0,0,0,0,0,0,0,0,0,0,0,0,0,0,0,0,0,0,0,0,0,0,0,0,0,0,0,0,0,0,0,0,0,0,0,0,0,0,0,0,0,0,0,0,0,0,0,0,0,0,0,0,0,0]","[0,0,0,0,0,0,0,0,0,0,0,0,0,0,0,0,0,0,0,0,0,0,0,0,0,0,0,0,0,0,0,0,0,0,0,0,0,0,0,0,0,0,0,0,0,0,0,0,0,0,0,0,0,0,0,0,0,0,0,0,0]","[0,0,0,0,0,0,0,0,0,0,0,0,0,0,0,0,0,0,0,0,0,0,0,0,0,0,0,0,0,0,0,0,0,0,0,0,0,0,0,0,0,0,0,0,0,0,0,0,0,0,0,0,0,0,0,0,0,0,0,0,0]","[0,0.014600000001486535,0.025700000002977674,0.039200000002978186,0.05399999999999494,0.06590000000223029,0.08010000000148665,0.09449999999999648,0.10649999999999693,0.12020000000297415,0.1349000000022329,0.14660000000148443,0.16680000000074102,0.1742000000029762,0.18660000000149068,0.19999999999999574,0.21449999999999392,0.22790000000222932,0.241100000001488,0.2534999999999954,0.2665000000000006,0.28080000000074534,0.2944999999999993,0.3076000000014858,0.3203000000007421,0.3346000000014868,0.3464999999999989,0.360900000002232,0.37340000000223483,0.38770000000297955,0.3999999999999986,0.41440000000223165,0.4274999999999949,0.4405000000000001,0.45430000000074244,0.46720000000297546,0.48090000000222943,0.4941000000014881,0.507700000002977,0.5189000000022332,0.5323000000007454,0.5456000000014853,0.5589999999999975,0.573600000001484,0.58570000000298,0.6001000000014898,0.6123000000007437,0.627900000002235,0.6394999999999982,0.6524000000022312,0.6657000000029782,0.6793000000007439,0.6924000000022303,0.7059000000022309,0.7198000000007454,0.7324999999999946,0.7458000000007416,0.7602000000029747,0.7724000000022357,0.786600000001485,0.7989000000022344]",12,0,12,0,1,0.0658,,,,
test,2024-09-02_17h23.31.715,GoFitts,2023.2.3,Win32,74.07407407,"[-29.748730793405603,283.04026681901547]","[87.9460300942968,-270.67004898113686]",60,569.1986635,4.32,1,0.4948,"[-28,-28,-28,-28,-28,-28,-28,-28,-28,-28,-26,-23,-18,-11,-2,8,20,36,49,61,71,84,91,98,104,108,111,112,112,113,113,113,113,113,113,113,113,112,110,109,108,108,107,107,107,107,106,106,106,106,106,106,106,106,106,106,106,106,106,106,106,106,106,106,106,106,106,106,106,106,106,106,106,106,106,106]","[297,297,297,297,297,297,297,297,297,290,278,261,234,203,166,128,89,37,-5,-42,-79,-118,-142,-164,-184,-198,-209,-216,-222,-226,-231,-236,-240,-243,-247,-250,-254,-258,-261,-263,-265,-266,-266,-266,-266,-266,-266,-266,-266,-266,-266,-266,-266,-266,-266,-266,-266,-266,-266,-266,-266,-266,-266,-266,-266,-266,-266,-266,-266,-266,-266,-266,-266,-266,-266,-266]","[0,0,0,0,0,0,0,0,0,0,0,0,0,0,0,0,0,0,0,0,0,0,0,0,0,0,0,0,0,0,0,0,0,0,0,0,0,0,0,0,0,0,0,0,0,0,0,0,0,0,0,0,0,0,0,0,0,0,0,0,0,0,0,0,0,0,0,0,0,0,0,0,0,0,0,0]","[0,0,0,0,0,0,0,0,0,0,0,0,0,0,0,0,0,0,0,0,0,0,0,0,0,0,0,0,0,0,0,0,0,0,0,0,0,0,0,0,0,0,0,0,0,0,0,0,0,0,0,0,0,0,0,0,0,0,0,0,0,0,0,0,0,0,0,0,0,0,0,0,0,0,0,0]","[0,0,0,0,0,0,0,0,0,0,0,0,0,0,0,0,0,0,0,0,0,0,0,0,0,0,0,0,0,0,0,0,0,0,0,0,0,0,0,0,0,0,0,0,0,0,0,0,0,0,0,0,0,0,0,0,0,0,0,0,0,0,0,0,0,0,0,0,0,0,0,0,0,0,0,0]","[0.00009999999776511004,0.013799999997019086,0.026299999997021928,0.03929999999702005,0.0547999999970159,0.06719999999925363,0.07939999999850755,0.09369999999925227,0.10589999999850619,0.11959999999776016,0.13369999999925142,0.14709999999776358,0.16049999999999898,0.17369999999925056,0.18689999999850926,0.2007999999970167,0.21359999999776136,0.22839999999850846,0.24119999999925312,0.2535999999977605,0.26689999999850755,0.2826999999992523,0.2937999999970202,0.3068999999985067,0.32029999999701886,0.3335999999977659,0.34819999999925244,0.3610999999977622,0.3742999999970209,0.3868999999985121,0.40109999999776136,0.4135999999977642,0.42819999999925074,0.44039999999851176,0.45519999999925176,0.46669999999925693,0.4806999999992527,0.49479999999702073,0.5067999999970212,0.5219999999999985,0.5342999999970175,0.546999999999997,0.5615000000000023,0.5735999999977608,0.5859999999999985,0.6000999999977665,0.6126999999992506,0.626899999998507,0.6393999999985098,0.6525999999977614,0.6670000000000016,0.6801999999992532,0.6936999999992537,0.7058999999985076,0.7201999999992523,0.7325999999977668,0.7469999999999999,0.7592999999970189,0.772599999997766,0.7878999999985083,0.7992999999970181,0.8134999999999977,0.8279999999999959,0.8395999999977661,0.8545999999977667,0.8660999999977648,0.8793999999985118,0.8937999999970216,0.9059999999999988,0.9202999999970203,0.9326999999992509,0.945999999999998,0.9602999999970194,0.9726999999992572,0.9859999999999971,1.0008999999985093]",13,0,13,0,1,0.1605,,,,
test,2024-09-02_17h23.31.715,GoFitts,2023.2.3,Win32,74.07407407,"[87.9460300942968,-270.67004898113686]","[-142.2996658681934,246.47025118378588]",60,569.1986635,4.32,1,0.3196,"[106,104,103,100,94,83,66,41,10,-10,-40,-66,-82,-101,-114,-121,-127,-131,-134,-136,-138,-140,-142,-144,-145,-146,-147,-148,-148,-148,-148,-148,-148,-148,-148,-148,-148,-148,-148,-148,-148,-148,-148,-148,-148,-148,-148,-148,-148,-148,-148,-148,-148,-148,-148,-148,-148,-148,-148,-148,-148,-148,-148]","[-266,-264,-262,-258,-247,-231,-200,-159,-108,-73,-19,33,67,105,135,153,167,176,185,191,197,203,209,215,222,229,235,241,245,248,250,250,250,250,250,250,250,250,250,250,250,250,250,250,250,250,250,250,250,250,250,250,250,250,250,250,250,250,250,250,250,250,250]","[0,0,0,0,0,0,0,0,0,0,0,0,0,0,0,0,0,0,0,0,0,0,0,0,0,0,0,0,0,0,0,0,0,0,0,0,0,0,0,0,0,0,0,0,0,0,0,0,0,0,0,0,0,0,0,0,0,0,0,0,0,0,0]","[0,0,0,0,0,0,0,0,0,0,0,0,0,0,0,0,0,0,0,0,0,0,0,0,0,0,0,0,0,0,0,0,0,0,0,0,0,0,0,0,0,0,0,0,0,0,0,0,0,0,0,0,0,0,0,0,0,0,0,0,0,0,0]","[0,0,0,0,0,0,0,0,0,0,0,0,0,0,0,0,0,0,0,0,0,0,0,0,0,0,0,0,0,0,0,0,0,0,0,0,0,0,0,0,0,0,0,0,0,0,0,0,0,0,0,0,0,0,0,0,0,0,0,0,0,0,0]","[0,0.0126999999992492,0.025399999998505507,0.03789999999850835,0.0533999999985042,0.06649999999999778,0.07910000000148898,0.09219999999925221,0.10639999999850858,0.11910000000148813,0.13230000000073971,0.14660000000148443,0.15910000000148727,0.1721999999992505,0.18680000000074415,0.19950000000000045,0.2128999999985055,0.2254999999999967,0.23960000000148796,0.2521999999992488,0.26689999999850755,0.278899999998508,0.29360000000149,0.30539999999850664,0.31960000000148625,0.33239999999850767,0.34639999999850346,0.3591000000014901,0.37219999999925335,0.38569999999925386,0.39889999999850545,0.4134999999999991,0.42460000000149023,0.439399999998507,0.45110000000148887,0.46439999999850556,0.47919999999925267,0.4913000000007415,0.5046000000014885,0.5194999999999936,0.5311999999992523,0.5459999999999994,0.5578999999985044,0.573600000001484,0.5864999999999938,0.5991999999992501,0.6111999999992506,0.6269999999999953,0.6381000000014865,0.6513999999985103,0.6659999999999968,0.6798000000007391,0.6933999999985048,0.7046000000014843,0.719300000000743,0.7311999999992551,0.7454999999999998,0.7605000000000004,0.7713999999985077,0.7846999999992548,0.7999999999999972,0.8113000000007418,0.8246000000014888]",14,0,14,0,1,0.0664,,,,
test,2024-09-02_17h23.31.715,GoFitts,2023.2.3,Win32,74.07407407,,,,,,1,,,,,,,,,,,,,,1,0,0,1
test,2024-09-02_17h23.31.715,GoFitts,2023.2.3,Win32,74.07407407,,,,,,,,,,,,,,,,,,,,,,,