sequence_loop.thisRepN,sequence_loop.thisTrialN,sequence_loop.thisN,sequence_loop.thisIndex,trial_loop.thisRepN,trial_loop.thisTrialN,trial_loop.thisN,trial_loop.thisIndex,text.started,text.stopped,key_resp.keys,key_resp.rt,key_resp.started,key_resp.stopped,text_2.started,text_2.stopped,key_resp_3.keys,key_resp_3.rt,key_resp_3.started,key_resp_3.stopped,from,to,w,a,mouse.x,mouse.y,mouse.leftButton,mouse.midButton,mouse.rightButton,mouse.time,key_resp_2.keys,key_resp_2.started,key_resp_2.stopped,受試者ID,date,expName,psychopyVersion,frameRate,
,,,,,,,,7.403523100016173,None,return,4.781586299999617,7.403523100016173,None,,,,,,,,,,,,,,,,,,,,test,2022-09-23_11h08.13.647,GoFitts,2022.1.4,143.79571806914103,
0,0,0,0,0,0,0,0,,,,,,,12.215933900006348,None,return,0.4445529000076931,12.215933900006348,None,"[0, 0]","[-192.14153616405, 139.5989974194624]",40.5,475,"[216.0, 216.0, 196.0, 187.0, 182.0, 179.0, 175.0, 171.0, 161.0, 151.0, 143.0, 135.0, 132.0, 127.0, 121.0, 112.0, 108.0, 104.0, 101.0, 98.0, 96.0, 93.0, 90.0, 90.0, 89.0, 88.0, 87.0, 86.0, 85.0, 80.0, 80.0, 76.0, 72.0, 59.0, 40.0, 28.0, 2.0, -24.0, -50.0, -75.0, -95.0, -104.0, -115.0, -123.0, -125.0, -128.0, -129.0, -130.0, -131.0, -133.0, -133.0, -134.0, -135.0, -138.0, -140.0, -141.0, -143.0, -144.0, -147.0, -150.0, -155.0, -161.0, -165.0, -170.0, -173.0, -176.0]","[19.0, 19.0, 31.0, 36.0, 39.0, 41.0, 43.0, 45.0, 49.0, 53.0, 56.0, 58.0, 59.0, 59.0, 59.0, 60.0, 60.0, 60.0, 60.0, 60.0, 60.0, 60.0, 60.0, 60.0, 60.0, 60.0, 60.0, 60.0, 61.0, 62.0, 63.0, 65.0, 67.0, 74.0, 84.0, 90.0, 104.0, 116.0, 126.0, 136.0, 144.0, 146.0, 150.0, 152.0, 152.0, 152.0, 153.0, 153.0, 153.0, 153.0, 153.0, 153.0, 153.0, 153.0, 152.0, 150.0, 150.0, 150.0, 150.0, 149.0, 149.0, 149.0, 149.0, 149.0, 149.0, 149.0]","[0, 0, 0, 0, 0, 0, 0, 0, 0, 0, 0, 0, 0, 0, 0, 0, 0, 0, 0, 0, 0, 0, 0, 0, 0, 0, 0, 0, 0, 0, 0, 0, 0, 0, 0, 0, 0, 0, 0, 0, 0, 0, 0, 0, 0, 0, 0, 0, 0, 0, 0, 0, 0, 0, 0, 0, 0, 0, 0, 0, 0, 0, 0, 0, 0, 0]","[0, 0, 0, 0, 0, 0, 0, 0, 0, 0, 0, 0, 0, 0, 0, 0, 0, 0, 0, 0, 0, 0, 0, 0, 0, 0, 0, 0, 0, 0, 0, 0, 0, 0, 0, 0, 0, 0, 0, 0, 0, 0, 0, 0, 0, 0, 0, 0, 0, 0, 0, 0, 0, 0, 0, 0, 0, 0, 0, 0, 0, 0, 0, 0, 0, 0]","[0, 0, 0, 0, 0, 0, 0, 0, 0, 0, 0, 0, 0, 0, 0, 0, 0, 0, 0, 0, 0, 0, 0, 0, 0, 0, 0, 0, 0, 0, 0, 0, 0, 0, 0, 0, 0, 0, 0, 0, 0, 0, 0, 0, 0, 0, 0, 0, 0, 0, 0, 0, 0, 0, 0, 0, 0, 0, 0, 0, 0, 0, 0, 0, 0, 0]","[0.012193000002298504, 0.024443200003588572, 0.03676350001478568, 0.04351950000273064, 0.05033610001555644, 0.0572503000148572, 0.0648638000129722, 0.07855689999996684, 0.0925656000035815, 0.10640640000929125, 0.11998170000151731, 0.12696250001317821, 0.13399289999506436, 0.14116120000835508, 0.15422820000094362, 0.1617268999980297, 0.1689009999972768, 0.17500879999715835, 0.1824884999950882, 0.18957220000447705, 0.19621960000949912, 0.2103216999967117, 0.21701920000487007, 0.22398160002194345, 0.23098240001127124, 0.23756249999860302, 0.24476800000411458, 0.2525065000227187, 0.26600950001738966, 0.27189020000514574, 0.27949010001611896, 0.28771520001464523, 0.30101640001521446, 0.3142414000176359, 0.3217939000169281, 0.3361159000196494, 0.34942149999551475, 0.36312769999494776, 0.37706870000693016, 0.3906332000042312, 0.3983234000043012, 0.4118919000029564, 0.42562829999951646, 0.4324796000146307, 0.43960060001700185, 0.446131200005766, 0.4529649000032805, 0.46002800000132993, 0.46702330000698566, 0.47398209999664687, 0.4808558000077028, 0.4884449999954086, 0.5024443000147585, 0.5157247000024654, 0.5229691000131425, 0.5293278000026476, 0.5368845000048168, 0.5436060000211, 0.5509168000135105, 0.5646732000168413, 0.5785168000147678, 0.5858512000122573, 0.5991655999969225, 0.6060331000189763, 0.6132397000037599, 0.6271505000186153]",None,12.682308299990837,None,test,2022-09-23_11h08.13.647,GoFitts,2022.1.4,143.79571806914103,
0,0,0,0,1,0,1,0,,,,,,,,,,,,,"[-192.14153616405, 139.5989974194624]","[216.96704619011774, -96.59995273050254]",40.5,475,"[-190.0, -190.0, -193.0, -197.0, -198.0, -198.0, -198.0, -198.0, -198.0, -198.0, -195.0, -191.0, -187.0, -179.0, -161.0, -147.0, -132.0, -89.0, -64.0, -8.0, 15.0, 47.0, 72.0, 115.0, 145.0, 170.0, 179.0, 187.0, 197.0, 202.0]","[150.0, 150.0, 150.0, 151.0, 151.0, 151.0, 151.0, 151.0, 151.0, 151.0, 149.0, 145.0, 142.0, 136.0, 122.0, 111.0, 99.0, 69.0, 53.0, 18.0, 4.0, -15.0, -30.0, -54.0, -73.0, -87.0, -93.0, -98.0, -103.0, -104.0]","[0, 0, 0, 0, 0, 0, 0, 0, 0, 0, 0, 0, 0, 0, 0, 0, 0, 0, 0, 0, 0, 0, 0, 0, 0, 0, 0, 0, 0, 0]","[0, 0, 0, 0, 0, 0, 0, 0, 0, 0, 0, 0, 0, 0, 0, 0, 0, 0, 0, 0, 0, 0, 0, 0, 0, 0, 0, 0, 0, 0]","[0, 0, 0, 0, 0, 0, 0, 0, 0, 0, 0, 0, 0, 0, 0, 0, 0, 0, 0, 0, 0, 0, 0, 0, 0, 0, 0, 0, 0, 0]","[0.003925700002582744, 0.014015799999469891, 0.02974200001335703, 0.04172149999067187, 0.04827860000659712, 0.05611890001455322, 0.06912040000315756, 0.0762174999981653, 0.08341270001255907, 0.09024540000245906, 0.09723730001132935, 0.10393320000730455, 0.11180799998692237, 0.12487989998771809, 0.13189809999312274, 0.13901819998864084, 0.15275090001523495, 0.15993900000466965, 0.17344680000678636, 0.18001499999081716, 0.18721309999818914, 0.19503840000834316, 0.2084581000090111, 0.22224510001251474, 0.23603920001187362, 0.2431161999993492, 0.250493200001074, 0.2634062000142876, 0.27093900000909343, 0.277995300013572]",None,13.312987700017402,None,test,2022-09-23_11h08.13.647,GoFitts,2022.1.4,143.79571806914103,
0,0,0,0,2,0,2,0,,,,,,,,,,,,,"[216.96704619011774, -96.59995273050254]","[-232.31005517427886, 49.379026569217835]",40.5,475,"[205.0, 205.0, 206.0, 206.0, 206.0, 207.0, 207.0, 210.0, 213.0, 214.0, 216.0, 218.0, 220.0, 222.0, 222.0, 224.0, 225.0, 227.0, 228.0, 228.0, 228.0, 228.0, 228.0, 223.0, 216.0, 207.0, 188.0, 167.0, 144.0, 115.0, 44.0, -34.0, -84.0, -132.0, -167.0, -190.0, -201.0, -208.0, -212.0, -213.0, -214.0, -215.0, -216.0, -217.0, -221.0, -225.0, -230.0, -231.0, -232.0, -232.0, -232.0, -229.0, -227.0, -223.0]","[-106.0, -106.0, -107.0, -107.0, -107.0, -107.0, -107.0, -107.0, -107.0, -107.0, -107.0, -107.0, -107.0, -107.0, -107.0, -107.0, -107.0, -107.0, -107.0, -107.0, -107.0, -107.0, -107.0, -107.0, -106.0, -104.0, -99.0, -96.0, -90.0, -82.0, -58.0, -23.0, 1.0, 27.0, 47.0, 59.0, 67.0, 72.0, 74.0, 76.0, 76.0, 76.0, 76.0, 77.0, 77.0, 77.0, 77.0, 77.0, 77.0, 77.0, 75.0, 72.0, 70.0, 65.0]","[0, 0, 0, 0, 0, 0, 0, 0, 0, 0, 0, 0, 0, 0, 0, 0, 0, 0, 0, 0, 0, 0, 0, 0, 0, 0, 0, 0, 0, 0, 0, 0, 0, 0, 0, 0, 0, 0, 0, 0, 0, 0, 0, 0, 0, 0, 0, 0, 0, 0, 0, 0, 0, 0]","[0, 0, 0, 0, 0, 0, 0, 0, 0, 0, 0, 0, 0, 0, 0, 0, 0, 0, 0, 0, 0, 0, 0, 0, 0, 0, 0, 0, 0, 0, 0, 0, 0, 0, 0, 0, 0, 0, 0, 0, 0, 0, 0, 0, 0, 0, 0, 0, 0, 0, 0, 0, 0, 0]","[0, 0, 0, 0, 0, 0, 0, 0, 0, 0, 0, 0, 0, 0, 0, 0, 0, 0, 0, 0, 0, 0, 0, 0, 0, 0, 0, 0, 0, 0, 0, 0, 0, 0, 0, 0, 0, 0, 0, 0, 0, 0, 0, 0, 0, 0, 0, 0, 0, 0, 0, 0, 0, 0]","[0.00362249999307096, 0.013030899979639798, 0.019667799992021173, 0.0264690000039991, 0.03334319998975843, 0.04184759999043308, 0.05461920000379905, 0.06154150000656955, 0.06796349998330697, 0.07525239998358302, 0.08299789999728091, 0.09609189999173395, 0.10333729998092167, 0.10994619998382404, 0.12395740000647493, 0.13108079999801703, 0.14458100000047125, 0.15884940000250936, 0.17246099998010322, 0.1796353999816347, 0.1862810000020545, 0.19318649999331683, 0.20723119998001494, 0.21461120000458322, 0.22023489998537116, 0.22824189998209476, 0.23471129999961704, 0.24216039999737404, 0.2492844999942463, 0.2642617999808863, 0.2810047999955714, 0.2929535000002943, 0.30489810000290163, 0.3189770999888424, 0.33280169998761266, 0.34636259998660535, 0.3599310999852605, 0.3738973999861628, 0.38110149998101406, 0.38801510000484996, 0.3958686999976635, 0.40839189998223446, 0.4162499999802094, 0.4299180999805685, 0.44363319998956285, 0.4573802999802865, 0.4710749000078067, 0.47840649998397566, 0.49221440000110306, 0.5060586000035983, 0.5197048999834806, 0.5269480999850202, 0.5405271000054199, 0.5551401999837253]",None,13.590879099996528,None,test,2022-09-23_11h08.13.647,GoFitts,2022.1.4,143.79571806914103,
0,0,0,0,3,0,3,0,,,,,,,,,,,,,"[-232.31005517427886, 49.379026569217835]","[237.5, 0.0]",40.5,475,"[-216.0, -216.0, -212.0, -209.0, -208.0, -207.0, -206.0, -206.0, -206.0, -206.0, -206.0, -206.0, -204.0, -198.0, -183.0, -170.0, -152.0, -115.0, -92.0, -52.0, 21.0, 86.0, 154.0, 196.0, 228.0, 245.0]","[56.0, 55.0, 50.0, 43.0, 39.0, 36.0, 34.0, 33.0, 33.0, 33.0, 33.0, 33.0, 33.0, 32.0, 32.0, 32.0, 32.0, 31.0, 30.0, 29.0, 26.0, 24.0, 21.0, 20.0, 18.0, 16.0]","[0, 0, 0, 0, 0, 0, 0, 0, 0, 0, 0, 0, 0, 0, 0, 0, 0, 0, 0, 0, 0, 0, 0, 0, 0, 0]","[0, 0, 0, 0, 0, 0, 0, 0, 0, 0, 0, 0, 0, 0, 0, 0, 0, 0, 0, 0, 0, 0, 0, 0, 0, 0]","[0, 0, 0, 0, 0, 0, 0, 0, 0, 0, 0, 0, 0, 0, 0, 0, 0, 0, 0, 0, 0, 0, 0, 0, 0, 0]","[0.003891600004862994, 0.012834299996029586, 0.026857899996684864, 0.04020940000191331, 0.05425019998801872, 0.06790659998659976, 0.07468620000872761, 0.08161150000523776, 0.08854579998296686, 0.10260300000663847, 0.11006959999212995, 0.1237781000090763, 0.13751539998338558, 0.1512034999905154, 0.15809620000072755, 0.16618020000169054, 0.17880950000835583, 0.1858541999827139, 0.19390310000744648, 0.2071531999972649, 0.2209325000003446, 0.23548909998498857, 0.24884970000130124, 0.2625128999934532, 0.27705549998790957, 0.2903101999836508]",None,14.146246199990856,None,test,2022-09-23_11h08.13.647,GoFitts,2022.1.4,143.79571806914103,
0,0,0,0,4,0,4,0,,,,,,,,,,,,,"[237.5, 0.0]","[-232.31005517427886, -49.37902656921778]",40.5,475,"[258.0, 258.0, 261.0, 264.0, 265.0, 266.0, 267.0, 267.0, 267.0, 268.0, 270.0, 275.0, 282.0, 286.0, 286.0, 287.0, 287.0, 287.0, 287.0, 285.0, 281.0, 272.0, 255.0, 244.0, 227.0, 184.0, 163.0, 137.0, 77.0, 43.0, -14.0, -66.0, -89.0, -124.0, -148.0, -166.0, -174.0, -177.0, -179.0, -179.0, -180.0, -180.0, -180.0, -180.0, -181.0, -185.0, -189.0, -194.0, -198.0, -202.0, -206.0, -211.0, -215.0]","[15.0, 15.0, 15.0, 15.0, 15.0, 15.0, 15.0, 15.0, 15.0, 15.0, 14.0, 13.0, 11.0, 11.0, 11.0, 11.0, 11.0, 11.0, 9.0, 9.0, 8.0, 5.0, 1.0, -1.0, -2.0, -8.0, -12.0, -16.0, -21.0, -24.0, -26.0, -29.0, -30.0, -31.0, -31.0, -31.0, -32.0, -32.0, -32.0, -32.0, -32.0, -32.0, -32.0, -32.0, -32.0, -35.0, -37.0, -39.0, -41.0, -43.0, -45.0, -47.0, -49.0]","[0, 0, 0, 0, 0, 0, 0, 0, 0, 0, 0, 0, 0, 0, 0, 0, 0, 0, 0, 0, 0, 0, 0, 0, 0, 0, 0, 0, 0, 0, 0, 0, 0, 0, 0, 0, 0, 0, 0, 0, 0, 0, 0, 0, 0, 0, 0, 0, 0, 0, 0, 0, 0]","[0, 0, 0, 0, 0, 0, 0, 0, 0, 0, 0, 0, 0, 0, 0, 0, 0, 0, 0, 0, 0, 0, 0, 0, 0, 0, 0, 0, 0, 0, 0, 0, 0, 0, 0, 0, 0, 0, 0, 0, 0, 0, 0, 0, 0, 0, 0, 0, 0, 0, 0, 0, 0]","[0, 0, 0, 0, 0, 0, 0, 0, 0, 0, 0, 0, 0, 0, 0, 0, 0, 0, 0, 0, 0, 0, 0, 0, 0, 0, 0, 0, 0, 0, 0, 0, 0, 0, 0, 0, 0, 0, 0, 0, 0, 0, 0, 0, 0, 0, 0, 0, 0, 0, 0, 0, 0]","[0.004296099999919534, 0.015049099980387837, 0.026635499991243705, 0.04057700000703335, 0.047875799995381385, 0.061298999993596226, 0.068671799992444, 0.08230799998273142, 0.08909439999843016, 0.09627350000664592, 0.11028829999850132, 0.12428759998874739, 0.13744689998566173, 0.14484490000177175, 0.15201940000406466, 0.15950519999023527, 0.1724153999821283, 0.1792049999930896, 0.18613719998393208, 0.1939014999952633, 0.20748929999535903, 0.22110090000205673, 0.22792559998924844, 0.2356179000053089, 0.24886599997989833, 0.2550686000031419, 0.2627474000037182, 0.27664830000139773, 0.28427959998953156, 0.2977975999820046, 0.31145889998879284, 0.3189913999813143, 0.3324047999922186, 0.3462134999863338, 0.3602299999911338, 0.37393440000596456, 0.3801210999954492, 0.38745189999463037, 0.39461620000656694, 0.4019317000056617, 0.4168469999858644, 0.4299055000010412, 0.4432999999844469, 0.4577475999831222, 0.47158549999585375, 0.4857211000053212, 0.4990422999835573, 0.5129030999960378, 0.527796499984106, 0.5407721999799833, 0.5541495999787003, 0.5614932999887969, 0.5689208999974653]",None,14.440034700004617,None,test,2022-09-23_11h08.13.647,GoFitts,2022.1.4,143.79571806914103,
0,0,0,0,5,0,5,0,,,,,,,,,,,,,"[-232.31005517427886, -49.37902656921778]","[216.9670461901177, 96.59995273050254]",40.5,475,"[-220.0, -220.0, -223.0, -229.0, -235.0, -238.0, -238.0, -239.0, -239.0, -239.0, -239.0, -239.0, -239.0, -239.0, -234.0, -219.0, -208.0, -171.0, -126.0, -66.0, -33.0, 31.0, 88.0, 115.0, 163.0, 203.0]","[-50.0, -51.0, -52.0, -53.0, -54.0, -55.0, -55.0, -55.0, -55.0, -55.0, -55.0, -55.0, -55.0, -55.0, -50.0, -42.0, -35.0, -21.0, -5.0, 15.0, 24.0, 44.0, 60.0, 68.0, 79.0, 88.0]","[0, 0, 0, 0, 0, 0, 0, 0, 0, 0, 0, 0, 0, 0, 0, 0, 0, 0, 0, 0, 0, 0, 0, 0, 0, 0]","[0, 0, 0, 0, 0, 0, 0, 0, 0, 0, 0, 0, 0, 0, 0, 0, 0, 0, 0, 0, 0, 0, 0, 0, 0, 0]","[0, 0, 0, 0, 0, 0, 0, 0, 0, 0, 0, 0, 0, 0, 0, 0, 0, 0, 0, 0, 0, 0, 0, 0, 0, 0]","[0.0040022000030148774, 0.012916300009237602, 0.026303599996026605, 0.040023300010943785, 0.05404469999484718, 0.060803000000305474, 0.06745790000422858, 0.07468540000263602, 0.08186080001178198, 0.08832540002185851, 0.09540540000307374, 0.10237770000821911, 0.10940990000381134, 0.12423879999550991, 0.13747430001967587, 0.14451750001171604, 0.15853760001482442, 0.17208760001813062, 0.18602230001124553, 0.1929264000209514, 0.2070366000116337, 0.2206896000134293, 0.2277110000140965, 0.2417155000148341, 0.25527039999724366, 0.26947080000536516]",None,15.007585699990159,None,test,2022-09-23_11h08.13.647,GoFitts,2022.1.4,143.79571806914103,
0,0,0,0,6,0,6,0,,,,,,,,,,,,,"[216.9670461901177, 96.59995273050254]","[-192.14153616405002, -139.59899741946234]",40.5,475,"[236.0, 236.0, 249.0, 263.0, 270.0, 271.0, 271.0, 271.0, 271.0, 271.0, 271.0, 271.0, 271.0, 270.0, 267.0, 265.0, 262.0, 251.0, 231.0, 214.0, 177.0, 154.0, 98.0, 37.0, -22.0, -74.0, -112.0, -129.0, -145.0, -167.0, -180.0, -191.0, -197.0, -199.0, -200.0, -201.0, -203.0, -204.0, -205.0, -205.0, -205.0, -205.0, -205.0, -205.0, -205.0, -205.0, -205.0, -205.0, -204.0, -202.0, -199.0]","[95.0, 95.0, 97.0, 100.0, 100.0, 100.0, 100.0, 100.0, 100.0, 100.0, 100.0, 100.0, 100.0, 100.0, 100.0, 100.0, 100.0, 95.0, 84.0, 73.0, 51.0, 36.0, 0.0, -39.0, -75.0, -106.0, -126.0, -134.0, -142.0, -152.0, -157.0, -160.0, -163.0, -164.0, -165.0, -165.0, -166.0, -166.0, -166.0, -166.0, -166.0, -166.0, -167.0, -167.0, -167.0, -167.0, -167.0, -167.0, -166.0, -162.0, -158.0]","[0, 0, 0, 0, 0, 0, 0, 0, 0, 0, 0, 0, 0, 0, 0, 0, 0, 0, 0, 0, 0, 0, 0, 0, 0, 0, 0, 0, 0, 0, 0, 0, 0, 0, 0, 0, 0, 0, 0, 0, 0, 0, 0, 0, 0, 0, 0, 0, 0, 0, 0]","[0, 0, 0, 0, 0, 0, 0, 0, 0, 0, 0, 0, 0, 0, 0, 0, 0, 0, 0, 0, 0, 0, 0, 0, 0, 0, 0, 0, 0, 0, 0, 0, 0, 0, 0, 0, 0, 0, 0, 0, 0, 0, 0, 0, 0, 0, 0, 0, 0, 0, 0]","[0, 0, 0, 0, 0, 0, 0, 0, 0, 0, 0, 0, 0, 0, 0, 0, 0, 0, 0, 0, 0, 0, 0, 0, 0, 0, 0, 0, 0, 0, 0, 0, 0, 0, 0, 0, 0, 0, 0, 0, 0, 0, 0, 0, 0, 0, 0, 0, 0, 0, 0]","[0.004274200007785112, 0.01286039999104105, 0.026538800011621788, 0.04056500000297092, 0.05507719999877736, 0.06952689998433925, 0.08213399999658577, 0.09573870000895113, 0.10973090000334196, 0.11722879999433644, 0.13035910000326112, 0.13733589998446405, 0.14595149998785928, 0.15849239999079145, 0.16520700001274236, 0.17243790000793524, 0.18651410000165924, 0.19994429999496788, 0.20721860000048764, 0.22088710000389256, 0.22805619999417104, 0.24171020000358112, 0.25558209998416714, 0.269641099992441, 0.283656699990388, 0.2969487000082154, 0.30416619998868555, 0.31148219999158755, 0.3249057999928482, 0.3388884000014514, 0.35346809998736717, 0.3666777999897022, 0.37356479998561554, 0.38028439998743124, 0.38736779999453574, 0.39488440001150593, 0.4081978999893181, 0.41528139999718405, 0.42207820000476204, 0.4359957000124268, 0.4430247000127565, 0.44995209999615327, 0.45676989998901263, 0.4632368999882601, 0.4706953999993857, 0.4778254000120796, 0.4846634999848902, 0.4916578000120353, 0.4984602000040468, 0.506085200002417, 0.5195269999967422]",None,15.27816129999701,None,test,2022-09-23_11h08.13.647,GoFitts,2022.1.4,143.79571806914103,
0,0,0,0,7,0,7,0,,,,,,,,,,,,,"[-192.14153616405002, -139.59899741946234]","[158.91851901022883, 176.4968960508811]",40.5,475,"[-182.0, -182.0, -167.0, -152.0, -145.0, -136.0, -130.0, -125.0, -123.0, -123.0, -123.0, -123.0, -122.0, -120.0, -116.0, -108.0, -90.0, -78.0, -46.0, -24.0, 5.0, 59.0, 103.0, 121.0, 145.0]","[-139.0, -139.0, -123.0, -102.0, -92.0, -80.0, -63.0, -48.0, -38.0, -35.0, -30.0, -28.0, -23.0, -20.0, -11.0, -1.0, 16.0, 27.0, 50.0, 65.0, 86.0, 120.0, 151.0, 163.0, 180.0]","[0, 0, 0, 0, 0, 0, 0, 0, 0, 0, 0, 0, 0, 0, 0, 0, 0, 0, 0, 0, 0, 0, 0, 0, 0]","[0, 0, 0, 0, 0, 0, 0, 0, 0, 0, 0, 0, 0, 0, 0, 0, 0, 0, 0, 0, 0, 0, 0, 0, 0]","[0, 0, 0, 0, 0, 0, 0, 0, 0, 0, 0, 0, 0, 0, 0, 0, 0, 0, 0, 0, 0, 0, 0, 0, 0]","[0.003915100009180605, 0.013320600002771243, 0.026327300001867115, 0.03344250001828186, 0.040894500009017065, 0.054620000009890646, 0.0682618000137154, 0.08231510000769049, 0.08914220001315698, 0.0960583999985829, 0.10330919999978505, 0.11682130000554025, 0.12451950000831857, 0.13801349999266677, 0.15165479999268427, 0.16549200000008568, 0.17247350001707673, 0.1864144999999553, 0.19305339999846183, 0.20066210001823492, 0.21457929999451153, 0.2282208999968134, 0.23518020001938567, 0.2491135000018403, 0.25566779999644496]",None,15.799233199999435,None,test,2022-09-23_11h08.13.647,GoFitts,2022.1.4,143.79571806914103,
0,0,0,0,8,0,8,0,,,,,,,,,,,,,"[158.91851901022883, 176.4968960508811]","[-118.7500000000001, -205.68103339880415]",40.5,475,"[155.0, 155.0, 160.0, 161.0, 161.0, 161.0, 161.0, 160.0, 157.0, 154.0, 152.0, 152.0, 149.0, 149.0, 145.0, 142.0, 138.0, 132.0, 120.0, 114.0, 105.0, 86.0, 62.0, 27.0, -9.0, -53.0, -92.0, -114.0]","[190.0, 190.0, 195.0, 198.0, 199.0, 199.0, 199.0, 199.0, 199.0, 197.0, 196.0, 195.0, 193.0, 192.0, 189.0, 186.0, 180.0, 170.0, 154.0, 141.0, 126.0, 90.0, 47.0, -10.0, -65.0, -126.0, -175.0, -201.0]","[0, 0, 0, 0, 0, 0, 0, 0, 0, 0, 0, 0, 0, 0, 0, 0, 0, 0, 0, 0, 0, 0, 0, 0, 0, 0, 0, 0]","[0, 0, 0, 0, 0, 0, 0, 0, 0, 0, 0, 0, 0, 0, 0, 0, 0, 0, 0, 0, 0, 0, 0, 0, 0, 0, 0, 0]","[0, 0, 0, 0, 0, 0, 0, 0, 0, 0, 0, 0, 0, 0, 0, 0, 0, 0, 0, 0, 0, 0, 0, 0, 0, 0, 0, 0]","[0.0036379000230226666, 0.013794500002404675, 0.027275900007225573, 0.04090560000622645, 0.04775560001144186, 0.0549509999982547, 0.06170300001394935, 0.07681670002057217, 0.08974250001483597, 0.09656800000811927, 0.10329930001171306, 0.11045999999623746, 0.11770360000082292, 0.13292520001414232, 0.1457253000116907, 0.1594838000019081, 0.17358400000375696, 0.1869347000028938, 0.19409940001787618, 0.20183950001955964, 0.21504340000683442, 0.22891710000112653, 0.24305650001042522, 0.25653070001862943, 0.2712099000054877, 0.28595280001172796, 0.29815730001428165, 0.3053675999981351]",None,16.056460299994797,None,test,2022-09-23_11h08.13.647,GoFitts,2022.1.4,143.79571806914103,
0,0,0,0,9,0,9,0,,,,,,,,,,,,,"[-118.7500000000001, -205.68103339880415]","[73.39153616405002, 225.87592262009898]",40.5,475,"[-136.0, -137.0, -148.0, -162.0, -169.0, -171.0, -173.0, -173.0, -173.0, -173.0, -173.0, -173.0, -173.0, -173.0, -173.0, -173.0, -173.0, -173.0, -173.0, -170.0, -166.0, -156.0, -139.0, -113.0, -97.0, -65.0, -18.0, 15.0, 45.0, 63.0, 72.0]","[-222.0, -223.0, -232.0, -242.0, -248.0, -249.0, -250.0, -250.0, -250.0, -250.0, -250.0, -250.0, -250.0, -250.0, -250.0, -250.0, -250.0, -250.0, -250.0, -244.0, -233.0, -211.0, -181.0, -136.0, -108.0, -51.0, 35.0, 100.0, 159.0, 200.0, 225.0]","[0, 0, 0, 0, 0, 0, 0, 0, 0, 0, 0, 0, 0, 0, 0, 0, 0, 0, 0, 0, 0, 0, 0, 0, 0, 0, 0, 0, 0, 0, 0]","[0, 0, 0, 0, 0, 0, 0, 0, 0, 0, 0, 0, 0, 0, 0, 0, 0, 0, 0, 0, 0, 0, 0, 0, 0, 0, 0, 0, 0, 0, 0]","[0, 0, 0, 0, 0, 0, 0, 0, 0, 0, 0, 0, 0, 0, 0, 0, 0, 0, 0, 0, 0, 0, 0, 0, 0, 0, 0, 0, 0, 0, 0]","[0.004446499980986118, 0.012940599990542978, 0.027575999993132427, 0.04042370000388473, 0.04724650000571273, 0.05420330000924878, 0.061349399999016896, 0.06779490000917576, 0.0749311999825295, 0.0817881999828387, 0.08903499998268671, 0.10267960000783205, 0.10957159998361021, 0.11664940000628121, 0.12356999999610707, 0.1300712999945972, 0.1375975999981165, 0.14533299999311566, 0.15880740000284277, 0.17256129998713732, 0.18676489999052137, 0.20039459998952225, 0.21384159999433905, 0.22116479999385774, 0.2350766999879852, 0.24911569998948835, 0.26265089999651536, 0.27697139998781495, 0.29060340000432916, 0.30435759999090806, 0.3117486999835819]",None,16.361333500011824,None,test,2022-09-23_11h08.13.647,GoFitts,2022.1.4,143.79571806914103,
0,0,0,0,10,0,10,0,,,,,,,,,,,,,"[73.39153616405002, 225.87592262009898]","[-24.82551002606788, -236.1989501499649]",40.5,475,"[76.0, 76.0, 77.0, 77.0, 76.0, 76.0, 75.0, 75.0, 74.0, 73.0, 73.0, 71.0, 70.0, 70.0, 69.0, 68.0, 67.0, 66.0, 66.0, 66.0, 66.0, 66.0, 66.0, 66.0, 66.0, 64.0, 61.0, 56.0, 49.0, 36.0, 22.0, 12.0, 2.0, -4.0, -7.0]","[240.0, 240.0, 247.0, 252.0, 254.0, 254.0, 254.0, 254.0, 254.0, 254.0, 254.0, 254.0, 254.0, 255.0, 255.0, 255.0, 255.0, 255.0, 255.0, 254.0, 251.0, 243.0, 228.0, 197.0, 177.0, 131.0, 69.0, 36.0, -30.0, -93.0, -147.0, -183.0, -216.0, -232.0, -240.0]","[0, 0, 0, 0, 0, 0, 0, 0, 0, 0, 0, 0, 0, 0, 0, 0, 0, 0, 0, 0, 0, 0, 0, 0, 0, 0, 0, 0, 0, 0, 0, 0, 0, 0, 0]","[0, 0, 0, 0, 0, 0, 0, 0, 0, 0, 0, 0, 0, 0, 0, 0, 0, 0, 0, 0, 0, 0, 0, 0, 0, 0, 0, 0, 0, 0, 0, 0, 0, 0, 0]","[0, 0, 0, 0, 0, 0, 0, 0, 0, 0, 0, 0, 0, 0, 0, 0, 0, 0, 0, 0, 0, 0, 0, 0, 0, 0, 0, 0, 0, 0, 0, 0, 0, 0, 0]","[0.004116099997190759, 0.014699699997436255, 0.026269199996022508, 0.040029299998423085, 0.047167799988528714, 0.053953399998135865, 0.06111039998359047, 0.06744179999805056, 0.07510779998847283, 0.0818198999913875, 0.09030529999290593, 0.10230729999602772, 0.11253199999919161, 0.12351069998112507, 0.1304752999858465, 0.13758219999726862, 0.143341099988902, 0.15119740000227466, 0.15811509999912232, 0.16615350000211038, 0.17931899998802692, 0.19327229997725226, 0.20696599999791943, 0.21445949998451397, 0.22807809998630546, 0.24175709998235106, 0.24927800000295974, 0.2629492999985814, 0.27720869999029674, 0.2906451000017114, 0.30428839998785406, 0.319889799982775, 0.3329331999993883, 0.3462392999790609, 0.3595325999776833]",None,16.675980900006834,None,test,2022-09-23_11h08.13.647,GoFitts,2022.1.4,143.79571806914103,
0,0,0,0,11,0,11,0,,,,,,,,,,,,,"[-24.82551002606788, -236.1989501499649]","[-24.825510026067665, 236.19895014996493]",40.5,475,"[-9.0, -10.0, -10.0, -10.0, -11.0, -11.0, -11.0, -11.0, -11.0, -12.0, -12.0, -12.0, -12.0, -13.0, -13.0, -13.0, -11.0, -9.0, -8.0, -8.0, -9.0, -12.0, -12.0, -15.0, -19.0, -21.0, -24.0]","[-243.0, -243.0, -244.0, -244.0, -244.0, -244.0, -244.0, -244.0, -244.0, -244.0, -244.0, -244.0, -244.0, -244.0, -241.0, -226.0, -197.0, -152.0, -100.0, -61.0, 13.0, 80.0, 108.0, 158.0, 191.0, 204.0, 225.0]","[0, 0, 0, 0, 0, 0, 0, 0, 0, 0, 0, 0, 0, 0, 0, 0, 0, 0, 0, 0, 0, 0, 0, 0, 0, 0, 0]","[0, 0, 0, 0, 0, 0, 0, 0, 0, 0, 0, 0, 0, 0, 0, 0, 0, 0, 0, 0, 0, 0, 0, 0, 0, 0, 0]","[0, 0, 0, 0, 0, 0, 0, 0, 0, 0, 0, 0, 0, 0, 0, 0, 0, 0, 0, 0, 0, 0, 0, 0, 0, 0, 0]","[0.004172599990852177, 0.014947199990274385, 0.02691020001657307, 0.03410630000871606, 0.04036939999787137, 0.04761860001599416, 0.05500759999267757, 0.06139580000308342, 0.06879700001445599, 0.07575449999421835, 0.08950500001083128, 0.09623930000816472, 0.10366100000101142, 0.1177052000130061, 0.1313959000108298, 0.14525810000486672, 0.15917610001633875, 0.1729473000159487, 0.18006630000309087, 0.19402640001499094, 0.20733110001310706, 0.21517270000185817, 0.22879150000517257, 0.24234270001761615, 0.24976299999980256, 0.2634633000125177, 0.27709930000128224]",None,17.03676029999042,None,test,2022-09-23_11h08.13.647,GoFitts,2022.1.4,143.79571806914103,
0,0,0,0,12,0,12,0,,,,,,,,,,,,,"[-24.825510026067665, 236.19895014996493]","[73.39153616404997, -225.875922620099]",40.5,475,"[-25.0, -25.0, -26.0, -26.0, -26.0, -26.0, -26.0, -26.0, -26.0, -26.0, -24.0, -23.0, -22.0, -19.0, -13.0, -4.0, 7.0, 13.0, 24.0, 33.0, 37.0, 43.0, 47.0, 49.0, 49.0, 51.0, 53.0, 54.0, 55.0, 56.0, 57.0, 57.0, 57.0, 58.0, 59.0, 61.0, 63.0, 65.0, 67.0, 67.0, 67.0, 68.0, 67.0, 65.0]","[237.0, 237.0, 240.0, 240.0, 240.0, 240.0, 240.0, 240.0, 239.0, 234.0, 228.0, 224.0, 215.0, 197.0, 169.0, 127.0, 73.0, 48.0, -14.0, -75.0, -109.0, -158.0, -203.0, -232.0, -247.0, -257.0, -266.0, -269.0, -272.0, -272.0, -272.0, -272.0, -272.0, -272.0, -272.0, -272.0, -272.0, -272.0, -271.0, -269.0, -266.0, -257.0, -249.0, -232.0]","[0, 0, 0, 0, 0, 0, 0, 0, 0, 0, 0, 0, 0, 0, 0, 0, 0, 0, 0, 0, 0, 0, 0, 0, 0, 0, 0, 0, 0, 0, 0, 0, 0, 0, 0, 0, 0, 0, 0, 0, 0, 0, 0, 0]","[0, 0, 0, 0, 0, 0, 0, 0, 0, 0, 0, 0, 0, 0, 0, 0, 0, 0, 0, 0, 0, 0, 0, 0, 0, 0, 0, 0, 0, 0, 0, 0, 0, 0, 0, 0, 0, 0, 0, 0, 0, 0, 0, 0]","[0, 0, 0, 0, 0, 0, 0, 0, 0, 0, 0, 0, 0, 0, 0, 0, 0, 0, 0, 0, 0, 0, 0, 0, 0, 0, 0, 0, 0, 0, 0, 0, 0, 0, 0, 0, 0, 0, 0, 0, 0, 0, 0, 0]","[0.003980000008596107, 0.014944599999580532, 0.028065600025001913, 0.04078370000934228, 0.04800060001434758, 0.06135950001771562, 0.06822640000609681, 0.07588800002122298, 0.08925670001190156, 0.1033090999990236, 0.11062500000116415, 0.1240970000217203, 0.13817370001925156, 0.152047700015828, 0.16604500001994893, 0.17964490002486855, 0.18693640001583844, 0.20076990002417006, 0.21463800000492483, 0.22146560001419857, 0.2353900000161957, 0.24942570002167486, 0.2629210000159219, 0.2701445000129752, 0.2779680000094231, 0.29088790001696907, 0.297921999997925, 0.31124190002446994, 0.31907260001753457, 0.3324000000138767, 0.3391266000107862, 0.3457112000032794, 0.35313590001896955, 0.3605440999963321, 0.3746982000011485, 0.38827799999853596, 0.40185230001225136, 0.4169959000137169, 0.4295867000182625, 0.4367923999961931, 0.4507817999983672, 0.4578064000234008, 0.471379100024933, 0.4861007000145037]",None,17.314570599992294,None,test,2022-09-23_11h08.13.647,GoFitts,2022.1.4,143.79571806914103,
0,0,0,0,13,0,13,0,,,,,,,,,,,,,"[73.39153616404997, -225.875922620099]","[-118.74999999999994, 205.6810333988042]",40.5,475,"[62.0, 62.0, 60.0, 56.0, 53.0, 49.0, 47.0, 46.0, 46.0, 46.0, 46.0, 46.0, 45.0, 45.0, 45.0, 44.0, 40.0, 32.0, 21.0, 13.0, -6.0, -15.0, -35.0, -53.0, -71.0, -79.0, -86.0, -88.0, -89.0, -90.0, -90.0, -90.0, -90.0, -91.0, -93.0, -94.0, -95.0, -96.0, -97.0, -98.0, -99.0, -99.0, -99.0, -101.0]","[-207.0, -207.0, -197.0, -178.0, -169.0, -156.0, -149.0, -146.0, -146.0, -145.0, -145.0, -145.0, -145.0, -144.0, -144.0, -139.0, -125.0, -99.0, -67.0, -41.0, 8.0, 35.0, 89.0, 137.0, 179.0, 198.0, 213.0, 217.0, 220.0, 220.0, 220.0, 220.0, 220.0, 220.0, 220.0, 220.0, 219.0, 219.0, 218.0, 217.0, 215.0, 214.0, 210.0, 206.0]","[0, 0, 0, 0, 0, 0, 0, 0, 0, 0, 0, 0, 0, 0, 0, 0, 0, 0, 0, 0, 0, 0, 0, 0, 0, 0, 0, 0, 0, 0, 0, 0, 0, 0, 0, 0, 0, 0, 0, 0, 0, 0, 0, 0]","[0, 0, 0, 0, 0, 0, 0, 0, 0, 0, 0, 0, 0, 0, 0, 0, 0, 0, 0, 0, 0, 0, 0, 0, 0, 0, 0, 0, 0, 0, 0, 0, 0, 0, 0, 0, 0, 0, 0, 0, 0, 0, 0, 0]","[0, 0, 0, 0, 0, 0, 0, 0, 0, 0, 0, 0, 0, 0, 0, 0, 0, 0, 0, 0, 0, 0, 0, 0, 0, 0, 0, 0, 0, 0, 0, 0, 0, 0, 0, 0, 0, 0, 0, 0, 0, 0, 0, 0]","[0.004089699999894947, 0.013078999996650964, 0.02580189998843707, 0.0333907000022009, 0.04700819999561645, 0.0611194999946747, 0.07448479998856783, 0.08141019998583943, 0.08875150000676513, 0.09436349998577498, 0.10227689999737777, 0.10894579999148846, 0.11618819998693652, 0.12396239998633973, 0.13776499999221414, 0.15132129998528399, 0.16534799998044036, 0.17894809998688288, 0.18620100000407547, 0.1995302999857813, 0.20712380000622943, 0.2210594000061974, 0.23446259999764152, 0.24926229999982752, 0.2623785999894608, 0.27575090000755154, 0.2831233000033535, 0.29703419998986647, 0.3030678000068292, 0.3106060999853071, 0.3176071000052616, 0.33143309998558834, 0.33874289999948815, 0.3523440999852028, 0.35881639999570325, 0.36622159997932613, 0.37411549998796545, 0.3872681999928318, 0.400996699987445, 0.41487039998173714, 0.4221504000015557, 0.4363776999816764, 0.44972959998995066, 0.4635104000044521]",None,17.799218200001633,None,test,2022-09-23_11h08.13.647,GoFitts,2022.1.4,143.79571806914103,
0,0,0,0,14,0,14,0,,,,,,,,,,,,,"[-118.74999999999994, 205.6810333988042]","[158.9185190102289, -176.49689605088108]",40.5,475,"[-103.0, -104.0, -104.0, -106.0, -106.0, -107.0, -108.0, -109.0, -109.0, -111.0, -111.0, -111.0, -111.0, -109.0, -104.0, -98.0, -93.0, -83.0, -70.0, -44.0, -10.0, 28.0, 66.0, 86.0, 122.0, 148.0, 161.0, 180.0, 191.0, 196.0, 198.0, 199.0, 199.0, 199.0, 199.0, 199.0, 199.0, 199.0, 199.0, 199.0, 199.0, 199.0, 198.0, 198.0, 197.0, 194.0, 189.0, 179.0, 173.0]","[201.0, 201.0, 199.0, 196.0, 196.0, 195.0, 195.0, 194.0, 194.0, 194.0, 194.0, 194.0, 193.0, 188.0, 181.0, 176.0, 170.0, 161.0, 149.0, 124.0, 89.0, 47.0, 2.0, -22.0, -68.0, -100.0, -116.0, -142.0, -159.0, -170.0, -175.0, -180.0, -182.0, -182.0, -182.0, -182.0, -182.0, -182.0, -182.0, -183.0, -183.0, -183.0, -183.0, -183.0, -183.0, -183.0, -180.0, -175.0, -172.0]","[0, 0, 0, 0, 0, 0, 0, 0, 0, 0, 0, 0, 0, 0, 0, 0, 0, 0, 0, 0, 0, 0, 0, 0, 0, 0, 0, 0, 0, 0, 0, 0, 0, 0, 0, 0, 0, 0, 0, 0, 0, 0, 0, 0, 0, 0, 0, 0, 0]","[0, 0, 0, 0, 0, 0, 0, 0, 0, 0, 0, 0, 0, 0, 0, 0, 0, 0, 0, 0, 0, 0, 0, 0, 0, 0, 0, 0, 0, 0, 0, 0, 0, 0, 0, 0, 0, 0, 0, 0, 0, 0, 0, 0, 0, 0, 0, 0, 0]","[0, 0, 0, 0, 0, 0, 0, 0, 0, 0, 0, 0, 0, 0, 0, 0, 0, 0, 0, 0, 0, 0, 0, 0, 0, 0, 0, 0, 0, 0, 0, 0, 0, 0, 0, 0, 0, 0, 0, 0, 0, 0, 0, 0, 0, 0, 0, 0, 0]","[0.005298500007484108, 0.013209199998527765, 0.02650269999867305, 0.03381480000098236, 0.047367499995743856, 0.05452470001182519, 0.06061960000079125, 0.0687675999943167, 0.0825370000093244, 0.09614619999774732, 0.10363090000464581, 0.11684520001290366, 0.13196769999922253, 0.14475950002088211, 0.15182319999439642, 0.15813140000682324, 0.16546429999289103, 0.17298450000816956, 0.18677080000634305, 0.20094199999584816, 0.2143960999965202, 0.22814009999274276, 0.23516539999400266, 0.2494081000040751, 0.262623300019186, 0.27002950001042336, 0.2842716000159271, 0.2981199000205379, 0.3114013000158593, 0.3186725999985356, 0.33233710000058636, 0.3460596000077203, 0.35973660001764074, 0.3680900000035763, 0.38139749999390915, 0.3946985999937169, 0.40882690000580624, 0.4224986000044737, 0.4364105999993626, 0.4500588999944739, 0.45743840001523495, 0.4643313999986276, 0.4713468000118155, 0.4770407000032719, 0.4853937000152655, 0.49927390000084415, 0.512665799993556, 0.5208939000149257, 0.5342666000069585]",None,18.264526500017382,None,test,2022-09-23_11h08.13.647,GoFitts,2022.1.4,143.79571806914103,
0,0,0,0,,,,,,,,,,,,,,,,,,,,,,,,,,,,,,test,2022-09-23_11h08.13.647,GoFitts,2022.1.4,143.79571806914103,
1,0,1,0,0,0,0,0,,,,,,,18.819987399998354,None,return,0.5453396000084467,18.819987399998354,None,"[0, 0]","[-28.745327398604914, -273.49352122627516]",32.3,550,"[0.0, 0.0, 0.0, 0.0, 0.0, 0.0, 0.0, 0.0, 0.0, 0.0, 0.0, 0.0, 0.0, 0.0, 0.0, 0.0, 0.0, 0.0, 0.0, 0.0, 0.0, 0.0, 0.0, 0.0, 0.0, 0.0, 0.0, 0.0, 0.0, 0.0, -2.0, -9.0, -13.0, -20.0, -35.0, -45.0, -61.0, -71.0, -77.0, -90.0, -95.0, -99.0, -103.0, -108.0, -108.0, -105.0, -100.0, -93.0, -85.0, -77.0, -64.0, -54.0, -46.0, -42.0, -41.0, -41.0, -41.0, -41.0, -41.0, -41.0, -41.0, -41.0, -40.0, -39.0, -39.0, -39.0, -39.0, -38.0, -37.0, -37.0, -37.0, -35.0, -34.0, -33.0, -32.0, -30.0]","[0.0, 0.0, 0.0, 0.0, 0.0, 0.0, 0.0, 0.0, 0.0, 0.0, 0.0, 0.0, 0.0, 0.0, 0.0, 0.0, 0.0, 0.0, 0.0, 0.0, 0.0, 0.0, 0.0, 0.0, 0.0, 0.0, 0.0, 0.0, 0.0, 0.0, 1.0, 5.0, 8.0, 13.0, 21.0, 27.0, 33.0, 35.0, 37.0, 37.0, 34.0, 29.0, 22.0, 5.0, -18.0, -48.0, -74.0, -104.0, -127.0, -151.0, -181.0, -203.0, -219.0, -227.0, -231.0, -232.0, -232.0, -232.0, -232.0, -232.0, -232.0, -232.0, -232.0, -232.0, -232.0, -232.0, -232.0, -232.0, -233.0, -234.0, -236.0, -239.0, -242.0, -248.0, -255.0, -263.0]","[0, 0, 0, 0, 0, 0, 0, 0, 0, 0, 0, 0, 0, 0, 0, 0, 0, 0, 0, 0, 0, 0, 0, 0, 0, 0, 0, 0, 0, 0, 0, 0, 0, 0, 0, 0, 0, 0, 0, 0, 0, 0, 0, 0, 0, 0, 0, 0, 0, 0, 0, 0, 0, 0, 0, 0, 0, 0, 0, 0, 0, 0, 0, 0, 0, 0, 0, 0, 0, 0, 0, 0, 0, 0, 0, 0]","[0, 0, 0, 0, 0, 0, 0, 0, 0, 0, 0, 0, 0, 0, 0, 0, 0, 0, 0, 0, 0, 0, 0, 0, 0, 0, 0, 0, 0, 0, 0, 0, 0, 0, 0, 0, 0, 0, 0, 0, 0, 0, 0, 0, 0, 0, 0, 0, 0, 0, 0, 0, 0, 0, 0, 0, 0, 0, 0, 0, 0, 0, 0, 0, 0, 0, 0, 0, 0, 0, 0, 0, 0, 0, 0, 0]","[0, 0, 0, 0, 0, 0, 0, 0, 0, 0, 0, 0, 0, 0, 0, 0, 0, 0, 0, 0, 0, 0, 0, 0, 0, 0, 0, 0, 0, 0, 0, 0, 0, 0, 0, 0, 0, 0, 0, 0, 0, 0, 0, 0, 0, 0, 0, 0, 0, 0, 0, 0, 0, 0, 0, 0, 0, 0, 0, 0, 0, 0, 0, 0, 0, 0, 0, 0, 0, 0, 0, 0, 0, 0, 0, 0]","[0.00471740000648424, 0.01734980000765063, 0.03020229999674484, 0.037193600001046434, 0.0445045999949798, 0.05104140000184998, 0.058186099980957806, 0.06439189999946393, 0.07189259998267516, 0.07854220000444911, 0.08578779999515973, 0.09319280000636354, 0.10708250000607222, 0.12070909998146817, 0.13444829999934882, 0.1414885999984108, 0.14787499999511056, 0.15596579998964444, 0.1692674999940209, 0.17601619998458773, 0.18298429998685606, 0.19018979999236763, 0.1966262999922037, 0.2043163999915123, 0.21140899998135865, 0.22477549998438917, 0.23174779998953454, 0.23845790000632405, 0.25292820000322536, 0.2670090000028722, 0.28037619998212904, 0.28725049999775365, 0.2948194000055082, 0.30840479998732917, 0.31552979999105446, 0.32879339999635704, 0.3360322999942582, 0.3440818999952171, 0.35679709998657927, 0.3641195999807678, 0.37085609999485314, 0.3781484999926761, 0.39210450000246055, 0.40572189999511465, 0.4204783999884967, 0.43415379998623393, 0.4472611999954097, 0.45658040000125766, 0.4692586000019219, 0.4820892999996431, 0.49583080000593327, 0.5107552999979816, 0.5244219999876805, 0.5381067999987863, 0.5514065999886952, 0.5653550999995787, 0.5789079999958631, 0.5860218000016175, 0.5926538000057917, 0.5996359999990091, 0.6066933999827597, 0.613635499990778, 0.6209605000040028, 0.6344868000014685, 0.6417544999858364, 0.6551927999826148, 0.6694684999820311, 0.676676300005056, 0.6823936000000685, 0.6906614000035916, 0.7042539999820292, 0.7114944999921136, 0.7252564000082202, 0.7389461999991909, 0.7535907999845222, 0.7669519000046421]",None,19.38284120001481,None,test,2022-09-23_11h08.13.647,GoFitts,2022.1.4,143.79571806914103,
1,0,1,0,1,0,1,0,,,,,,,,,,,,,"[-28.745327398604914, -273.49352122627516]","[-28.745327398604665, 273.49352122627516]",32.3,550,"[-28.0, -28.0, -27.0, -26.0, -26.0, -26.0, -26.0, -26.0, -26.0, -26.0, -26.0, -25.0, -25.0, -25.0, -25.0, -25.0, -26.0, -22.0, -7.0, 4.0, 24.0, 41.0, 58.0, 64.0, 67.0, 67.0, 67.0, 66.0, 66.0, 65.0, 65.0, 62.0, 60.0, 56.0, 53.0, 49.0, 42.0, 40.0, 37.0, 33.0, 30.0, 27.0, 23.0, 17.0, 10.0, 7.0, 2.0, -1.0, -3.0, -3.0, -5.0, -7.0, -11.0, -12.0, -14.0, -16.0]","[-271.0, -271.0, -274.0, -276.0, -277.0, -277.0, -277.0, -277.0, -277.0, -277.0, -277.0, -277.0, -271.0, -253.0, -217.0, -168.0, -102.0, -40.0, 34.0, 67.0, 107.0, 139.0, 174.0, 194.0, 205.0, 212.0, 214.0, 215.0, 215.0, 216.0, 216.0, 217.0, 217.0, 218.0, 218.0, 218.0, 219.0, 219.0, 220.0, 220.0, 220.0, 222.0, 223.0, 225.0, 228.0, 230.0, 233.0, 236.0, 238.0, 240.0, 242.0, 247.0, 253.0, 258.0, 262.0, 267.0]","[0, 0, 0, 0, 0, 0, 0, 0, 0, 0, 0, 0, 0, 0, 0, 0, 0, 0, 0, 0, 0, 0, 0, 0, 0, 0, 0, 0, 0, 0, 0, 0, 0, 0, 0, 0, 0, 0, 0, 0, 0, 0, 0, 0, 0, 0, 0, 0, 0, 0, 0, 0, 0, 0, 0, 0]","[0, 0, 0, 0, 0, 0, 0, 0, 0, 0, 0, 0, 0, 0, 0, 0, 0, 0, 0, 0, 0, 0, 0, 0, 0, 0, 0, 0, 0, 0, 0, 0, 0, 0, 0, 0, 0, 0, 0, 0, 0, 0, 0, 0, 0, 0, 0, 0, 0, 0, 0, 0, 0, 0, 0, 0]","[0, 0, 0, 0, 0, 0, 0, 0, 0, 0, 0, 0, 0, 0, 0, 0, 0, 0, 0, 0, 0, 0, 0, 0, 0, 0, 0, 0, 0, 0, 0, 0, 0, 0, 0, 0, 0, 0, 0, 0, 0, 0, 0, 0, 0, 0, 0, 0, 0, 0, 0, 0, 0, 0, 0, 0]","[0.0038053999887779355, 0.01238759999978356, 0.01969069999177009, 0.033359199995175004, 0.04014980001375079, 0.04721419999259524, 0.05301589998998679, 0.06046450001304038, 0.06749499999568798, 0.07470399999874644, 0.08272579999174923, 0.09584190000896342, 0.11025739999604411, 0.12378809999790974, 0.13764550001360476, 0.1514004000055138, 0.16546540000126697, 0.17920310000772588, 0.1862797999929171, 0.19621809999807738, 0.20713009999599308, 0.22212520000175573, 0.23555219999980181, 0.2486745000060182, 0.26219270000001416, 0.2693548999959603, 0.2765044000116177, 0.28315920001477934, 0.290036099991994, 0.29695479999645613, 0.3039743000117596, 0.3103963999892585, 0.3180300999956671, 0.3251435999991372, 0.3320862000109628, 0.34566930000437424, 0.35288950000540353, 0.35977109998930246, 0.3664647999976296, 0.37304850001237355, 0.3805591000127606, 0.38743800000520423, 0.4016004000150133, 0.41547239999636076, 0.4225709000020288, 0.436148900014814, 0.450027399987448, 0.45640980001189746, 0.46357500000158325, 0.4711949999909848, 0.4852973000088241, 0.4987122000020463, 0.5124443999957293, 0.5197356000135187, 0.5332551999890711, 0.5400758000032511]",None,20.146115400013514,None,test,2022-09-23_11h08.13.647,GoFitts,2022.1.4,143.79571806914103,
1,0,1,0,2,0,2,0,,,,,,,,,,,,,"[-28.745327398604665, 273.49352122627516]","[84.9796734531105, -261.5405419811673]",32.3,550,"[-17.0, -17.0, -18.0, -18.0, -18.0, -18.0, -19.0, -19.0, -19.0, -20.0, -20.0, -20.0, -17.0, -12.0, -4.0, 7.0, 20.0, 35.0, 49.0, 61.0, 65.0, 70.0, 75.0, 75.0, 77.0, 78.0]","[270.0, 270.0, 271.0, 272.0, 272.0, 272.0, 272.0, 272.0, 270.0, 264.0, 253.0, 234.0, 204.0, 182.0, 145.0, 88.0, 27.0, -34.0, -90.0, -136.0, -159.0, -192.0, -222.0, -230.0, -245.0, -251.0]","[0, 0, 0, 0, 0, 0, 0, 0, 0, 0, 0, 0, 0, 0, 0, 0, 0, 0, 0, 0, 0, 0, 0, 0, 0, 0]","[0, 0, 0, 0, 0, 0, 0, 0, 0, 0, 0, 0, 0, 0, 0, 0, 0, 0, 0, 0, 0, 0, 0, 0, 0, 0]","[0, 0, 0, 0, 0, 0, 0, 0, 0, 0, 0, 0, 0, 0, 0, 0, 0, 0, 0, 0, 0, 0, 0, 0, 0, 0]","[0.0037382000009529293, 0.013039200013736263, 0.026600400015013292, 0.04086850001476705, 0.05397600002470426, 0.06123150000348687, 0.06847930001094937, 0.08236980001674965, 0.09647640000912361, 0.11031680001178756, 0.12431080001988448, 0.137775800016243, 0.14490520002436824, 0.15303220000350848, 0.16622990000178106, 0.17963860000600107, 0.19350290001602843, 0.20744150000973605, 0.22094100000686012, 0.22863220001454465, 0.24215610002283938, 0.2559209000028204, 0.2629579000058584, 0.27685809999820776, 0.28373610001290217, 0.2911179000220727]",None,20.688066800008528,None,test,2022-09-23_11h08.13.647,GoFitts,2022.1.4,143.79571806914103,
1,0,1,0,3,0,3,0,,,,,,,,,,,,,"[84.9796734531105, -261.5405419811673]","[-137.49999999999994, 238.15698604072065]",32.3,550,"[78.0, 78.0, 78.0, 78.0, 79.0, 79.0, 79.0, 79.0, 79.0, 80.0, 80.0, 80.0, 80.0, 81.0, 81.0, 81.0, 81.0, 81.0, 81.0, 81.0, 81.0, 81.0, 81.0, 77.0, 73.0, 66.0, 58.0, 39.0, 6.0, -36.0, -67.0, -91.0, -110.0, -123.0, -132.0]","[-259.0, -259.0, -262.0, -266.0, -268.0, -269.0, -269.0, -271.0, -271.0, -271.0, -272.0, -272.0, -272.0, -273.0, -273.0, -273.0, -273.0, -273.0, -273.0, -273.0, -273.0, -270.0, -264.0, -256.0, -245.0, -229.0, -205.0, -153.0, -78.0, 15.0, 82.0, 136.0, 178.0, 205.0, 224.0]","[0, 0, 0, 0, 0, 0, 0, 0, 0, 0, 0, 0, 0, 0, 0, 0, 0, 0, 0, 0, 0, 0, 0, 0, 0, 0, 0, 0, 0, 0, 0, 0, 0, 0, 0]","[0, 0, 0, 0, 0, 0, 0, 0, 0, 0, 0, 0, 0, 0, 0, 0, 0, 0, 0, 0, 0, 0, 0, 0, 0, 0, 0, 0, 0, 0, 0, 0, 0, 0, 0]","[0, 0, 0, 0, 0, 0, 0, 0, 0, 0, 0, 0, 0, 0, 0, 0, 0, 0, 0, 0, 0, 0, 0, 0, 0, 0, 0, 0, 0, 0, 0, 0, 0, 0, 0]","[0.003981300018494949, 0.013137900008587167, 0.02651500000501983, 0.040421800018521026, 0.047512699995422736, 0.061026400013361126, 0.06799280000268482, 0.07488980001653545, 0.08189679999486543, 0.08915600000182167, 0.09541830001398921, 0.10257529999944381, 0.11031370001728646, 0.1237873999925796, 0.13048120000166818, 0.13737820001551881, 0.15117349999491125, 0.16507990000536665, 0.1721452999918256, 0.17870779999066144, 0.18634430001839064, 0.19339910001144744, 0.1999777000164613, 0.2073894999921322, 0.21398030000273138, 0.2216171000036411, 0.23535980001906864, 0.24883160000899807, 0.2638808999909088, 0.27700180001556873, 0.29062580000027083, 0.3044708000088576, 0.3183873000089079, 0.3324972999980673, 0.3461777000047732]",None,20.979392600012943,None,test,2022-09-23_11h08.13.647,GoFitts,2022.1.4,143.79571806914103,
1,0,1,0,4,0,4,0,,,,,,,,,,,,,"[-137.49999999999994, 238.15698604072065]","[184.01091674868607, -204.36482700628335]",32.3,550,"[-138.0, -138.0, -140.0, -140.0, -140.0, -140.0, -141.0, -142.0, -143.0, -144.0, -145.0, -145.0, -145.0, -146.0, -147.0, -147.0, -147.0, -147.0, -147.0, -147.0, -146.0, -144.0, -137.0, -131.0, -116.0, -95.0, -72.0, -57.0, -41.0, -14.0, 12.0, 37.0, 55.0, 65.0, 83.0, 89.0, 100.0, 108.0, 113.0, 115.0, 117.0, 119.0, 120.0, 123.0, 127.0, 130.0, 132.0, 135.0, 138.0, 142.0, 145.0, 147.0, 151.0, 153.0, 155.0, 157.0, 159.0, 161.0, 162.0, 165.0, 167.0, 169.0, 172.0]","[238.0, 238.0, 241.0, 242.0, 243.0, 243.0, 243.0, 243.0, 243.0, 243.0, 244.0, 244.0, 244.0, 244.0, 244.0, 244.0, 244.0, 244.0, 244.0, 243.0, 241.0, 236.0, 223.0, 212.0, 186.0, 145.0, 101.0, 76.0, 49.0, 2.0, -39.0, -77.0, -98.0, -109.0, -124.0, -130.0, -137.0, -142.0, -144.0, -146.0, -147.0, -147.0, -148.0, -149.0, -150.0, -151.0, -152.0, -153.0, -155.0, -158.0, -160.0, -162.0, -167.0, -170.0, -172.0, -175.0, -177.0, -181.0, -184.0, -187.0, -192.0, -195.0, -201.0]","[0, 0, 0, 0, 0, 0, 0, 0, 0, 0, 0, 0, 0, 0, 0, 0, 0, 0, 0, 0, 0, 0, 0, 0, 0, 0, 0, 0, 0, 0, 0, 0, 0, 0, 0, 0, 0, 0, 0, 0, 0, 0, 0, 0, 0, 0, 0, 0, 0, 0, 0, 0, 0, 0, 0, 0, 0, 0, 0, 0, 0, 0, 0]","[0, 0, 0, 0, 0, 0, 0, 0, 0, 0, 0, 0, 0, 0, 0, 0, 0, 0, 0, 0, 0, 0, 0, 0, 0, 0, 0, 0, 0, 0, 0, 0, 0, 0, 0, 0, 0, 0, 0, 0, 0, 0, 0, 0, 0, 0, 0, 0, 0, 0, 0, 0, 0, 0, 0, 0, 0, 0, 0, 0, 0, 0, 0]","[0, 0, 0, 0, 0, 0, 0, 0, 0, 0, 0, 0, 0, 0, 0, 0, 0, 0, 0, 0, 0, 0, 0, 0, 0, 0, 0, 0, 0, 0, 0, 0, 0, 0, 0, 0, 0, 0, 0, 0, 0, 0, 0, 0, 0, 0, 0, 0, 0, 0, 0, 0, 0, 0, 0, 0, 0, 0, 0, 0, 0, 0, 0]","[0.0039053999935276806, 0.014535399997839704, 0.026986699987901375, 0.040805500000715256, 0.054445099987788126, 0.06827289998182096, 0.07563579999259673, 0.0888732000021264, 0.09628299999167211, 0.10309200000483543, 0.10984479999751784, 0.1163366999826394, 0.12388179998379201, 0.13760099999490194, 0.1446122000052128, 0.15151959998183884, 0.1585594000061974, 0.16497129999333993, 0.17264770000474527, 0.17963649999001063, 0.18675920000532642, 0.19989109999733046, 0.2073159999854397, 0.22156370000448078, 0.23529889999190345, 0.24886560000595637, 0.25559139999677427, 0.2632529999827966, 0.2772324999968987, 0.290621199994348, 0.3062396000023, 0.31855799999902956, 0.3258697999990545, 0.3391000999836251, 0.3464623999898322, 0.36028530000476167, 0.3740694999869447, 0.3877126000006683, 0.39477240000269376, 0.4017853999976069, 0.40889369999058545, 0.4148740000091493, 0.4228546000085771, 0.4362906999886036, 0.4501812999951653, 0.4571208999841474, 0.472244899981888, 0.48546510000596754, 0.49852709998958744, 0.5056789999944158, 0.5131553999963216, 0.5266923999879509, 0.5335603999847081, 0.540256699983729, 0.5475067000079434, 0.5536070000089239, 0.5615445000003092, 0.5680772000050638, 0.5757711000042036, 0.5889053999853786, 0.597672000003513, 0.6103377999970689, 0.6240389999875333]",None,21.327273000002606,None,test,2022-09-23_11h08.13.647,GoFitts,2022.1.4,143.79571806914103,
1,0,1,0,5,0,5,0,,,,,,,,,,,,,"[184.01091674868607, -204.36482700628335]","[-222.4796734531105, 161.64094438043014]",32.3,550,"[176.0, 176.0, 178.0, 179.0, 179.0, 179.0, 179.0, 179.0, 179.0, 179.0, 177.0, 168.0, 150.0, 131.0, 98.0, 55.0, 15.0, -23.0, -58.0, -85.0, -105.0, -119.0, -123.0, -130.0, -133.0, -136.0, -137.0, -141.0, -143.0, -144.0, -146.0, -151.0, -155.0, -161.0, -168.0, -174.0, -181.0, -187.0, -193.0, -198.0, -201.0, -203.0, -207.0, -210.0]","[-207.0, -207.0, -210.0, -211.0, -212.0, -212.0, -212.0, -212.0, -212.0, -212.0, -207.0, -194.0, -169.0, -147.0, -110.0, -70.0, -32.0, -2.0, 25.0, 47.0, 65.0, 76.0, 81.0, 88.0, 91.0, 93.0, 95.0, 98.0, 101.0, 102.0, 104.0, 108.0, 111.0, 115.0, 119.0, 124.0, 129.0, 133.0, 138.0, 143.0, 144.0, 147.0, 151.0, 154.0]","[0, 0, 0, 0, 0, 0, 0, 0, 0, 0, 0, 0, 0, 0, 0, 0, 0, 0, 0, 0, 0, 0, 0, 0, 0, 0, 0, 0, 0, 0, 0, 0, 0, 0, 0, 0, 0, 0, 0, 0, 0, 0, 0, 0]","[0, 0, 0, 0, 0, 0, 0, 0, 0, 0, 0, 0, 0, 0, 0, 0, 0, 0, 0, 0, 0, 0, 0, 0, 0, 0, 0, 0, 0, 0, 0, 0, 0, 0, 0, 0, 0, 0, 0, 0, 0, 0, 0, 0]","[0, 0, 0, 0, 0, 0, 0, 0, 0, 0, 0, 0, 0, 0, 0, 0, 0, 0, 0, 0, 0, 0, 0, 0, 0, 0, 0, 0, 0, 0, 0, 0, 0, 0, 0, 0, 0, 0, 0, 0, 0, 0, 0, 0]","[0.004427499981829897, 0.015801700006704777, 0.026792199991177768, 0.04020379998837598, 0.04756800000905059, 0.061078300001099706, 0.0684670000046026, 0.07497679998050444, 0.08217259999946691, 0.096352399996249, 0.11030959998606704, 0.12360739998985082, 0.13131669998983853, 0.14539809999405406, 0.15903419998358004, 0.17264969999087043, 0.18710700000519864, 0.2004884000052698, 0.21464930000365712, 0.2284815000020899, 0.24169520000577904, 0.24906669999472797, 0.262934900005348, 0.2693542999913916, 0.27664339999319054, 0.28375460000825115, 0.29782400000840425, 0.31131879999884404, 0.3189799999818206, 0.3323114000086207, 0.3469967999844812, 0.3604355999850668, 0.3742482999805361, 0.3890641999896616, 0.4023051999974996, 0.41593489999650046, 0.4300883999967482, 0.4435532999923453, 0.4572090999863576, 0.46417739999014884, 0.47164979999070056, 0.48517959998571314, 0.49889029999030754, 0.5128648999962024]",None,21.951953400013736,None,test,2022-09-23_11h08.13.647,GoFitts,2022.1.4,143.79571806914103,
1,0,1,0,6,0,6,0,,,,,,,,,,,,,"[-222.4796734531105, 161.64094438043014]","[251.22500085171527, -111.85257684584504]",32.3,550,"[-213.0, -213.0, -213.0, -215.0, -215.0, -215.0, -215.0, -215.0, -215.0, -215.0, -214.0, -209.0, -203.0, -195.0, -169.0, -152.0, -131.0, -76.0, -24.0, 32.0, 91.0, 138.0, 173.0, 199.0, 208.0, 217.0, 222.0, 230.0, 235.0, 237.0, 238.0, 239.0, 240.0, 240.0, 242.0, 243.0, 245.0, 248.0, 249.0, 251.0, 253.0, 253.0, 254.0, 255.0, 255.0, 256.0, 257.0]","[158.0, 158.0, 158.0, 160.0, 160.0, 160.0, 160.0, 160.0, 160.0, 160.0, 159.0, 154.0, 151.0, 148.0, 136.0, 128.0, 118.0, 92.0, 68.0, 43.0, 16.0, -6.0, -22.0, -37.0, -41.0, -47.0, -50.0, -55.0, -58.0, -60.0, -61.0, -62.0, -62.0, -63.0, -65.0, -67.0, -72.0, -76.0, -78.0, -83.0, -85.0, -87.0, -89.0, -92.0, -92.0, -94.0, -97.0]","[0, 0, 0, 0, 0, 0, 0, 0, 0, 0, 0, 0, 0, 0, 0, 0, 0, 0, 0, 0, 0, 0, 0, 0, 0, 0, 0, 0, 0, 0, 0, 0, 0, 0, 0, 0, 0, 0, 0, 0, 0, 0, 0, 0, 0, 0, 0]","[0, 0, 0, 0, 0, 0, 0, 0, 0, 0, 0, 0, 0, 0, 0, 0, 0, 0, 0, 0, 0, 0, 0, 0, 0, 0, 0, 0, 0, 0, 0, 0, 0, 0, 0, 0, 0, 0, 0, 0, 0, 0, 0, 0, 0, 0, 0]","[0, 0, 0, 0, 0, 0, 0, 0, 0, 0, 0, 0, 0, 0, 0, 0, 0, 0, 0, 0, 0, 0, 0, 0, 0, 0, 0, 0, 0, 0, 0, 0, 0, 0, 0, 0, 0, 0, 0, 0, 0, 0, 0, 0, 0, 0, 0]","[0.004587699979310855, 0.013250399992102757, 0.02719339999021031, 0.04087339999387041, 0.05458349999389611, 0.06804300000658259, 0.07458849999238737, 0.08205939998151734, 0.08872899998095818, 0.09620549998362549, 0.10990079998737201, 0.11645249999128282, 0.12435759999789298, 0.13790879998123273, 0.14496390000567771, 0.15194979999796487, 0.16672219999600202, 0.17954399998416193, 0.19342629998573102, 0.20761209999909624, 0.22169589999248274, 0.23512050000135787, 0.24899900000309572, 0.25521519998437725, 0.26315579999936745, 0.2702702999813482, 0.28385069998330437, 0.2983028999879025, 0.31136500000138767, 0.32506350000039674, 0.33213439999963157, 0.33930900000268593, 0.34661789998062886, 0.3596322999801487, 0.36692840000614524, 0.3812661999836564, 0.39446439998573624, 0.4017240999964997, 0.41531620000023395, 0.4220921999949496, 0.42970659999991767, 0.4359256000025198, 0.44293609997839667, 0.45015419999253936, 0.45744709999416955, 0.4715211000002455, 0.4852214999846183]",None,22.465812100010226,None,test,2022-09-23_11h08.13.647,GoFitts,2022.1.4,143.79571806914103,
1,0,1,0,7,0,7,0,,,,,,,,,,,,,"[251.22500085171527, -111.85257684584504]","[-268.9905902017966, 57.17571497488381]",32.3,550,"[258.0, 258.0, 260.0, 260.0, 262.0, 262.0, 262.0, 262.0, 262.0, 262.0, 262.0, 261.0, 258.0, 254.0, 247.0, 237.0, 211.0, 173.0, 152.0, 103.0, 37.0, -16.0, -89.0, -112.0, -139.0, -160.0, -174.0, -181.0, -184.0, -187.0, -190.0, -193.0, -193.0, -195.0, -198.0, -201.0, -205.0, -209.0, -216.0, -223.0, -233.0, -238.0, -241.0, -249.0, -256.0, -261.0, -264.0, -267.0, -271.0]","[-99.0, -99.0, -102.0, -104.0, -106.0, -106.0, -107.0, -107.0, -107.0, -107.0, -107.0, -107.0, -107.0, -107.0, -107.0, -106.0, -101.0, -91.0, -85.0, -71.0, -53.0, -40.0, -26.0, -21.0, -14.0, -7.0, 1.0, 5.0, 7.0, 9.0, 11.0, 12.0, 13.0, 13.0, 15.0, 16.0, 18.0, 21.0, 24.0, 28.0, 31.0, 32.0, 34.0, 35.0, 36.0, 39.0, 40.0, 41.0, 43.0]","[0, 0, 0, 0, 0, 0, 0, 0, 0, 0, 0, 0, 0, 0, 0, 0, 0, 0, 0, 0, 0, 0, 0, 0, 0, 0, 0, 0, 0, 0, 0, 0, 0, 0, 0, 0, 0, 0, 0, 0, 0, 0, 0, 0, 0, 0, 0, 0, 0]","[0, 0, 0, 0, 0, 0, 0, 0, 0, 0, 0, 0, 0, 0, 0, 0, 0, 0, 0, 0, 0, 0, 0, 0, 0, 0, 0, 0, 0, 0, 0, 0, 0, 0, 0, 0, 0, 0, 0, 0, 0, 0, 0, 0, 0, 0, 0, 0, 0]","[0, 0, 0, 0, 0, 0, 0, 0, 0, 0, 0, 0, 0, 0, 0, 0, 0, 0, 0, 0, 0, 0, 0, 0, 0, 0, 0, 0, 0, 0, 0, 0, 0, 0, 0, 0, 0, 0, 0, 0, 0, 0, 0, 0, 0, 0, 0, 0, 0]","[0.003790199989452958, 0.014745599997695535, 0.026711299986345693, 0.039934500004164875, 0.04706179999629967, 0.054620100010652095, 0.0681773999822326, 0.0816591999900993, 0.08847449999302626, 0.0956364999874495, 0.10248239999054931, 0.10984990000724792, 0.11700769999879412, 0.12350570000126027, 0.13077409999095835, 0.14449730000342242, 0.1582912000012584, 0.16548890000558458, 0.17922389999148436, 0.1935442999820225, 0.20692070000222884, 0.22677459998521954, 0.2349967999907676, 0.2488934999855701, 0.2630979999958072, 0.276905100006843, 0.2901521000021603, 0.297331599984318, 0.30448779999278486, 0.3182710999972187, 0.3319650999910664, 0.34588360000634566, 0.35999110000557266, 0.3739332999975886, 0.38875799998641014, 0.40173059998778626, 0.41582649998599663, 0.42999699999927543, 0.4437041000055615, 0.4569173000054434, 0.4640851999865845, 0.4710412999847904, 0.4850921999895945, 0.498913099989295, 0.5127254000108223, 0.5196176999888849, 0.5272568000073079, 0.5400342000066303, 0.5472811000072397]",None,22.953618100000313,None,test,2022-09-23_11h08.13.647,GoFitts,2022.1.4,143.79571806914103,
1,0,1,0,8,0,8,0,,,,,,,,,,,,,"[-268.9905902017966, 57.17571497488381]","[275.0, 0.0]",32.3,550,"[-272.0, -273.0, -273.0, -273.0, -273.0, -273.0, -273.0, -273.0, -273.0, -273.0, -273.0, -270.0, -265.0, -247.0, -218.0, -171.0, -120.0, -95.0, -31.0, 21.0, 49.0, 90.0, 118.0, 143.0, 160.0, 173.0, 185.0, 194.0, 205.0, 213.0, 221.0, 228.0, 236.0, 243.0, 250.0, 257.0, 265.0, 274.0]","[45.0, 45.0, 45.0, 45.0, 45.0, 45.0, 45.0, 45.0, 45.0, 45.0, 45.0, 45.0, 45.0, 45.0, 45.0, 45.0, 45.0, 44.0, 42.0, 39.0, 38.0, 35.0, 32.0, 31.0, 29.0, 28.0, 28.0, 27.0, 27.0, 27.0, 26.0, 26.0, 26.0, 23.0, 21.0, 18.0, 16.0, 14.0]","[0, 0, 0, 0, 0, 0, 0, 0, 0, 0, 0, 0, 0, 0, 0, 0, 0, 0, 0, 0, 0, 0, 0, 0, 0, 0, 0, 0, 0, 0, 0, 0, 0, 0, 0, 0, 0, 0]","[0, 0, 0, 0, 0, 0, 0, 0, 0, 0, 0, 0, 0, 0, 0, 0, 0, 0, 0, 0, 0, 0, 0, 0, 0, 0, 0, 0, 0, 0, 0, 0, 0, 0, 0, 0, 0, 0]","[0, 0, 0, 0, 0, 0, 0, 0, 0, 0, 0, 0, 0, 0, 0, 0, 0, 0, 0, 0, 0, 0, 0, 0, 0, 0, 0, 0, 0, 0, 0, 0, 0, 0, 0, 0, 0, 0]","[0.004112499998882413, 0.012964199995622039, 0.02009179999004118, 0.02688530000159517, 0.03375999999116175, 0.047540900006424636, 0.054585900012170896, 0.061722799990093336, 0.06854420001036488, 0.07507409999379888, 0.08250749998842366, 0.09011150000151247, 0.103898700006539, 0.11768570001004264, 0.1322206000040751, 0.14519539999309927, 0.15237560000969097, 0.1661731000058353, 0.18003240000689402, 0.1873292000091169, 0.20096779998857528, 0.21497070000623353, 0.22908210000605322, 0.24249790000612848, 0.25677740000537597, 0.2704217999998946, 0.284234299993841, 0.29805330000817776, 0.31247229999280535, 0.32576169999083504, 0.34034450000035577, 0.35386790000484325, 0.3677327999903355, 0.381449500011513, 0.39535310000064783, 0.40944109999691136, 0.42348639998817816, 0.43728650000412017]",None,23.50052850000793,None,test,2022-09-23_11h08.13.647,GoFitts,2022.1.4,143.79571806914103,
1,0,1,0,9,0,9,0,,,,,,,,,,,,,"[275.0, 0.0]","[-268.9905902017966, -57.175714974883746]",32.3,550,"[285.0, 285.0, 290.0, 298.0, 304.0, 307.0, 308.0, 308.0, 308.0, 308.0, 308.0, 308.0, 305.0, 295.0, 282.0, 270.0, 254.0, 219.0, 175.0, 128.0, 68.0, 17.0, -11.0, -36.0, -81.0, -116.0, -146.0, -164.0, -175.0, -180.0, -185.0, -185.0, -187.0, -188.0, -190.0, -192.0, -195.0, -202.0, -207.0, -213.0, -219.0, -232.0, -246.0, -257.0]","[13.0, 13.0, 12.0, 11.0, 9.0, 8.0, 8.0, 8.0, 8.0, 8.0, 8.0, 8.0, 6.0, 5.0, 2.0, 1.0, -1.0, -6.0, -10.0, -16.0, -23.0, -28.0, -33.0, -35.0, -41.0, -43.0, -47.0, -49.0, -53.0, -55.0, -55.0, -56.0, -56.0, -57.0, -58.0, -58.0, -58.0, -60.0, -62.0, -63.0, -63.0, -65.0, -66.0, -67.0]","[0, 0, 0, 0, 0, 0, 0, 0, 0, 0, 0, 0, 0, 0, 0, 0, 0, 0, 0, 0, 0, 0, 0, 0, 0, 0, 0, 0, 0, 0, 0, 0, 0, 0, 0, 0, 0, 0, 0, 0, 0, 0, 0, 0]","[0, 0, 0, 0, 0, 0, 0, 0, 0, 0, 0, 0, 0, 0, 0, 0, 0, 0, 0, 0, 0, 0, 0, 0, 0, 0, 0, 0, 0, 0, 0, 0, 0, 0, 0, 0, 0, 0, 0, 0, 0, 0, 0, 0]","[0, 0, 0, 0, 0, 0, 0, 0, 0, 0, 0, 0, 0, 0, 0, 0, 0, 0, 0, 0, 0, 0, 0, 0, 0, 0, 0, 0, 0, 0, 0, 0, 0, 0, 0, 0, 0, 0, 0, 0, 0, 0, 0, 0]","[0.004056799982208759, 0.012813099980121478, 0.026537899975664914, 0.04106679998221807, 0.054162399988854304, 0.06092239997815341, 0.06803579998086207, 0.07468219997826964, 0.08188259997405112, 0.08866269999998622, 0.09557239999412559, 0.10992209997493774, 0.12451519997557625, 0.1372626999800559, 0.1443744999996852, 0.15176829998381436, 0.16532629998982884, 0.17954339997959323, 0.19309019998763688, 0.20732879999559373, 0.2208014999923762, 0.2279516999842599, 0.23505889999796636, 0.24900819998583756, 0.26260229997569695, 0.2766916999826208, 0.29070579999824986, 0.303889499977231, 0.311447699990822, 0.3249338999739848, 0.33209849998820573, 0.33871939999517053, 0.3456683999975212, 0.3526702999952249, 0.3598259999998845, 0.3672888999863062, 0.3808607999817468, 0.38679619997856207, 0.39453779999166727, 0.40312179998727515, 0.41581749997567385, 0.4298795999784488, 0.44366819999413565, 0.4574568999814801]",None,23.938036700012162,None,test,2022-09-23_11h08.13.647,GoFitts,2022.1.4,143.79571806914103,
1,0,1,0,10,0,10,0,,,,,,,,,,,,,"[-268.9905902017966, -57.175714974883746]","[251.22500085171524, 111.85257684584504]",32.3,550,"[-270.0, -270.0, -275.0, -278.0, -281.0, -284.0, -285.0, -285.0, -285.0, -285.0, -285.0, -285.0, -285.0, -282.0, -275.0, -261.0, -233.0, -200.0, -143.0, -104.0, -64.0, 2.0, 67.0, 122.0, 149.0, 160.0, 182.0, 188.0, 198.0, 203.0, 208.0, 213.0, 219.0, 223.0, 226.0, 229.0, 234.0, 237.0, 239.0, 244.0, 248.0, 249.0, 251.0, 252.0, 252.0, 252.0, 252.0, 252.0, 253.0, 255.0, 257.0, 258.0, 259.0, 259.0, 260.0, 259.0, 258.0, 257.0, 254.0]","[-68.0, -68.0, -68.0, -68.0, -68.0, -68.0, -68.0, -68.0, -68.0, -68.0, -68.0, -68.0, -68.0, -65.0, -59.0, -52.0, -38.0, -24.0, -2.0, 13.0, 30.0, 58.0, 88.0, 116.0, 131.0, 137.0, 149.0, 153.0, 158.0, 160.0, 161.0, 161.0, 161.0, 161.0, 159.0, 159.0, 159.0, 159.0, 158.0, 158.0, 158.0, 158.0, 158.0, 157.0, 157.0, 157.0, 157.0, 157.0, 156.0, 153.0, 149.0, 147.0, 144.0, 142.0, 139.0, 135.0, 131.0, 129.0, 124.0]","[0, 0, 0, 0, 0, 0, 0, 0, 0, 0, 0, 0, 0, 0, 0, 0, 0, 0, 0, 0, 0, 0, 0, 0, 0, 0, 0, 0, 0, 0, 0, 0, 0, 0, 0, 0, 0, 0, 0, 0, 0, 0, 0, 0, 0, 0, 0, 0, 0, 0, 0, 0, 0, 0, 0, 0, 0, 0, 0]","[0, 0, 0, 0, 0, 0, 0, 0, 0, 0, 0, 0, 0, 0, 0, 0, 0, 0, 0, 0, 0, 0, 0, 0, 0, 0, 0, 0, 0, 0, 0, 0, 0, 0, 0, 0, 0, 0, 0, 0, 0, 0, 0, 0, 0, 0, 0, 0, 0, 0, 0, 0, 0, 0, 0, 0, 0, 0, 0]","[0, 0, 0, 0, 0, 0, 0, 0, 0, 0, 0, 0, 0, 0, 0, 0, 0, 0, 0, 0, 0, 0, 0, 0, 0, 0, 0, 0, 0, 0, 0, 0, 0, 0, 0, 0, 0, 0, 0, 0, 0, 0, 0, 0, 0, 0, 0, 0, 0, 0, 0, 0, 0, 0, 0, 0, 0, 0, 0]","[0.004781100025866181, 0.01218170000356622, 0.019069300004048273, 0.026399000023957342, 0.039706300012767315, 0.05390340002486482, 0.06750000000465661, 0.07444770002621226, 0.08155460000853054, 0.08852990000741556, 0.09489700000267476, 0.10249010002007708, 0.10949530001380481, 0.12365400002454408, 0.1371606000175234, 0.15110880002612248, 0.1650668000220321, 0.17855940002482384, 0.18580289999954402, 0.19323309999890625, 0.20695420002448373, 0.22134499999810942, 0.23661400002310984, 0.24829850002424791, 0.25580600000103004, 0.2692296000022907, 0.27641240000957623, 0.2903981000126805, 0.30374670002493076, 0.3178187000157777, 0.3316181000263896, 0.34522519999882206, 0.3524955000029877, 0.3594584000238683, 0.3664771000039764, 0.37357080000219867, 0.38039590002154, 0.3862510000180919, 0.39406760002020746, 0.4011430000246037, 0.40733210000325926, 0.4147557000105735, 0.42229909999878146, 0.43548150002607144, 0.44331630002125166, 0.45635780002339743, 0.4630851000256371, 0.47063840000191703, 0.4847879000008106, 0.49823680002009496, 0.5055487000208814, 0.5191389000101481, 0.5261104000092018, 0.5400618000130635, 0.5538176000118256, 0.5677721000101883, 0.5745681000116747, 0.588757000019541, 0.5954109000158496]",None,24.395977600011975,None,test,2022-09-23_11h08.13.647,GoFitts,2022.1.4,143.79571806914103,
1,0,1,0,11,0,11,0,,,,,,,,,,,,,"[251.22500085171524, 111.85257684584504]","[-222.47967345311054, -161.64094438043008]",32.3,550,"[252.0, 252.0, 251.0, 249.0, 247.0, 246.0, 245.0, 245.0, 244.0, 243.0, 240.0, 235.0, 232.0, 220.0, 203.0, 178.0, 142.0, 122.0, 98.0, 58.0, 6.0, -25.0, -56.0, -81.0, -92.0, -101.0, -116.0, -126.0, -133.0, -140.0, -143.0, -149.0, -153.0, -160.0, -167.0, -172.0, -178.0, -186.0, -190.0, -193.0, -200.0, -203.0, -210.0]","[120.0, 119.0, 117.0, 114.0, 112.0, 112.0, 111.0, 110.0, 109.0, 109.0, 108.0, 106.0, 105.0, 101.0, 94.0, 82.0, 62.0, 51.0, 39.0, 17.0, -9.0, -26.0, -43.0, -58.0, -65.0, -70.0, -81.0, -89.0, -96.0, -102.0, -106.0, -110.0, -113.0, -119.0, -123.0, -127.0, -132.0, -137.0, -139.0, -142.0, -147.0, -149.0, -154.0]","[0, 0, 0, 0, 0, 0, 0, 0, 0, 0, 0, 0, 0, 0, 0, 0, 0, 0, 0, 0, 0, 0, 0, 0, 0, 0, 0, 0, 0, 0, 0, 0, 0, 0, 0, 0, 0, 0, 0, 0, 0, 0, 0]","[0, 0, 0, 0, 0, 0, 0, 0, 0, 0, 0, 0, 0, 0, 0, 0, 0, 0, 0, 0, 0, 0, 0, 0, 0, 0, 0, 0, 0, 0, 0, 0, 0, 0, 0, 0, 0, 0, 0, 0, 0, 0, 0]","[0, 0, 0, 0, 0, 0, 0, 0, 0, 0, 0, 0, 0, 0, 0, 0, 0, 0, 0, 0, 0, 0, 0, 0, 0, 0, 0, 0, 0, 0, 0, 0, 0, 0, 0, 0, 0, 0, 0, 0, 0, 0, 0]","[0.0041452000150457025, 0.014966099988669157, 0.027272200008155778, 0.03413750001345761, 0.04085630000918172, 0.04774629999883473, 0.054874800000106916, 0.06200199999148026, 0.0758409000118263, 0.08981070001027547, 0.10335570000461303, 0.110851300007198, 0.12473390001105145, 0.1396369000140112, 0.15236820001155138, 0.16589860001113266, 0.17319279999355786, 0.18027410001377575, 0.19405180000467226, 0.2085709999955725, 0.2215777999954298, 0.23558939999202266, 0.249079500004882, 0.2562292999937199, 0.26374769999529235, 0.2771812000137288, 0.29107100001419894, 0.30508540000300854, 0.31902399999671616, 0.3328227000019979, 0.3499422000022605, 0.3607078999921214, 0.3747585999954026, 0.3882662999967579, 0.3954612000088673, 0.41007620000164025, 0.42308979999506846, 0.4302261999982875, 0.43703880000975914, 0.4502734999987297, 0.4576711000117939, 0.4723058000090532, 0.48582930001430213]",None,24.994933800015133,None,test,2022-09-23_11h08.13.647,GoFitts,2022.1.4,143.79571806914103,
1,0,1,0,12,0,12,0,,,,,,,,,,,,,"[-222.47967345311054, -161.64094438043008]","[184.01091674868601, 204.36482700628338]",32.3,550,"[-219.0, -219.0, -221.0, -226.0, -226.0, -226.0, -226.0, -226.0, -226.0, -226.0, -225.0, -219.0, -209.0, -194.0, -183.0, -156.0, -113.0, -64.0, -10.0, 41.0, 76.0, 103.0, 114.0, 122.0, 126.0, 129.0, 131.0, 134.0, 136.0, 139.0, 143.0, 147.0, 151.0, 157.0, 162.0, 165.0, 169.0]","[-159.0, -159.0, -161.0, -164.0, -165.0, -165.0, -165.0, -165.0, -165.0, -165.0, -165.0, -158.0, -145.0, -124.0, -109.0, -75.0, -27.0, 25.0, 76.0, 119.0, 146.0, 168.0, 177.0, 184.0, 187.0, 188.0, 189.0, 189.0, 190.0, 190.0, 192.0, 193.0, 195.0, 196.0, 198.0, 199.0, 200.0]","[0, 0, 0, 0, 0, 0, 0, 0, 0, 0, 0, 0, 0, 0, 0, 0, 0, 0, 0, 0, 0, 0, 0, 0, 0, 0, 0, 0, 0, 0, 0, 0, 0, 0, 0, 0, 0]","[0, 0, 0, 0, 0, 0, 0, 0, 0, 0, 0, 0, 0, 0, 0, 0, 0, 0, 0, 0, 0, 0, 0, 0, 0, 0, 0, 0, 0, 0, 0, 0, 0, 0, 0, 0, 0]","[0, 0, 0, 0, 0, 0, 0, 0, 0, 0, 0, 0, 0, 0, 0, 0, 0, 0, 0, 0, 0, 0, 0, 0, 0, 0, 0, 0, 0, 0, 0, 0, 0, 0, 0, 0, 0]","[0.0043234000040683895, 0.013153999985661358, 0.026988199999323115, 0.040510699996957555, 0.047742599999764934, 0.06111169999348931, 0.06811240001115948, 0.07527929998468608, 0.0809509000100661, 0.0893285000056494, 0.1030112000007648, 0.11716619998333044, 0.1305825999879744, 0.1379775000095833, 0.15287319998606108, 0.1657431999919936, 0.17938270000740886, 0.1936132999835536, 0.2075413999846205, 0.2215872000087984, 0.23552429999108426, 0.24913109999033622, 0.2633322000037879, 0.27683789998991415, 0.2905849000089802, 0.29773150000255555, 0.3034306000045035, 0.31120759999612346, 0.31830789998639375, 0.33215969998855144, 0.33916219999082386, 0.353441399987787, 0.36718559998553246, 0.3805770000035409, 0.3878750999865588, 0.4014743999869097, 0.415378999983659]",None,25.479367899999488,None,test,2022-09-23_11h08.13.647,GoFitts,2022.1.4,143.79571806914103,
1,0,1,0,13,0,13,0,,,,,,,,,,,,,"[184.01091674868601, 204.36482700628338]","[-137.5000000000001, -238.1569860407206]",32.3,550,"[171.0, 171.0, 172.0, 172.0, 172.0, 173.0, 174.0, 176.0, 178.0, 179.0, 181.0, 181.0, 181.0, 181.0, 181.0, 181.0, 181.0, 178.0, 171.0, 162.0, 140.0, 113.0, 95.0, 53.0, 12.0, -22.0, -44.0, -63.0, -75.0, -88.0, -97.0, -105.0, -115.0, -120.0, -122.0, -123.0, -123.0, -124.0, -125.0]","[202.0, 202.0, 203.0, 203.0, 203.0, 203.0, 205.0, 205.0, 207.0, 208.0, 208.0, 208.0, 208.0, 208.0, 208.0, 208.0, 206.0, 198.0, 184.0, 171.0, 139.0, 101.0, 79.0, 23.0, -31.0, -74.0, -103.0, -126.0, -142.0, -158.0, -170.0, -181.0, -198.0, -209.0, -216.0, -219.0, -222.0, -226.0, -231.0]","[0, 0, 0, 0, 0, 0, 0, 0, 0, 0, 0, 0, 0, 0, 0, 0, 0, 0, 0, 0, 0, 0, 0, 0, 0, 0, 0, 0, 0, 0, 0, 0, 0, 0, 0, 0, 0, 0, 0]","[0, 0, 0, 0, 0, 0, 0, 0, 0, 0, 0, 0, 0, 0, 0, 0, 0, 0, 0, 0, 0, 0, 0, 0, 0, 0, 0, 0, 0, 0, 0, 0, 0, 0, 0, 0, 0, 0, 0]","[0, 0, 0, 0, 0, 0, 0, 0, 0, 0, 0, 0, 0, 0, 0, 0, 0, 0, 0, 0, 0, 0, 0, 0, 0, 0, 0, 0, 0, 0, 0, 0, 0, 0, 0, 0, 0, 0, 0]","[0.003934700012905523, 0.013058700016699731, 0.02005180000560358, 0.033877800015034154, 0.040765700017800555, 0.05503270000917837, 0.06925580001552589, 0.08275240001967177, 0.09615430000121705, 0.10338790001696907, 0.11040860001230612, 0.11735860002227128, 0.13072230000398122, 0.13772359999711625, 0.14456430001882836, 0.15208120000897907, 0.16624590000719763, 0.17979409999679774, 0.18683050002437085, 0.20091840001987293, 0.21463060000678524, 0.22154050000244752, 0.23542760001146235, 0.24929020000854507, 0.26284040001337416, 0.2700316999980714, 0.2771329999959562, 0.2831890000088606, 0.29081740000401624, 0.2978028000216, 0.30493050001678057, 0.31886490000761114, 0.3331346000195481, 0.34602650001761504, 0.3534116000228096, 0.3605865999998059, 0.3741679000086151, 0.38823440001579, 0.40205130001413636]",None,25.896246799995424,None,test,2022-09-23_11h08.13.647,GoFitts,2022.1.4,143.79571806914103,
1,0,1,0,14,0,14,0,,,,,,,,,,,,,"[-137.5000000000001, -238.1569860407206]","[84.97967345311055, 261.5405419811672]",32.3,550,"[-129.0, -129.0, -131.0, -132.0, -133.0, -133.0, -133.0, -133.0, -133.0, -133.0, -133.0, -133.0, -132.0, -131.0, -126.0, -121.0, -109.0, -96.0, -74.0, -47.0, -29.0, -5.0, 12.0, 30.0, 53.0, 67.0, 73.0, 76.0, 77.0]","[-236.0, -237.0, -240.0, -245.0, -246.0, -248.0, -249.0, -249.0, -249.0, -249.0, -249.0, -249.0, -246.0, -242.0, -226.0, -212.0, -178.0, -129.0, -60.0, 15.0, 53.0, 98.0, 126.0, 157.0, 196.0, 223.0, 236.0, 247.0, 250.0]","[0, 0, 0, 0, 0, 0, 0, 0, 0, 0, 0, 0, 0, 0, 0, 0, 0, 0, 0, 0, 0, 0, 0, 0, 0, 0, 0, 0, 0]","[0, 0, 0, 0, 0, 0, 0, 0, 0, 0, 0, 0, 0, 0, 0, 0, 0, 0, 0, 0, 0, 0, 0, 0, 0, 0, 0, 0, 0]","[0, 0, 0, 0, 0, 0, 0, 0, 0, 0, 0, 0, 0, 0, 0, 0, 0, 0, 0, 0, 0, 0, 0, 0, 0, 0, 0, 0, 0]","[0.004867500014370307, 0.01336560002528131, 0.026580900012049824, 0.033770800015190616, 0.041805600019870326, 0.055205500015290454, 0.06829090000246651, 0.08220120001351461, 0.0891330000013113, 0.09581270001945086, 0.10299280000617728, 0.10979430002043955, 0.11717150002368726, 0.13108930000453256, 0.1381260000052862, 0.15173890002188273, 0.16575350001221523, 0.1799184000119567, 0.19311350001953542, 0.20027480000862852, 0.20759330000146292, 0.21441100002266467, 0.22158300000592135, 0.23511080001480877, 0.24906230001943186, 0.2631364999979269, 0.2765186000033282, 0.283648800017545, 0.29108170000836253]",None,26.299109400017187,None,test,2022-09-23_11h08.13.647,GoFitts,2022.1.4,143.79571806914103,
1,0,1,0,,,,,,,,,,,,,,,,,,,,,,,,,,,,,,test,2022-09-23_11h08.13.647,GoFitts,2022.1.4,143.79571806914103,
2,0,2,0,0,0,0,0,,,,,,,26.60458660000586,None,return,0.4454641999909654,26.60458660000586,None,"[0, 0]","[-36.584962143678666, 348.0826633788957]",20,700,"[0.0, 0.0, 0.0, 0.0, 0.0, 0.0, 0.0, 0.0, 0.0, 0.0, 0.0, 0.0, -1.0, -3.0, -5.0, -9.0, -11.0, -13.0, -15.0, -16.0, -18.0, -20.0, -21.0, -23.0, -24.0, -26.0, -28.0, -34.0, -40.0, -45.0, -48.0, -53.0, -58.0, -66.0, -77.0, -85.0, -92.0, -94.0, -95.0, -97.0, -97.0, -97.0, -98.0, -98.0, -98.0, -98.0, -98.0, -98.0, -98.0, -98.0, -98.0, -98.0, -98.0, -98.0, -97.0, -95.0, -92.0, -89.0, -84.0, -76.0, -71.0, -66.0, -60.0, -51.0, -44.0, -40.0, -39.0, -39.0, -38.0, -38.0, -38.0, -38.0, -38.0, -38.0, -38.0, -38.0, -38.0, -38.0, -38.0, -38.0, -38.0, -38.0, -38.0, -39.0, -39.0, -39.0]","[0.0, 0.0, 0.0, 0.0, 0.0, 0.0, 0.0, 0.0, 0.0, 0.0, 1.0, 2.0, 4.0, 9.0, 14.0, 19.0, 21.0, 22.0, 24.0, 26.0, 26.0, 27.0, 27.0, 28.0, 28.0, 28.0, 29.0, 29.0, 29.0, 29.0, 29.0, 29.0, 29.0, 28.0, 29.0, 35.0, 52.0, 66.0, 84.0, 105.0, 129.0, 176.0, 220.0, 261.0, 280.0, 313.0, 321.0, 329.0, 337.0, 346.0, 350.0, 351.0, 351.0, 351.0, 351.0, 351.0, 351.0, 351.0, 351.0, 354.0, 355.0, 356.0, 359.0, 361.0, 362.0, 362.0, 362.0, 362.0, 362.0, 362.0, 362.0, 362.0, 362.0, 362.0, 362.0, 362.0, 362.0, 362.0, 362.0, 362.0, 362.0, 362.0, 362.0, 362.0, 360.0, 357.0]","[0, 0, 0, 0, 0, 0, 0, 0, 0, 0, 0, 0, 0, 0, 0, 0, 0, 0, 0, 0, 0, 0, 0, 0, 0, 0, 0, 0, 0, 0, 0, 0, 0, 0, 0, 0, 0, 0, 0, 0, 0, 0, 0, 0, 0, 0, 0, 0, 0, 0, 0, 0, 0, 0, 0, 0, 0, 0, 0, 0, 0, 0, 0, 0, 0, 0, 0, 0, 0, 0, 0, 0, 0, 0, 0, 0, 0, 0, 0, 0, 0, 0, 0, 0, 0, 0]","[0, 0, 0, 0, 0, 0, 0, 0, 0, 0, 0, 0, 0, 0, 0, 0, 0, 0, 0, 0, 0, 0, 0, 0, 0, 0, 0, 0, 0, 0, 0, 0, 0, 0, 0, 0, 0, 0, 0, 0, 0, 0, 0, 0, 0, 0, 0, 0, 0, 0, 0, 0, 0, 0, 0, 0, 0, 0, 0, 0, 0, 0, 0, 0, 0, 0, 0, 0, 0, 0, 0, 0, 0, 0, 0, 0, 0, 0, 0, 0, 0, 0, 0, 0, 0, 0]","[0, 0, 0, 0, 0, 0, 0, 0, 0, 0, 0, 0, 0, 0, 0, 0, 0, 0, 0, 0, 0, 0, 0, 0, 0, 0, 0, 0, 0, 0, 0, 0, 0, 0, 0, 0, 0, 0, 0, 0, 0, 0, 0, 0, 0, 0, 0, 0, 0, 0, 0, 0, 0, 0, 0, 0, 0, 0, 0, 0, 0, 0, 0, 0, 0, 0, 0, 0, 0, 0, 0, 0, 0, 0, 0, 0, 0, 0, 0, 0, 0, 0, 0, 0, 0, 0]","[0.004502900002989918, 0.015553200006252155, 0.022164499998325482, 0.029508500010706484, 0.036156199988909066, 0.04335660001379438, 0.04973729999619536, 0.05714109999826178, 0.06354259999352507, 0.07112330000381917, 0.08487349998904392, 0.0929654999927152, 0.10597649999544956, 0.12007309999899007, 0.13357710000127554, 0.1401643000135664, 0.14740499999606982, 0.15448950001155026, 0.16151259999605827, 0.16840520000550896, 0.17539859999669716, 0.18170799998915754, 0.18941789999371395, 0.19611489999806508, 0.20327110000653192, 0.21034059999510646, 0.22397409999393858, 0.23793500001193024, 0.24466880000545643, 0.25174509998760186, 0.2588287999969907, 0.2658037999935914, 0.272886999999173, 0.2869057999923825, 0.30060439999215305, 0.31407329998910427, 0.3213763000094332, 0.32825449999654666, 0.3350567999877967, 0.34211450000293553, 0.3560658000060357, 0.3698597000038717, 0.38332660001469776, 0.3906379000109155, 0.40464729999075644, 0.4115915999864228, 0.4175040000118315, 0.42582420000690036, 0.43980110000120476, 0.4533248000079766, 0.46685930000967346, 0.4738165999879129, 0.48758519999682903, 0.49475849998998456, 0.5014799000055064, 0.5085270999989007, 0.5152986999892164, 0.5228149000031408, 0.5365258000092581, 0.5429256999923382, 0.5499882000149228, 0.5576280000095721, 0.5721747000061441, 0.5853969999880064, 0.5986815000069328, 0.6060033999965526, 0.6127753999899141, 0.6195301999978255, 0.6268412999925204, 0.6330916000006255, 0.6409184999938589, 0.6547763000125997, 0.6684319000050891, 0.6750431999971624, 0.6816969999927096, 0.6890188000106718, 0.6960247000097297, 0.7029577000066638, 0.7096125000098255, 0.7164917000045534, 0.7236523999890778, 0.7304536000010557, 0.7375846999930218, 0.7516239999968093, 0.7585390000022016, 0.7657135000044946]",None,27.06261330001871,None,test,2022-09-23_11h08.13.647,GoFitts,2022.1.4,143.79571806914103,
2,0,2,0,1,0,1,0,,,,,,,,,,,,,"[-36.584962143678666, 348.0826633788957]","[108.15594803123153, -332.8697807033038]",20,700,"[-39.0, -39.0, -40.0, -40.0, -38.0, -36.0, -33.0, -32.0, -29.0, -24.0, -17.0, -11.0, -5.0, -1.0, 6.0, 10.0, 12.0, 14.0, 15.0, 16.0, 18.0, 21.0, 24.0, 27.0, 29.0, 31.0, 34.0, 37.0, 39.0, 42.0, 48.0, 53.0, 56.0, 58.0, 59.0, 61.0, 63.0, 65.0, 66.0, 68.0, 69.0, 70.0, 71.0, 72.0, 73.0, 73.0, 75.0, 76.0, 78.0, 81.0, 83.0, 86.0, 87.0, 87.0, 90.0, 91.0, 92.0, 95.0, 97.0, 98.0, 100.0, 102.0, 103.0]","[353.0, 353.0, 347.0, 333.0, 314.0, 288.0, 270.0, 254.0, 231.0, 187.0, 144.0, 95.0, 55.0, 23.0, -8.0, -37.0, -52.0, -64.0, -79.0, -91.0, -103.0, -127.0, -149.0, -163.0, -170.0, -176.0, -184.0, -191.0, -196.0, -203.0, -216.0, -226.0, -230.0, -234.0, -238.0, -242.0, -246.0, -248.0, -252.0, -254.0, -257.0, -259.0, -261.0, -263.0, -265.0, -267.0, -269.0, -271.0, -275.0, -278.0, -282.0, -285.0, -288.0, -291.0, -294.0, -299.0, -301.0, -307.0, -313.0, -316.0, -320.0, -323.0, -326.0]","[0, 0, 0, 0, 0, 0, 0, 0, 0, 0, 0, 0, 0, 0, 0, 0, 0, 0, 0, 0, 0, 0, 0, 0, 0, 0, 0, 0, 0, 0, 0, 0, 0, 0, 0, 0, 0, 0, 0, 0, 0, 0, 0, 0, 0, 0, 0, 0, 0, 0, 0, 0, 0, 0, 0, 0, 0, 0, 0, 0, 0, 0, 0]","[0, 0, 0, 0, 0, 0, 0, 0, 0, 0, 0, 0, 0, 0, 0, 0, 0, 0, 0, 0, 0, 0, 0, 0, 0, 0, 0, 0, 0, 0, 0, 0, 0, 0, 0, 0, 0, 0, 0, 0, 0, 0, 0, 0, 0, 0, 0, 0, 0, 0, 0, 0, 0, 0, 0, 0, 0, 0, 0, 0, 0, 0, 0]","[0, 0, 0, 0, 0, 0, 0, 0, 0, 0, 0, 0, 0, 0, 0, 0, 0, 0, 0, 0, 0, 0, 0, 0, 0, 0, 0, 0, 0, 0, 0, 0, 0, 0, 0, 0, 0, 0, 0, 0, 0, 0, 0, 0, 0, 0, 0, 0, 0, 0, 0, 0, 0, 0, 0, 0, 0, 0, 0, 0, 0, 0, 0]","[0.003920799994375557, 0.013406099984422326, 0.027312599995639175, 0.04041069999220781, 0.05443300001206808, 0.0610228999867104, 0.06800900000962429, 0.07572920000529848, 0.0892327000037767, 0.10326800000621006, 0.1168887999956496, 0.1306730000069365, 0.14482270000735298, 0.15874839999014512, 0.17247640001005493, 0.17921010000281967, 0.18637630000011995, 0.1924556999874767, 0.19978689998970367, 0.20709250000072643, 0.22116009998717345, 0.2354648000036832, 0.2482534000009764, 0.25573949998943135, 0.26264219998847693, 0.2694898000045214, 0.27644330001203343, 0.2830095000099391, 0.290493400010746, 0.30523790000006557, 0.3182657999859657, 0.3253273000009358, 0.33177550000254996, 0.3391334000043571, 0.34580099998856895, 0.35311490000458434, 0.35900309999124147, 0.3665562999958638, 0.37374039998394437, 0.38053570000920445, 0.38752849999582395, 0.3943978000024799, 0.401737400010461, 0.40852840000297874, 0.414869300002465, 0.4218283999944106, 0.4295423000003211, 0.4431832999980543, 0.45717370000784285, 0.47095389998867176, 0.48498119998839684, 0.4982839000003878, 0.505702199996449, 0.5202010000066366, 0.5334360999986529, 0.5418064999976195, 0.5547827999980655, 0.5683030000072904, 0.5758323000045493, 0.5893855000031181, 0.6031585999880917, 0.6166983000002801, 0.6302472999959718]",None,27.827120900008595,None,test,2022-09-23_11h08.13.647,GoFitts,2022.1.4,143.79571806914103,
2,0,2,0,2,0,2,0,,,,,,,,,,,,,"[108.15594803123153, -332.8697807033038]","[-174.99999999999991, 303.10889132455355]",20,700,"[105.0, 105.0, 107.0, 108.0, 108.0, 108.0, 108.0, 108.0, 108.0, 108.0, 108.0, 108.0, 108.0, 108.0, 108.0, 108.0, 107.0, 100.0, 87.0, 78.0, 41.0, 4.0, -43.0, -71.0, -104.0, -150.0, -182.0, -195.0, -205.0, -212.0, -217.0, -222.0, -224.0, -224.0, -224.0, -224.0, -224.0, -224.0, -224.0, -224.0, -224.0, -224.0, -224.0, -224.0, -224.0, -224.0, -221.0, -218.0, -215.0, -212.0, -209.0, -207.0, -204.0, -200.0, -197.0, -195.0, -192.0, -191.0, -189.0, -189.0, -189.0, -188.0, -188.0, -188.0, -188.0, -188.0, -188.0, -188.0, -188.0, -188.0, -188.0, -188.0, -188.0, -188.0, -188.0, -187.0, -184.0]","[-329.0, -329.0, -330.0, -331.0, -331.0, -331.0, -331.0, -331.0, -331.0, -331.0, -331.0, -331.0, -331.0, -331.0, -329.0, -324.0, -307.0, -271.0, -220.0, -185.0, -81.0, 14.0, 104.0, 142.0, 178.0, 220.0, 243.0, 250.0, 255.0, 258.0, 261.0, 262.0, 262.0, 262.0, 262.0, 262.0, 262.0, 262.0, 262.0, 262.0, 262.0, 262.0, 263.0, 264.0, 267.0, 273.0, 280.0, 286.0, 289.0, 292.0, 294.0, 295.0, 297.0, 299.0, 302.0, 304.0, 307.0, 308.0, 310.0, 310.0, 311.0, 311.0, 312.0, 312.0, 312.0, 312.0, 312.0, 312.0, 312.0, 312.0, 312.0, 312.0, 312.0, 312.0, 312.0, 312.0, 306.0]","[0, 0, 0, 0, 0, 0, 0, 0, 0, 0, 0, 0, 0, 0, 0, 0, 0, 0, 0, 0, 0, 0, 0, 0, 0, 0, 0, 0, 0, 0, 0, 0, 0, 0, 0, 0, 0, 0, 0, 0, 0, 0, 0, 0, 0, 0, 0, 0, 0, 0, 0, 0, 0, 0, 0, 0, 0, 0, 0, 0, 0, 0, 0, 0, 0, 0, 0, 0, 0, 0, 0, 0, 0, 0, 0, 0, 0]","[0, 0, 0, 0, 0, 0, 0, 0, 0, 0, 0, 0, 0, 0, 0, 0, 0, 0, 0, 0, 0, 0, 0, 0, 0, 0, 0, 0, 0, 0, 0, 0, 0, 0, 0, 0, 0, 0, 0, 0, 0, 0, 0, 0, 0, 0, 0, 0, 0, 0, 0, 0, 0, 0, 0, 0, 0, 0, 0, 0, 0, 0, 0, 0, 0, 0, 0, 0, 0, 0, 0, 0, 0, 0, 0, 0, 0]","[0, 0, 0, 0, 0, 0, 0, 0, 0, 0, 0, 0, 0, 0, 0, 0, 0, 0, 0, 0, 0, 0, 0, 0, 0, 0, 0, 0, 0, 0, 0, 0, 0, 0, 0, 0, 0, 0, 0, 0, 0, 0, 0, 0, 0, 0, 0, 0, 0, 0, 0, 0, 0, 0, 0, 0, 0, 0, 0, 0, 0, 0, 0, 0, 0, 0, 0, 0, 0, 0, 0, 0, 0, 0, 0, 0, 0]","[0.004048600007081404, 0.013500700006261468, 0.027134799980558455, 0.033561899996129796, 0.04076450000866316, 0.0477062999852933, 0.054652899998473004, 0.06151579998550005, 0.06815979999373667, 0.07544210000196472, 0.0820559999847319, 0.08929849998094141, 0.09620669999276288, 0.10324199998285621, 0.11060859999270178, 0.12453649999224581, 0.1382473999983631, 0.15202439998392947, 0.15908339997986332, 0.17407529999036342, 0.18685949998325668, 0.20050649999757297, 0.20768319998751394, 0.21484989998862147, 0.2286547999829054, 0.24227129999781027, 0.24889119999716058, 0.2562882000056561, 0.2632932999986224, 0.27043000000412576, 0.27749819998280145, 0.29092850000597537, 0.29786809999495745, 0.31183140000212006, 0.31816759999492206, 0.3254038000013679, 0.33212279999861494, 0.339178099995479, 0.3461234999995213, 0.35322160000214353, 0.36022659999434836, 0.3671498000039719, 0.37433940000482835, 0.3813529000035487, 0.3954673999978695, 0.40959189998102374, 0.4232311999949161, 0.4368268999969587, 0.44383319999906234, 0.45034700000542216, 0.4577280000085011, 0.4647551999951247, 0.4716511000005994, 0.4785321999806911, 0.4866283999872394, 0.499123999994481, 0.5062831999966875, 0.5131963999883737, 0.5202477999846451, 0.5271013999881689, 0.5337634999887086, 0.5410511000081897, 0.5483595999830868, 0.5620486999978311, 0.5754761999996845, 0.5830444000021089, 0.5967220999882556, 0.6031543999852147, 0.6106347999884747, 0.6168520000064746, 0.6246565000037663, 0.6380071000021417, 0.6452806000015698, 0.6516340999805834, 0.6590443000022788, 0.6737782999989577, 0.6872402000008151]",None,28.45881460001692,None,test,2022-09-23_11h08.13.647,GoFitts,2022.1.4,143.79571806914103,
2,0,2,0,3,0,3,0,,,,,,,,,,,,,"[-174.99999999999991, 303.10889132455355]","[234.19571222560046, -260.1006889170879]",20,700,"[-175.0, -175.0, -167.0, -150.0, -122.0, -88.0, -50.0, -8.0, 13.0, 51.0, 72.0, 103.0, 118.0, 131.0, 154.0, 171.0, 180.0, 187.0, 192.0, 203.0, 208.0, 210.0, 212.0, 213.0, 215.0, 216.0, 216.0, 218.0, 218.0, 219.0, 220.0, 222.0, 223.0, 225.0, 226.0, 227.0, 229.0, 230.0, 232.0, 232.0, 235.0, 237.0, 239.0, 240.0, 242.0, 242.0]","[294.0, 294.0, 282.0, 259.0, 227.0, 186.0, 143.0, 95.0, 71.0, 26.0, 3.0, -39.0, -58.0, -74.0, -108.0, -132.0, -144.0, -153.0, -160.0, -174.0, -179.0, -184.0, -190.0, -195.0, -199.0, -199.0, -201.0, -202.0, -203.0, -204.0, -204.0, -206.0, -207.0, -209.0, -211.0, -212.0, -214.0, -215.0, -217.0, -219.0, -224.0, -229.0, -234.0, -238.0, -244.0, -254.0]","[0, 0, 0, 0, 0, 0, 0, 0, 0, 0, 0, 0, 0, 0, 0, 0, 0, 0, 0, 0, 0, 0, 0, 0, 0, 0, 0, 0, 0, 0, 0, 0, 0, 0, 0, 0, 0, 0, 0, 0, 0, 0, 0, 0, 0, 0]","[0, 0, 0, 0, 0, 0, 0, 0, 0, 0, 0, 0, 0, 0, 0, 0, 0, 0, 0, 0, 0, 0, 0, 0, 0, 0, 0, 0, 0, 0, 0, 0, 0, 0, 0, 0, 0, 0, 0, 0, 0, 0, 0, 0, 0, 0]","[0, 0, 0, 0, 0, 0, 0, 0, 0, 0, 0, 0, 0, 0, 0, 0, 0, 0, 0, 0, 0, 0, 0, 0, 0, 0, 0, 0, 0, 0, 0, 0, 0, 0, 0, 0, 0, 0, 0, 0, 0, 0, 0, 0, 0, 0]","[0.00424629999906756, 0.012990299990633503, 0.02667749999091029, 0.04105199998593889, 0.054456899990327656, 0.06915060000028461, 0.08231959998374805, 0.08925439999438822, 0.10279679999803193, 0.11047949999920093, 0.12399459999869578, 0.13048749999143183, 0.13756309999735095, 0.15166299999691546, 0.1654211999848485, 0.1722497999726329, 0.17924289999064058, 0.18651519998093136, 0.20277639999403618, 0.2137724999920465, 0.22217329998966306, 0.2351763999904506, 0.24899249998270534, 0.2624035999760963, 0.2694521999801509, 0.2764209999877494, 0.2835233999940101, 0.2895237999910023, 0.29701029998250306, 0.3041742999921553, 0.3110277999949176, 0.3252656999975443, 0.33931359997950494, 0.3528692999971099, 0.3599563999741804, 0.36666829997557215, 0.3739439999917522, 0.3803594999772031, 0.3877193999942392, 0.4013099999865517, 0.4156788999971468, 0.42880669998703524, 0.4367095999768935, 0.45052259997464716, 0.46388319999095984, 0.47125409997534007]",None,29.146083800005727,None,test,2022-09-23_11h08.13.647,GoFitts,2022.1.4,143.79571806914103,
2,0,2,0,4,0,4,0,,,,,,,,,,,,,"[234.19571222560046, -260.1006889170879]","[-283.15594803123156, 205.72483830236564]",20,700,"[243.0, 243.0, 243.0, 244.0, 244.0, 244.0, 244.0, 244.0, 244.0, 244.0, 244.0, 244.0, 244.0, 244.0, 244.0, 244.0, 242.0, 237.0, 229.0, 210.0, 201.0, 182.0, 160.0, 138.0, 103.0, 65.0, 23.0, -63.0, -138.0, -193.0, -229.0, -240.0, -251.0, -257.0, -261.0, -261.0, -262.0, -262.0, -262.0, -262.0, -262.0, -262.0, -262.0, -262.0, -262.0, -263.0, -264.0, -264.0, -264.0, -265.0, -266.0, -266.0, -266.0, -266.0, -267.0, -267.0, -268.0, -269.0, -269.0, -269.0, -269.0, -269.0, -269.0, -271.0, -273.0, -274.0, -275.0, -276.0, -279.0]","[-262.0, -262.0, -268.0, -274.0, -277.0, -278.0, -279.0, -279.0, -279.0, -279.0, -279.0, -279.0, -279.0, -279.0, -279.0, -279.0, -275.0, -265.0, -246.0, -212.0, -195.0, -166.0, -138.0, -110.0, -66.0, -29.0, 7.0, 74.0, 126.0, 162.0, 185.0, 193.0, 200.0, 204.0, 208.0, 208.0, 208.0, 208.0, 208.0, 208.0, 208.0, 208.0, 206.0, 205.0, 204.0, 203.0, 201.0, 201.0, 199.0, 198.0, 198.0, 196.0, 195.0, 194.0, 193.0, 192.0, 191.0, 191.0, 191.0, 191.0, 191.0, 191.0, 191.0, 191.0, 191.0, 193.0, 193.0, 195.0, 198.0]","[0, 0, 0, 0, 0, 0, 0, 0, 0, 0, 0, 0, 0, 0, 0, 0, 0, 0, 0, 0, 0, 0, 0, 0, 0, 0, 0, 0, 0, 0, 0, 0, 0, 0, 0, 0, 0, 0, 0, 0, 0, 0, 0, 0, 0, 0, 0, 0, 0, 0, 0, 0, 0, 0, 0, 0, 0, 0, 0, 0, 0, 0, 0, 0, 0, 0, 0, 0, 0]","[0, 0, 0, 0, 0, 0, 0, 0, 0, 0, 0, 0, 0, 0, 0, 0, 0, 0, 0, 0, 0, 0, 0, 0, 0, 0, 0, 0, 0, 0, 0, 0, 0, 0, 0, 0, 0, 0, 0, 0, 0, 0, 0, 0, 0, 0, 0, 0, 0, 0, 0, 0, 0, 0, 0, 0, 0, 0, 0, 0, 0, 0, 0, 0, 0, 0, 0, 0, 0]","[0, 0, 0, 0, 0, 0, 0, 0, 0, 0, 0, 0, 0, 0, 0, 0, 0, 0, 0, 0, 0, 0, 0, 0, 0, 0, 0, 0, 0, 0, 0, 0, 0, 0, 0, 0, 0, 0, 0, 0, 0, 0, 0, 0, 0, 0, 0, 0, 0, 0, 0, 0, 0, 0, 0, 0, 0, 0, 0, 0, 0, 0, 0, 0, 0, 0, 0, 0, 0]","[0.00415729999076575, 0.013009200018132105, 0.0265621000144165, 0.04004230001010001, 0.04715100000612438, 0.05414819999714382, 0.06099420000100508, 0.06812139999237843, 0.074729899992235, 0.08182600000873208, 0.08827300000120886, 0.09560339999734424, 0.10246560000814497, 0.1094990000128746, 0.11641270000836812, 0.13107380000292324, 0.14508600000408478, 0.1584969999967143, 0.1721599000156857, 0.1787262000143528, 0.18643689999589697, 0.19344030000502244, 0.1994925000180956, 0.20723900001030415, 0.2139960000058636, 0.22125010000308976, 0.23512110000592656, 0.2489355000143405, 0.2627873000164982, 0.2765097999945283, 0.282502599991858, 0.28984810001566075, 0.2976769999950193, 0.311074400000507, 0.3181883000070229, 0.32466919999569654, 0.3320665000064764, 0.34568270001909696, 0.35266639999463223, 0.35972860001493245, 0.3664813000068534, 0.3732179999933578, 0.3805479000147898, 0.3875213999999687, 0.39451179999741726, 0.4077990000077989, 0.41496660001575947, 0.4219965999945998, 0.4292041000153404, 0.43621330001042224, 0.4431054000160657, 0.45021800001268275, 0.4570524000155274, 0.46368499999516644, 0.47081790000083856, 0.4777287000033539, 0.4848130000173114, 0.4912070000136737, 0.4984333000029437, 0.5051534000085667, 0.5121588000038173, 0.5197765000048093, 0.5333933999936562, 0.547334700007923, 0.5541896999930032, 0.5612464000005275, 0.5686456999974325, 0.582135600008769, 0.5958871000038926]",None,29.618449600005988,None,test,2022-09-23_11h08.13.647,GoFitts,2022.1.4,143.79571806914103,
2,0,2,0,5,0,5,0,,,,,,,,,,,,,"[-283.15594803123156, 205.72483830236564]","[319.74091017491037, -142.35782507653005]",20,700,"[-281.0, -281.0, -283.0, -284.0, -284.0, -284.0, -285.0, -285.0, -285.0, -285.0, -285.0, -285.0, -285.0, -285.0, -284.0, -283.0, -276.0, -258.0, -230.0, -190.0, -135.0, -91.0, -6.0, 81.0, 162.0, 195.0, 248.0, 267.0, 285.0, 303.0, 310.0, 315.0, 317.0, 318.0, 319.0, 319.0, 319.0, 319.0, 319.0, 319.0, 319.0, 319.0, 319.0, 319.0, 319.0, 319.0, 319.0, 319.0, 318.0, 317.0, 316.0, 315.0, 315.0, 314.0, 313.0, 312.0, 311.0, 311.0, 310.0, 309.0, 308.0, 308.0, 308.0, 308.0, 308.0, 308.0, 308.0, 308.0, 308.0, 308.0, 308.0, 308.0, 308.0, 308.0, 308.0, 308.0, 308.0, 308.0, 308.0, 308.0, 308.0, 308.0, 308.0, 308.0, 308.0, 307.0, 305.0, 303.0, 301.0, 298.0, 296.0, 295.0, 294.0, 293.0, 293.0, 293.0, 293.0, 294.0, 296.0, 298.0, 300.0, 302.0, 302.0, 303.0, 305.0, 306.0, 307.0, 310.0, 311.0, 315.0]","[203.0, 203.0, 206.0, 208.0, 209.0, 211.0, 212.0, 212.0, 212.0, 212.0, 212.0, 212.0, 212.0, 212.0, 212.0, 212.0, 208.0, 200.0, 186.0, 166.0, 140.0, 119.0, 79.0, 35.0, -8.0, -27.0, -57.0, -69.0, -79.0, -92.0, -96.0, -99.0, -103.0, -105.0, -106.0, -107.0, -108.0, -109.0, -109.0, -109.0, -109.0, -110.0, -111.0, -111.0, -112.0, -114.0, -115.0, -118.0, -119.0, -120.0, -121.0, -122.0, -123.0, -124.0, -125.0, -126.0, -127.0, -129.0, -129.0, -131.0, -131.0, -133.0, -134.0, -136.0, -136.0, -138.0, -138.0, -140.0, -141.0, -141.0, -141.0, -141.0, -141.0, -141.0, -141.0, -141.0, -141.0, -141.0, -141.0, -141.0, -141.0, -141.0, -141.0, -141.0, -141.0, -140.0, -139.0, -138.0, -136.0, -134.0, -133.0, -132.0, -132.0, -132.0, -132.0, -132.0, -132.0, -132.0, -131.0, -131.0, -131.0, -131.0, -131.0, -131.0, -131.0, -132.0, -133.0, -134.0, -134.0, -135.0]","[0, 0, 0, 0, 0, 0, 0, 0, 0, 0, 0, 0, 0, 0, 0, 0, 0, 0, 0, 0, 0, 0, 0, 0, 0, 0, 0, 0, 0, 0, 0, 0, 0, 0, 0, 0, 0, 0, 0, 0, 0, 0, 0, 0, 0, 0, 0, 0, 0, 0, 0, 0, 0, 0, 0, 0, 0, 0, 0, 0, 0, 0, 0, 0, 0, 0, 0, 0, 0, 0, 0, 0, 0, 0, 0, 0, 0, 0, 0, 0, 0, 0, 0, 0, 0, 0, 0, 0, 0, 0, 0, 0, 0, 0, 0, 0, 0, 0, 0, 0, 0, 0, 0, 0, 0, 0, 0, 0, 0, 0]","[0, 0, 0, 0, 0, 0, 0, 0, 0, 0, 0, 0, 0, 0, 0, 0, 0, 0, 0, 0, 0, 0, 0, 0, 0, 0, 0, 0, 0, 0, 0, 0, 0, 0, 0, 0, 0, 0, 0, 0, 0, 0, 0, 0, 0, 0, 0, 0, 0, 0, 0, 0, 0, 0, 0, 0, 0, 0, 0, 0, 0, 0, 0, 0, 0, 0, 0, 0, 0, 0, 0, 0, 0, 0, 0, 0, 0, 0, 0, 0, 0, 0, 0, 0, 0, 0, 0, 0, 0, 0, 0, 0, 0, 0, 0, 0, 0, 0, 0, 0, 0, 0, 0, 0, 0, 0, 0, 0, 0, 0]","[0, 0, 0, 0, 0, 0, 0, 0, 0, 0, 0, 0, 0, 0, 0, 0, 0, 0, 0, 0, 0, 0, 0, 0, 0, 0, 0, 0, 0, 0, 0, 0, 0, 0, 0, 0, 0, 0, 0, 0, 0, 0, 0, 0, 0, 0, 0, 0, 0, 0, 0, 0, 0, 0, 0, 0, 0, 0, 0, 0, 0, 0, 0, 0, 0, 0, 0, 0, 0, 0, 0, 0, 0, 0, 0, 0, 0, 0, 0, 0, 0, 0, 0, 0, 0, 0, 0, 0, 0, 0, 0, 0, 0, 0, 0, 0, 0, 0, 0, 0, 0, 0, 0, 0, 0, 0, 0, 0, 0, 0]","[0.003925400000298396, 0.014056300016818568, 0.02637700000195764, 0.03446320001967251, 0.047503800014965236, 0.061405699991155416, 0.0682958000106737, 0.07486839999910444, 0.08207110001239926, 0.08897680000518449, 0.09609959999215789, 0.1029456999967806, 0.1095404000079725, 0.11691370001062751, 0.12542120000580326, 0.13842649999423884, 0.15271550000761636, 0.1659732999978587, 0.17963470000540838, 0.19324940000660717, 0.20046379999257624, 0.21431810001377016, 0.22856479999609292, 0.24185200000647455, 0.2491998000186868, 0.2626717000093777, 0.26983010000549257, 0.27783540001837537, 0.29067200000281446, 0.2976980000094045, 0.3044172000081744, 0.31121970000094734, 0.31824170000618324, 0.3250533000100404, 0.3325967999990098, 0.3390586000168696, 0.34605270001338795, 0.35316400000010617, 0.3597192000015639, 0.36670760001288727, 0.374098900007084, 0.3878125000046566, 0.3938024000090081, 0.40153629999258555, 0.40842069999780506, 0.41629829999874346, 0.4296143999963533, 0.43666020000819117, 0.45032639999408275, 0.4573965000163298, 0.4640774000145029, 0.471148800017545, 0.4776459000131581, 0.48514209999120794, 0.49865049999789335, 0.5058015999966301, 0.5127011000004131, 0.5201705000072252, 0.5338147000002209, 0.5405387000064366, 0.5476860000053421, 0.5609087999910116, 0.5682211999956053, 0.5748734000080731, 0.582278599991696, 0.5890269000083208, 0.5962252000172157, 0.6032482000009622, 0.6096262999926694, 0.6166519999969751, 0.6237869000178762, 0.6312214999925345, 0.6444760000158567, 0.6516384000133257, 0.6580663000058848, 0.6653003999963403, 0.6723428000113927, 0.6790521999937482, 0.6861368000099901, 0.6929838999931235, 0.7000388000160456, 0.7070952999929432, 0.7140034000040032, 0.7209384000161663, 0.7276024000020698, 0.7350909000087995, 0.7421533000015188, 0.7489385000080802, 0.7561120000027586, 0.7631088999914937, 0.7699745999998413, 0.7835414000146557, 0.7905343000020366, 0.7972595000173897, 0.8043062000069767, 0.8107941999915056, 0.8185042999975849, 0.8329538000107277, 0.846474699996179, 0.8601323000038974, 0.8668790000083391, 0.8741231000167318, 0.880782399995951, 0.8878623000055086, 0.8946547000086866, 0.9016556999995373, 0.9081554000149481, 0.9153630000073463, 0.9297172999940813, 0.9434190000174567]",None,30.21695770000224,None,test,2022-09-23_11h08.13.647,GoFitts,2022.1.4,143.79571806914103,
2,0,2,0,6,0,6,0,,,,,,,,,,,,,"[319.74091017491037, -142.35782507653005]","[-342.351660256832, 72.76909178621575]",20,700,"[320.0, 320.0, 321.0, 323.0, 325.0, 327.0, 329.0, 329.0, 330.0, 330.0, 330.0, 330.0, 330.0, 330.0, 331.0, 331.0, 331.0, 330.0, 328.0, 321.0, 308.0, 272.0, 220.0, 135.0, 41.0, -7.0, -103.0, -174.0, -229.0, -265.0, -286.0, -290.0, -293.0, -294.0, -294.0, -294.0, -294.0, -294.0, -294.0, -294.0, -294.0, -294.0, -294.0, -294.0, -294.0, -294.0, -295.0, -295.0, -295.0, -295.0, -295.0, -295.0, -295.0, -295.0, -296.0, -297.0, -298.0, -299.0, -302.0, -309.0, -311.0, -314.0, -317.0, -322.0, -324.0, -324.0, -326.0, -327.0, -328.0, -331.0, -332.0, -333.0, -334.0, -334.0, -334.0, -334.0, -335.0]","[-136.0, -136.0, -136.0, -138.0, -138.0, -140.0, -140.0, -141.0, -141.0, -141.0, -141.0, -141.0, -141.0, -142.0, -142.0, -142.0, -142.0, -143.0, -143.0, -144.0, -144.0, -137.0, -123.0, -101.0, -73.0, -56.0, -28.0, -10.0, 2.0, 9.0, 15.0, 16.0, 17.0, 17.0, 17.0, 17.0, 17.0, 17.0, 17.0, 17.0, 17.0, 17.0, 17.0, 18.0, 18.0, 20.0, 21.0, 22.0, 23.0, 25.0, 27.0, 32.0, 34.0, 37.0, 40.0, 45.0, 48.0, 52.0, 59.0, 68.0, 71.0, 73.0, 76.0, 78.0, 78.0, 78.0, 78.0, 79.0, 79.0, 79.0, 79.0, 79.0, 79.0, 79.0, 79.0, 79.0, 79.0]","[0, 0, 0, 0, 0, 0, 0, 0, 0, 0, 0, 0, 0, 0, 0, 0, 0, 0, 0, 0, 0, 0, 0, 0, 0, 0, 0, 0, 0, 0, 0, 0, 0, 0, 0, 0, 0, 0, 0, 0, 0, 0, 0, 0, 0, 0, 0, 0, 0, 0, 0, 0, 0, 0, 0, 0, 0, 0, 0, 0, 0, 0, 0, 0, 0, 0, 0, 0, 0, 0, 0, 0, 0, 0, 0, 0, 0]","[0, 0, 0, 0, 0, 0, 0, 0, 0, 0, 0, 0, 0, 0, 0, 0, 0, 0, 0, 0, 0, 0, 0, 0, 0, 0, 0, 0, 0, 0, 0, 0, 0, 0, 0, 0, 0, 0, 0, 0, 0, 0, 0, 0, 0, 0, 0, 0, 0, 0, 0, 0, 0, 0, 0, 0, 0, 0, 0, 0, 0, 0, 0, 0, 0, 0, 0, 0, 0, 0, 0, 0, 0, 0, 0, 0, 0]","[0, 0, 0, 0, 0, 0, 0, 0, 0, 0, 0, 0, 0, 0, 0, 0, 0, 0, 0, 0, 0, 0, 0, 0, 0, 0, 0, 0, 0, 0, 0, 0, 0, 0, 0, 0, 0, 0, 0, 0, 0, 0, 0, 0, 0, 0, 0, 0, 0, 0, 0, 0, 0, 0, 0, 0, 0, 0, 0, 0, 0, 0, 0, 0, 0, 0, 0, 0, 0, 0, 0, 0, 0, 0, 0, 0, 0]","[0.003936799999792129, 0.013341300014872104, 0.027104000007966533, 0.04063920001499355, 0.05478919998859055, 0.0684995999909006, 0.0755529000016395, 0.08928089999244548, 0.096383700001752, 0.10449420000077225, 0.11818540000240318, 0.13106780001544394, 0.13807069999165833, 0.14495310001075268, 0.15148279999266379, 0.1586683999921661, 0.16536049998831004, 0.17370660000597127, 0.18700340000214055, 0.20068650000030175, 0.21505810000235215, 0.22914609999861568, 0.24229289998766035, 0.25595680001424626, 0.2630731000099331, 0.27693260001251474, 0.2910668000113219, 0.30462249999982305, 0.3186396000091918, 0.33234409999568015, 0.33892650000052527, 0.34638010000344366, 0.35328099998878315, 0.3602231999975629, 0.36668619999545626, 0.37380770000163466, 0.3805229999998119, 0.3878885000012815, 0.3946046000055503, 0.40154140000231564, 0.40853049998986535, 0.41501630001585, 0.42252200000802986, 0.429509900015546, 0.43635480001103133, 0.4435851000016555, 0.45008290000259876, 0.4573009999876376, 0.46393860000534914, 0.47284130001207814, 0.4853444999898784, 0.4923346000141464, 0.49816899999859743, 0.505983400013065, 0.5130566000007093, 0.5191340000019409, 0.527183199999854, 0.5406867999990936, 0.5546132000163198, 0.5614608000032604, 0.5686365000146907, 0.5757266000146046, 0.5894269999989774, 0.5960902000078931, 0.6030562999949325, 0.610104199993657, 0.6169465999992099, 0.6241091999982018, 0.6380299000011291, 0.6517508999968413, 0.6587048000073992, 0.6654813000059221, 0.6725535000150558, 0.6793621999968309, 0.6864499000075739, 0.6932993000082206, 0.7000019999977667]",None,31.160199400008423,None,test,2022-09-23_11h08.13.647,GoFitts,2022.1.4,143.79571806914103,
2,0,2,0,7,0,7,0,,,,,,,,,,,,,"[-342.351660256832, 72.76909178621575]","[350.0, 0.0]",20,700,"[-335.0, -335.0, -336.0, -336.0, -336.0, -336.0, -336.0, -337.0, -337.0, -337.0, -337.0, -337.0, -337.0, -337.0, -337.0, -337.0, -337.0, -337.0, -335.0, -333.0, -330.0, -325.0, -311.0, -281.0, -230.0, -165.0, -78.0, 11.0, 59.0, 150.0, 199.0, 278.0, 336.0, 364.0, 399.0, 422.0, 429.0, 439.0, 441.0, 442.0, 442.0, 442.0, 442.0, 442.0, 442.0, 442.0, 442.0, 442.0, 440.0, 439.0, 437.0, 430.0, 423.0, 410.0, 397.0, 385.0, 378.0, 368.0, 363.0, 355.0]","[79.0, 79.0, 79.0, 79.0, 79.0, 79.0, 79.0, 79.0, 79.0, 78.0, 78.0, 77.0, 77.0, 77.0, 77.0, 77.0, 77.0, 76.0, 76.0, 76.0, 75.0, 74.0, 72.0, 70.0, 68.0, 65.0, 63.0, 58.0, 57.0, 52.0, 51.0, 46.0, 40.0, 37.0, 32.0, 26.0, 24.0, 21.0, 20.0, 19.0, 19.0, 19.0, 19.0, 19.0, 19.0, 19.0, 19.0, 19.0, 17.0, 17.0, 15.0, 13.0, 10.0, 7.0, 6.0, 5.0, 4.0, 3.0, 3.0, 3.0]","[0, 0, 0, 0, 0, 0, 0, 0, 0, 0, 0, 0, 0, 0, 0, 0, 0, 0, 0, 0, 0, 0, 0, 0, 0, 0, 0, 0, 0, 0, 0, 0, 0, 0, 0, 0, 0, 0, 0, 0, 0, 0, 0, 0, 0, 0, 0, 0, 0, 0, 0, 0, 0, 0, 0, 0, 0, 0, 0, 0]","[0, 0, 0, 0, 0, 0, 0, 0, 0, 0, 0, 0, 0, 0, 0, 0, 0, 0, 0, 0, 0, 0, 0, 0, 0, 0, 0, 0, 0, 0, 0, 0, 0, 0, 0, 0, 0, 0, 0, 0, 0, 0, 0, 0, 0, 0, 0, 0, 0, 0, 0, 0, 0, 0, 0, 0, 0, 0, 0, 0]","[0, 0, 0, 0, 0, 0, 0, 0, 0, 0, 0, 0, 0, 0, 0, 0, 0, 0, 0, 0, 0, 0, 0, 0, 0, 0, 0, 0, 0, 0, 0, 0, 0, 0, 0, 0, 0, 0, 0, 0, 0, 0, 0, 0, 0, 0, 0, 0, 0, 0, 0, 0, 0, 0, 0, 0, 0, 0, 0, 0]","[0.003601500007789582, 0.013120200019329786, 0.020172800024738535, 0.03399070000159554, 0.0408750000060536, 0.047595800017006695, 0.05465950001962483, 0.061551100021461025, 0.06877460001851432, 0.0821989000251051, 0.0895594000176061, 0.09624959999928251, 0.10312559999874793, 0.11055100001976825, 0.11656780002522282, 0.12415540000074543, 0.13091220002388582, 0.13829970001825131, 0.14539640001021326, 0.1521935000200756, 0.15981810001539998, 0.17359310001484118, 0.18732640001690015, 0.20108270001946948, 0.2146911000018008, 0.2289329000050202, 0.24262870001257397, 0.24978330000885762, 0.26299090002430603, 0.27028019999852404, 0.2849428000045009, 0.2980219000019133, 0.3051932000089437, 0.3190347000199836, 0.3325570000160951, 0.33973279999918304, 0.35356360001605935, 0.36083740001777187, 0.37454990000696853, 0.3882078000169713, 0.3950683000148274, 0.4019090000074357, 0.4088843000063207, 0.41575559999910183, 0.42289870002423413, 0.4294174000096973, 0.43691330001456663, 0.45053960001678206, 0.46443059999728575, 0.4720885000133421, 0.4859731000033207, 0.4999004999990575, 0.5137532000080682, 0.5276013000111561, 0.5408480000041891, 0.5478661000088323, 0.5620659000123851, 0.5689091000240296, 0.5826129000051878, 0.5895996000035666]",None,31.861148600000888,None,test,2022-09-23_11h08.13.647,GoFitts,2022.1.4,143.79571806914103,
2,0,2,0,8,0,8,0,,,,,,,,,,,,,"[350.0, 0.0]","[-342.351660256832, -72.76909178621567]",20,700,"[350.0, 350.0, 348.0, 348.0, 348.0, 348.0, 348.0, 348.0, 348.0, 348.0, 348.0, 348.0, 348.0, 348.0, 348.0, 348.0, 346.0, 344.0, 341.0, 332.0, 313.0, 293.0, 260.0, 206.0, 140.0, 66.0, 2.0, -58.0, -112.0, -160.0, -181.0, -200.0, -228.0, -250.0, -263.0, -271.0, -280.0, -284.0, -290.0, -295.0, -298.0, -301.0, -302.0, -302.0, -302.0, -303.0, -305.0, -306.0, -307.0, -309.0, -316.0, -322.0, -330.0, -335.0]","[3.0, 3.0, 3.0, 3.0, 3.0, 3.0, 3.0, 3.0, 3.0, 3.0, 3.0, 3.0, 3.0, 3.0, 3.0, 3.0, 3.0, 3.0, 2.0, 1.0, -1.0, -4.0, -8.0, -15.0, -21.0, -29.0, -35.0, -41.0, -47.0, -50.0, -52.0, -54.0, -56.0, -57.0, -58.0, -58.0, -59.0, -59.0, -59.0, -59.0, -59.0, -59.0, -59.0, -59.0, -59.0, -59.0, -59.0, -59.0, -59.0, -61.0, -65.0, -67.0, -71.0, -72.0]","[0, 0, 0, 0, 0, 0, 0, 0, 0, 0, 0, 0, 0, 0, 0, 0, 0, 0, 0, 0, 0, 0, 0, 0, 0, 0, 0, 0, 0, 0, 0, 0, 0, 0, 0, 0, 0, 0, 0, 0, 0, 0, 0, 0, 0, 0, 0, 0, 0, 0, 0, 0, 0, 0]","[0, 0, 0, 0, 0, 0, 0, 0, 0, 0, 0, 0, 0, 0, 0, 0, 0, 0, 0, 0, 0, 0, 0, 0, 0, 0, 0, 0, 0, 0, 0, 0, 0, 0, 0, 0, 0, 0, 0, 0, 0, 0, 0, 0, 0, 0, 0, 0, 0, 0, 0, 0, 0, 0]","[0, 0, 0, 0, 0, 0, 0, 0, 0, 0, 0, 0, 0, 0, 0, 0, 0, 0, 0, 0, 0, 0, 0, 0, 0, 0, 0, 0, 0, 0, 0, 0, 0, 0, 0, 0, 0, 0, 0, 0, 0, 0, 0, 0, 0, 0, 0, 0, 0, 0, 0, 0, 0, 0]","[0.004180599993560463, 0.014411800017114729, 0.026782000000821427, 0.032923299993854016, 0.040334499994060025, 0.04777900001499802, 0.055436399998143315, 0.06892960000550374, 0.08244030000059865, 0.08885400000144728, 0.09638319999794476, 0.10316020000027493, 0.11010849999729544, 0.11731080000754446, 0.12351120001403615, 0.13131140000768937, 0.13810909999301657, 0.14525370000046678, 0.15886110000428744, 0.1728949999960605, 0.1821811000118032, 0.19411460001720116, 0.20764470001449808, 0.22163090002140962, 0.2359232000017073, 0.24965070001780987, 0.2633909000142012, 0.2771086000138894, 0.29071339999791235, 0.2977637000149116, 0.3048908000055235, 0.3193666000152007, 0.33270520000951365, 0.3465589999977965, 0.360401300014928, 0.37392780001391657, 0.3818017000157852, 0.39564460000838153, 0.40893200002028607, 0.4174007000110578, 0.43007040000520647, 0.4436582000053022, 0.4570936000091024, 0.4646194000088144, 0.47855560001335107, 0.49205369999981485, 0.4990778999926988, 0.5056349000078626, 0.5132470999960788, 0.5286288000061177, 0.5412019999930635, 0.5552067999960855, 0.5686667000118177, 0.5753856000083033]",None,32.45304429999669,None,test,2022-09-23_11h08.13.647,GoFitts,2022.1.4,143.79571806914103,
2,0,2,0,9,0,9,0,,,,,,,,,,,,,"[-342.351660256832, -72.76909178621567]","[319.7409101749103, 142.35782507653005]",20,700,"[-340.0, -341.0, -343.0, -345.0, -346.0, -346.0, -346.0, -346.0, -346.0, -346.0, -346.0, -346.0, -346.0, -346.0, -345.0, -343.0, -339.0, -335.0, -328.0, -319.0, -294.0, -246.0, -190.0, -131.0, -79.0, -48.0, -23.0, -2.0, 35.0, 63.0, 91.0, 105.0, 115.0, 124.0, 139.0, 154.0, 168.0, 179.0, 193.0, 200.0, 206.0, 212.0, 217.0, 224.0, 229.0, 238.0, 243.0, 245.0, 248.0, 250.0, 252.0, 254.0, 257.0, 260.0, 263.0, 267.0, 271.0, 275.0, 285.0, 291.0, 294.0, 297.0, 299.0, 303.0, 305.0, 307.0, 308.0, 308.0, 309.0, 309.0, 309.0, 309.0, 309.0, 309.0, 309.0, 310.0]","[-74.0, -74.0, -75.0, -76.0, -76.0, -76.0, -76.0, -76.0, -76.0, -76.0, -76.0, -76.0, -76.0, -76.0, -75.0, -73.0, -71.0, -67.0, -63.0, -58.0, -44.0, -22.0, 5.0, 30.0, 51.0, 60.0, 67.0, 73.0, 82.0, 89.0, 93.0, 96.0, 97.0, 99.0, 101.0, 103.0, 105.0, 108.0, 112.0, 113.0, 115.0, 118.0, 118.0, 121.0, 123.0, 126.0, 128.0, 128.0, 129.0, 130.0, 131.0, 131.0, 132.0, 132.0, 133.0, 134.0, 135.0, 136.0, 138.0, 139.0, 139.0, 140.0, 140.0, 141.0, 141.0, 141.0, 141.0, 141.0, 141.0, 141.0, 142.0, 142.0, 142.0, 142.0, 142.0, 143.0]","[0, 0, 0, 0, 0, 0, 0, 0, 0, 0, 0, 0, 0, 0, 0, 0, 0, 0, 0, 0, 0, 0, 0, 0, 0, 0, 0, 0, 0, 0, 0, 0, 0, 0, 0, 0, 0, 0, 0, 0, 0, 0, 0, 0, 0, 0, 0, 0, 0, 0, 0, 0, 0, 0, 0, 0, 0, 0, 0, 0, 0, 0, 0, 0, 0, 0, 0, 0, 0, 0, 0, 0, 0, 0, 0, 0]","[0, 0, 0, 0, 0, 0, 0, 0, 0, 0, 0, 0, 0, 0, 0, 0, 0, 0, 0, 0, 0, 0, 0, 0, 0, 0, 0, 0, 0, 0, 0, 0, 0, 0, 0, 0, 0, 0, 0, 0, 0, 0, 0, 0, 0, 0, 0, 0, 0, 0, 0, 0, 0, 0, 0, 0, 0, 0, 0, 0, 0, 0, 0, 0, 0, 0, 0, 0, 0, 0, 0, 0, 0, 0, 0, 0]","[0, 0, 0, 0, 0, 0, 0, 0, 0, 0, 0, 0, 0, 0, 0, 0, 0, 0, 0, 0, 0, 0, 0, 0, 0, 0, 0, 0, 0, 0, 0, 0, 0, 0, 0, 0, 0, 0, 0, 0, 0, 0, 0, 0, 0, 0, 0, 0, 0, 0, 0, 0, 0, 0, 0, 0, 0, 0, 0, 0, 0, 0, 0, 0, 0, 0, 0, 0, 0, 0, 0, 0, 0, 0, 0, 0]","[0.004052700009196997, 0.01466050001909025, 0.027336500003002584, 0.04130460001761094, 0.05457050001132302, 0.06833650000044145, 0.07566990001942031, 0.08207500001299195, 0.08936070001800545, 0.09571110000251792, 0.10337040000013076, 0.10990900002070703, 0.11683509999420494, 0.12392519999411888, 0.13061980000929907, 0.13826629999675788, 0.14487829999416135, 0.1519892000069376, 0.15915120000136085, 0.17283389999647625, 0.18757160002132878, 0.20078820001799613, 0.2147611000109464, 0.22826180001720786, 0.23536020002211444, 0.24226160001126118, 0.2495958000072278, 0.2630406999960542, 0.2774428999982774, 0.29073690000222996, 0.29740490001859143, 0.3049100000062026, 0.31243000001995824, 0.3258586000010837, 0.3397830000030808, 0.35387099999934435, 0.3675193999952171, 0.3809841000183951, 0.38831280000158586, 0.39516030001686886, 0.40203620001557283, 0.40835990000050515, 0.4156477000215091, 0.4232559000083711, 0.43713649999699555, 0.4508417000179179, 0.456675900000846, 0.4641667999967467, 0.47125870001036674, 0.4782294000033289, 0.48519910001778044, 0.49218289999407716, 0.49887959999614395, 0.5060498999955598, 0.5131003000133205, 0.5199260000081267, 0.5272799000085797, 0.5418612000066787, 0.5548306000127923, 0.5619384000019636, 0.56776850001188, 0.5761094000190496, 0.5893782000057399, 0.596026500017615, 0.603774200018961, 0.6172696000139695, 0.6241290000034496, 0.6304768999980297, 0.6378873000212479, 0.644730800006073, 0.6518242000020109, 0.6588694000092801, 0.6652656999940518, 0.6725508999952581, 0.6792030000069644, 0.6865627999941353]",None,33.029409100010525,None,test,2022-09-23_11h08.13.647,GoFitts,2022.1.4,143.79571806914103,
