key_resp_4.keys,key_resp_4.rt,mouse_2.x,mouse_2.y,mouse_2.leftButton,mouse_2.midButton,mouse_2.rightButton,mouse_2.time,cont.keys,cont.rt,retry_testing.thisRepN,retry_testing.thisTrialN,retry_testing.thisN,retry_testing.thisIndex,retry_testing.ran,受試者ID,date,expName,psychopyVersion,OS,frameRate,key_resp.keys,key_resp.rt,key_resp_3.keys,key_resp_3.rt,from,to,w,a,sequence_loop.thisN,mouse.x,mouse.y,mouse.leftButton,mouse.midButton,mouse.rightButton,mouse.time,key_resp_2.keys,trial_loop.thisRepN,trial_loop.thisTrialN,trial_loop.thisN,trial_loop.thisIndex,trial_loop.ran,sequence_loop.thisRepN,sequence_loop.thisTrialN,sequence_loop.thisIndex,sequence_loop.ran
return,4.2768,"[21.93048095703125,21.93048095703125,21.93048095703125,21.93048095703125,21.93048095703125,21.93048095703125,21.93048095703125,21.93048095703125,21.93048095703125,21.93048095703125,21.93048095703125,21.93048095703125,21.93048095703125,21.93048095703125,21.93048095703125,21.93048095703125,21.93048095703125,21.93048095703125,21.93048095703125,21.93048095703125,21.93048095703125,21.93048095703125,21.93048095703125,21.93048095703125,21.93048095703125,21.93048095703125,21.93048095703125,21.93048095703125,21.93048095703125,21.93048095703125,21.93048095703125,21.93048095703125,21.93048095703125,21.93048095703125,21.93048095703125,21.93048095703125,21.93048095703125,21.93048095703125,21.93048095703125,21.93048095703125,21.93048095703125,21.93048095703125,21.93048095703125,21.93048095703125,21.93048095703125,21.93048095703125,21.93048095703125,21.93048095703125,21.93048095703125,21.93048095703125,21.93048095703125,21.93048095703125,21.93048095703125,21.93048095703125,21.93048095703125,21.93048095703125,21.93048095703125,21.93048095703125,21.93048095703125,21.93048095703125,21.93048095703125,21.93048095703125,21.93048095703125,21.93048095703125,21.93048095703125,21.93048095703125,21.93048095703125,21.93048095703125,21.93048095703125,22.7652587890625,29.443603515625,46.97393798828125,75.3565673828125,112.92181396484375,154.66094970703125,199.73919677734375,229.7913818359375,249.826171875,262.347900390625,264.852294921875,265.68701171875,267.3565673828125,269.026123046875,269.026123046875,270.6956787109375,273.2000732421875,278.208740234375,284.886962890625,289.8958740234375,293.23486328125,297.4088134765625,299.9130859375,304.9217529296875,313.2698974609375,319.1131591796875,322.452392578125,324.121826171875,324.95654296875,327.4609375,331.635009765625,336.6435546875,339.14794921875,344.9913330078125,346.660888671875,347.4957275390625,350.0001220703125,351.669677734375,351.669677734375,351.669677734375,351.669677734375,351.669677734375,351.669677734375,351.669677734375,351.669677734375,351.669677734375,351.669677734375,351.669677734375,351.669677734375,351.669677734375,351.669677734375,351.669677734375,351.669677734375,349.165283203125,337.478271484375,320.7828369140625,294.9044189453125,242.3131103515625,207.25225830078125,178.03485107421875,159.66961669921875,143.80877685546875,133.7913818359375,126.2783203125,121.26959228515625,118.7652587890625,114.59136962890625,109.5826416015625,104.573974609375,102.06964111328125,101.23486328125,101.23486328125,101.23486328125,99.56524658203125,96.22613525390625,88.71307373046875,81.2000732421875,71.18267822265625,57.82611083984375,43.63482666015625,23.60003662109375,15.252197265625,10.2435302734375,4.4000244140625,1.89569091796875,1.89569091796875,1.89569091796875,1.89569091796875,0.22613525390625,-1.44329833984375,-2.27813720703125,-3.1129150390625,-3.1129150390625,-3.1129150390625,-3.1129150390625,-3.1129150390625,-3.1129150390625,-3.1129150390625,-3.1129150390625,-3.1129150390625,-3.1129150390625,-5.61737060546875,-13.965087890625,-60.7130126953125,-116.6434326171875,-182.5911865234375,-246.8695068359375,-297.7912292480469,-328.67822265625,-342.0347595214844,-343.7043151855469,-343.7043151855469,-343.7043151855469,-344.5390930175781,-344.5390930175781,-344.5390930175781,-345.37384033203125,-346.20867919921875,-346.20867919921875,-346.20867919921875,-346.20867919921875,-346.20867919921875,-346.20867919921875,-346.20867919921875,-346.20867919921875,-346.20867919921875,-346.20867919921875,-346.20867919921875,-346.20867919921875,-340.3652038574219,-328.67822265625,-308.6434631347656,-273.58258056640625,-225.1651611328125,-170.90423583984375,-122.4869384765625,-78.243408203125,-61.54779052734375,-54.86944580078125,-52.36517333984375,-52.36517333984375,-50.69561767578125,-49.02606201171875,-47.3564453125,-45.68682861328125,-40.67822265625,-34.83465576171875,-24.81732177734375,-13.965087890625,-6.4521484375]","[-84.9305419921875,-84.9305419921875,-84.9305419921875,-84.9305419921875,-84.9305419921875,-84.9305419921875,-84.9305419921875,-84.9305419921875,-84.9305419921875,-84.9305419921875,-84.9305419921875,-84.9305419921875,-84.9305419921875,-84.9305419921875,-84.9305419921875,-84.9305419921875,-84.9305419921875,-84.9305419921875,-84.9305419921875,-84.9305419921875,-84.9305419921875,-84.9305419921875,-84.9305419921875,-84.9305419921875,-84.9305419921875,-84.9305419921875,-84.9305419921875,-84.9305419921875,-84.9305419921875,-84.9305419921875,-84.9305419921875,-84.9305419921875,-84.9305419921875,-84.9305419921875,-84.9305419921875,-84.9305419921875,-84.9305419921875,-84.9305419921875,-84.9305419921875,-84.9305419921875,-84.9305419921875,-84.9305419921875,-84.9305419921875,-84.9305419921875,-84.9305419921875,-84.9305419921875,-84.9305419921875,-84.9305419921875,-84.9305419921875,-84.9305419921875,-84.9305419921875,-84.9305419921875,-84.9305419921875,-84.9305419921875,-84.9305419921875,-84.9305419921875,-84.9305419921875,-84.9305419921875,-84.9305419921875,-84.9305419921875,-84.9305419921875,-84.9305419921875,-84.9305419921875,-84.9305419921875,-84.9305419921875,-84.9305419921875,-84.9305419921875,-84.9305419921875,-84.9305419921875,-83.26092529296875,-80.75653076171875,-78.252197265625,-74.9130859375,-69.90435791015625,-61.55657958984375,-51.539154052734375,-44.026123046875,-39.852203369140625,-37.347900390625,-36.5130615234375,-36.5130615234375,-36.5130615234375,-35.67828369140625,-35.67828369140625,-34.843505859375,-34.00872802734375,-31.504364013671875,-28.165252685546875,-24.82611083984375,-23.15655517578125,-19.817413330078125,-16.47833251953125,-13.13916015625,-7.295684814453125,-1.45220947265625,1.886932373046875,2.721710205078125,3.556488037109375,3.556488037109375,5.22607421875,6.8956298828125,6.8956298828125,6.8956298828125,6.8956298828125,6.8956298828125,6.8956298828125,6.8956298828125,6.8956298828125,6.8956298828125,6.8956298828125,6.8956298828125,6.8956298828125,6.8956298828125,6.8956298828125,6.8956298828125,6.8956298828125,6.8956298828125,6.8956298828125,6.8956298828125,6.8956298828125,6.8956298828125,6.8956298828125,6.8956298828125,9.39996337890625,19.4173583984375,38.61737060546875,83.69561767578125,116.25216674804688,145.46954345703125,165.50433349609375,183.03472900390625,197.22607421875,210.5825958251953,222.26954650878906,234.79129028320312,250.65213012695312,265.6782531738281,286.5478210449219,296.56520080566406,299.9043426513672,299.9043426513672,299.9043426513672,300.73912048339844,303.24346923828125,304.9130401611328,307.4173889160156,310.7565155029297,314.930419921875,319.93910217285156,329.9565124511719,335.7999954223633,338.3043441772461,342.47825622558594,344.98260498046875,344.98260498046875,344.98260498046875,344.98260498046875,346.6521682739258,348.32171630859375,349.1565170288086,349.99129486083984,349.99129486083984,349.99129486083984,349.99129486083984,349.99129486083984,349.99129486083984,349.99129486083984,349.99129486083984,349.99129486083984,349.99129486083984,346.6521682739258,328.28694915771484,256.49562072753906,189.7130126953125,123.76519775390625,70.339111328125,28.5999755859375,5.22607421875,-1.45220947265625,-3.12176513671875,-3.12176513671875,-3.12176513671875,-3.12176513671875,-2.2869873046875,-0.617431640625,0.217376708984375,1.052154541015625,1.052154541015625,1.052154541015625,1.052154541015625,1.052154541015625,0.217376708984375,0.217376708984375,0.217376708984375,0.217376708984375,0.217376708984375,0.217376708984375,-1.45220947265625,-8.965240478515625,-23.15655517578125,-47.365234375,-84.9305419921875,-135.0174560546875,-185.93914794921875,-229.34783935546875,-264.4088134765625,-276.93048095703125,-283.6087646484375,-285.27838134765625,-286.11322021484375,-287.78265380859375,-289.45220947265625,-291.12176513671875,-293.62615966796875,-300.30438232421875,-309.48699951171875,-319.50439453125,-328.6871337890625,-332.026123046875]","[0,0,0,0,0,0,0,0,0,0,0,0,0,0,0,0,0,0,0,0,0,0,0,0,0,0,0,0,0,0,0,0,0,0,0,0,0,0,0,0,0,0,0,0,0,0,0,0,0,0,0,0,0,0,0,0,0,0,0,0,0,0,0,0,0,0,0,0,0,0,0,0,0,0,0,0,0,0,0,0,0,0,0,0,0,0,0,0,0,0,0,0,0,0,0,0,0,0,0,0,0,0,0,0,0,0,0,0,0,0,0,0,0,0,0,0,0,0,0,0,0,0,0,0,0,0,0,0,0,0,0,0,0,0,0,0,0,0,0,0,0,0,0,0,0,0,0,0,0,0,0,0,0,0,0,0,0,0,0,0,0,0,0,0,0,0,0,0,0,0,0,0,0,0,0,0,0,0,0,0,0,0,0,0,0,0,0,0,0,0,0,0,0,0,0,0,0,0,0,0,0,0,0,0,0,0,0,0,0,0,0,0,0,0,0,0,0,0,0]","[0,0,0,0,0,0,0,0,0,0,0,0,0,0,0,0,0,0,0,0,0,0,0,0,0,0,0,0,0,0,0,0,0,0,0,0,0,0,0,0,0,0,0,0,0,0,0,0,0,0,0,0,0,0,0,0,0,0,0,0,0,0,0,0,0,0,0,0,0,0,0,0,0,0,0,0,0,0,0,0,0,0,0,0,0,0,0,0,0,0,0,0,0,0,0,0,0,0,0,0,0,0,0,0,0,0,0,0,0,0,0,0,0,0,0,0,0,0,0,0,0,0,0,0,0,0,0,0,0,0,0,0,0,0,0,0,0,0,0,0,0,0,0,0,0,0,0,0,0,0,0,0,0,0,0,0,0,0,0,0,0,0,0,0,0,0,0,0,0,0,0,0,0,0,0,0,0,0,0,0,0,0,0,0,0,0,0,0,0,0,0,0,0,0,0,0,0,0,0,0,0,0,0,0,0,0,0,0,0,0,0,0,0,0,0,0,0,0,0]","[0,0,0,0,0,0,0,0,0,0,0,0,0,0,0,0,0,0,0,0,0,0,0,0,0,0,0,0,0,0,0,0,0,0,0,0,0,0,0,0,0,0,0,0,0,0,0,0,0,0,0,0,0,0,0,0,0,0,0,0,0,0,0,0,0,0,0,0,0,0,0,0,0,0,0,0,0,0,0,0,0,0,0,0,0,0,0,0,0,0,0,0,0,0,0,0,0,0,0,0,0,0,0,0,0,0,0,0,0,0,0,0,0,0,0,0,0,0,0,0,0,0,0,0,0,0,0,0,0,0,0,0,0,0,0,0,0,0,0,0,0,0,0,0,0,0,0,0,0,0,0,0,0,0,0,0,0,0,0,0,0,0,0,0,0,0,0,0,0,0,0,0,0,0,0,0,0,0,0,0,0,0,0,0,0,0,0,0,0,0,0,0,0,0,0,0,0,0,0,0,0,0,0,0,0,0,0,0,0,0,0,0,0,0,0,0,0,0,0]","[0.0039000000059630224,0.03260000002384089,0.04299999999999926,0.05990000000596041,0.07640000000596103,0.0934999999999988,0.1098000000119228,0.12740000000596297,0.14370000001787986,0.16010000002383862,0.17710000002384163,0.1933000000119236,0.21000000000000085,0.2266000000238435,0.2432000000178789,0.25990000000596325,0.27670000001788253,0.2934000000059598,0.3100000000000023,0.3267000000178797,0.34340000000596405,0.36010000002384146,0.37740000000596297,0.39330000001191934,0.4104000000059571,0.426800000011923,0.44340000000595836,0.46000000000000085,0.47699999999999676,0.4936000000238394,0.5104000000059585,0.527000000000001,0.5438000000119203,0.5603000000119209,0.5776000000238426,0.5937000000178827,0.6103000000119181,0.6270000000000024,0.6436000000238451,0.6603000000119224,0.6773000000119183,0.6937000000178841,0.7105000000000032,0.7269999999999968,0.7439999999999998,0.7606000000238424,0.777100000023843,0.7938000000119203,0.8104999999999976,0.8275000000000006,0.8439000000059593,0.8606000000238438,0.8772000000178792,0.8941000000238404,0.9104000000059571,0.9273000000119183,0.9442000000178794,0.9609000000059638,0.9778000000119178,0.9941000000238418,1.0106000000238424,1.0275000000000034,1.043999999999997,1.0607000000178815,1.0775000000000006,1.0944000000059617,1.1109000000059623,1.1274999999999977,1.1442000000178822,1.1616000000238387,1.1779000000059625,1.194499999999998,1.2112000000178824,1.2279000000059597,1.2445000000000022,1.2614000000059633,1.278500000000001,1.2954000000059622,1.3113000000119186,1.328100000023845,1.3447000000178804,1.361200000017881,1.3780000000000001,1.3944000000059589,1.4114000000059619,1.4279000000059625,1.4449000000059584,1.462300000011922,1.4799999999999969,1.4964999999999975,1.5121000000238425,1.5284000000059592,1.545600000023839,1.5621000000238396,1.5791000000238427,1.595100000023841,1.61190000000596,1.6286000000238445,1.6451000000238452,1.6623000000119177,1.6816000000238418,1.6959000000059632,1.7128000000119243,1.7288000000119226,1.7456000000238419,1.7625000000000028,1.7791000000238455,1.794800000011918,1.8115000000000023,1.8282000000178797,1.8449999999999989,1.8618000000119181,1.8784000000059606,1.8953000000119218,1.9114999999999966,1.9284999999999997,1.9450000000000003,1.9617000000178848,1.9783000000119202,1.9951000000238395,2.011800000011924,2.028500000000001,2.045499999999997,2.0646000000238445,2.0805000000000007,2.0968000000119176,2.1129000000059577,2.1293000000119235,2.1456000000238404,2.1623000000119177,2.1794000000059626,2.196200000017882,2.212900000005959,2.2294000000059597,2.246300000011921,2.264000000000003,2.2798000000119245,2.2958000000119227,2.3128000000119187,2.329500000000003,2.3456000000238433,2.362100000023844,2.378999999999998,2.396100000023843,2.413600000023841,2.429800000011923,2.4464000000059585,2.4643000000119244,2.4806000000238413,2.4961000000238442,2.513300000011924,2.5294999999999987,2.54790000000596,2.562600000023842,2.5790000000000006,2.5955000000000013,2.6123000000119205,2.6299000000059607,2.647500000000001,2.6644999999999968,2.679900000005958,2.695900000005963,2.712300000011922,2.729300000011918,2.746000000000002,2.762400000005961,2.7791000000238455,2.7958000000119227,2.8129000000059605,2.829400000005961,2.847400000005962,2.865000000000002,2.880499999999998,2.8969999999999985,2.913700000017883,2.929800000011923,2.946800000011919,2.9633000000119196,2.9797000000178784,2.9974000000059604,3.012600000023845,3.029300000011922,3.047200000017881,3.0630000000000024,3.0801000000238403,3.0974999999999966,3.1132000000178834,3.1294000000059583,3.146100000023843,3.16280000001192,3.1797000000178812,3.1966000000238424,3.212900000005959,3.2295000000000016,3.246300000011921,3.262999999999998,3.2796000000238408,3.2968000000119204,3.313300000011921,3.3301000000238403,3.347200000017878,3.3638000000119206,3.38060000002384,3.397400000005959,3.4140000000000015,3.4303000000119184,3.4472000000178795,3.463900000005964,3.480800000011918,3.497200000017884,3.5143000000119216,3.53030000001192,3.546999999999997,3.5643000000119187,3.5813000000119217,3.598900000005962,3.6148000000119183,3.630499999999998,3.648300000011922]",return,424.3025,0,0,0,0,1,test,2022-09-28_09h42.50.910,GoFitts,2022.1.4,Win32,59.80861244,,,,,,,,,,,,,,,,,,,,,,,,,
,,,,,,,,,,,,,,,test,2022-09-28_09h42.50.910,GoFitts,2022.1.4,Win32,59.80861244,return,3.0893,return,1.6408,"[71.68267822265625,-73.800048828125]","[133.82612127177165,148.62896509547886]",48,400,0,"[71.68267822265625,65.00439453125,63.3348388671875,61.665283203125,61.665283203125,61.665283203125,61.665283203125,61.665283203125,61.665283203125,61.665283203125,61.665283203125,61.665283203125,61.665283203125,61.665283203125,61.665283203125,61.665283203125,61.665283203125,61.665283203125,61.665283203125,61.665283203125,61.665283203125,61.665283203125,61.665283203125,61.665283203125,61.665283203125,60.83050537109375,60.83050537109375,62.50006103515625,70.01312255859375,84.20440673828125,102.56964111328125,124.27398681640625,130.95220947265625,132.62188720703125,132.62188720703125,132.62188720703125,132.62188720703125,132.62188720703125,132.62188720703125,132.62188720703125,132.62188720703125,132.62188720703125,131.7869873046875,130.95220947265625,130.117431640625,129.28265380859375,128.4478759765625,128.4478759765625,128.4478759765625]","[-73.800048828125,-66.28701782226562,-64.61746215820312,-63.78271484375,-63.78271484375,-63.78271484375,-63.78271484375,-63.78271484375,-63.78271484375,-63.78271484375,-63.78271484375,-63.78271484375,-63.78271484375,-63.78271484375,-63.78271484375,-63.78271484375,-63.78271484375,-63.78271484375,-63.78271484375,-63.78271484375,-63.78271484375,-63.78271484375,-63.78271484375,-63.78271484375,-63.78271484375,-60.4434814453125,-53.765289306640625,-41.2435302734375,-21.208740234375,0.49560546875,22.199981689453125,48.91302490234375,58.095611572265625,61.43475341796875,63.10430908203125,64.77389526367188,65.60867309570312,67.27816772460938,70.61737060546875,75.62606811523438,85.64346313476562,88.9825439453125,98.16519165039062,102.339111328125,107.34780883789062,113.1912841796875,119.03475952148438,124.87823486328125,129.88693237304688]","[0,0,0,0,0,0,0,0,0,0,0,0,0,0,0,0,0,0,0,0,0,0,0,0,0,0,0,0,0,0,0,0,0,0,0,0,0,0,0,0,0,0,0,0,0,0,0,0,0]","[0,0,0,0,0,0,0,0,0,0,0,0,0,0,0,0,0,0,0,0,0,0,0,0,0,0,0,0,0,0,0,0,0,0,0,0,0,0,0,0,0,0,0,0,0,0,0,0,0]","[0,0,0,0,0,0,0,0,0,0,0,0,0,0,0,0,0,0,0,0,0,0,0,0,0,0,0,0,0,0,0,0,0,0,0,0,0,0,0,0,0,0,0,0,0,0,0,0,0]","[0.008099999994044538,0.04770000001792596,0.06320000001790049,0.08070000001788458,0.09580000001193412,0.11280000001193002,0.1297000000179196,0.15009999999404045,0.16340000000599275,0.17930000001194912,0.1968000000119332,0.21700000000004138,0.2300000000000182,0.2463000000119564,0.2640999999940732,0.28420000001790413,0.29659999999404363,0.3135000000000332,0.33380000001193366,0.3463000000119223,0.36400000000003274,0.38330000001195685,0.3962000000179273,0.41500000000002046,0.4343000000119446,0.45190000000599184,0.46790000000595455,0.48059999999406955,0.5025999999940609,0.519700000017906,0.5348000000119555,0.5522000000178764,0.5692000000179291,0.5845000000000482,0.6017000000178996,0.6183000000119705,0.6345999999940659,0.6513000000119291,0.6678000000119368,0.6815000000000282,0.7019999999999982,0.7185999999940691,0.7353000000119323,0.7515999999940846,0.7682000000178846,0.7857000000179255,0.8024000000060028,0.82000000000005,0.83570000001788]",,0,0,0,0,1,,,,
,,,,,,,,,,,,,,,test,2022-09-28_09h42.50.910,GoFitts,2022.1.4,Win32,59.80861244,,,,,"[133.82612127177165,148.62896509547886]","[-100.00000000000009,-173.2050807568877]",48,400,0,"[128.4478759765625,128.4478759765625,127.61309814453125,127.61309814453125,126.7783203125,126.7783203125,126.7783203125,126.7783203125,126.7783203125,126.7783203125,126.7783203125,126.7783203125,126.7783203125,126.7783203125,126.7783203125,126.7783203125,126.7783203125,125.94354248046875,120.10003662109375,108.4130859375,95.891357421875,75.8565673828125,55.82177734375,39.12615966796875,27.439208984375,19.92626953125,13.24786376953125,4.06524658203125,-6.78692626953125,-28.49127197265625,-34.33465576171875,-45.18682861328125,-46.8564453125,-51.86517333984375,-57.70867919921875,-66.056396484375,-72.7347412109375,-77.743408203125,-78.57818603515625]","[129.88693237304688,134.8956298828125,138.23475646972656,139.06951904296875,139.90432739257812,139.90432739257812,139.90432739257812,139.90432739257812,139.90432739257812,139.90432739257812,139.90432739257812,139.90432739257812,139.90432739257812,139.90432739257812,139.90432739257812,139.90432739257812,139.90432739257812,139.90432739257812,130.72171020507812,100.66952514648438,67.27816772460938,23.869537353515625,-15.365264892578125,-46.252197265625,-70.46087646484375,-87.15658569335938,-100.5130615234375,-111.365234375,-120.54788208007812,-129.73049926757812,-131.4000244140625,-135.573974609375,-136.40875244140625,-140.58270263671875,-146.4261474609375,-153.1043701171875,-158.11309814453125,-163.12176513671875,-164.79132080078125]","[0,0,0,0,0,0,0,0,0,0,0,0,0,0,0,0,0,0,0,0,0,0,0,0,0,0,0,0,0,0,0,0,0,0,0,0,0,0,0]","[0,0,0,0,0,0,0,0,0,0,0,0,0,0,0,0,0,0,0,0,0,0,0,0,0,0,0,0,0,0,0,0,0,0,0,0,0,0,0]","[0,0,0,0,0,0,0,0,0,0,0,0,0,0,0,0,0,0,0,0,0,0,0,0,0,0,0,0,0,0,0,0,0,0,0,0,0,0,0]","[0.002400000005934544,0.014499999999998181,0.02629999998208632,0.04319999998807589,0.0644999999999527,0.08059999999403544,0.09319999998803041,0.10919999998804997,0.1270999999940159,0.14749999999997954,0.16009999999403135,0.17729999998209678,0.1934999999999718,0.20990000000591635,0.22729999998210815,0.24340000000592,0.2604000000059159,0.28179999998206995,0.2935999999940009,0.31419999998803405,0.3315999999940118,0.34929999998212224,0.36509999999401543,0.3816999999880295,0.39859999999401907,0.4112999999820772,0.4319999999999595,0.4449999999999932,0.4652999999821077,0.4821999999880404,0.49909999999403,0.5149000000059232,0.5319999999999823,0.5482999999820777,0.5650999999940041,0.5819000000059305,0.5980999999940195,0.616199999988055,0.6321999999880745]",,1,0,1,0,1,,,,
,,,,,,,,,,,,,,,test,2022-09-28_09h42.50.910,GoFitts,2022.1.4,Win32,59.80861244,,,,,"[-100.00000000000009,-173.2050807568877]","[61.80339887498949,190.2113032590307]",48,400,0,"[-78.57818603515625,-78.57818603515625,-80.247802734375,-81.9173583984375,-86.92596435546875,-91.0999755859375,-95.27386474609375,-101.9521484375,-104.45648193359375,-104.45648193359375,-104.45648193359375,-104.45648193359375,-104.45648193359375,-104.45648193359375,-104.45648193359375,-104.45648193359375,-104.45648193359375,-104.45648193359375,-104.45648193359375,-104.45648193359375,-101.11737060546875,-90.26519775390625,-67.72601318359375,-25.9869384765625,1.5609130859375,15.752197265625,37.45654296875,40.7957763671875]","[-164.79132080078125,-165.6260986328125,-167.29571533203125,-169.800048828125,-175.64349365234375,-179.81744384765625,-182.32177734375,-186.49566650390625,-189.00006103515625,-189.00006103515625,-189.00006103515625,-189.00006103515625,-189.00006103515625,-189.00006103515625,-189.00006103515625,-189.00006103515625,-189.00006103515625,-189.00006103515625,-189.00006103515625,-185.660888671875,-168.96527099609375,-135.573974609375,-74.6348876953125,36.3912353515625,103.17388916015625,131.5564727783203,177.46951293945312,184.14779663085938]","[0,0,0,0,0,0,0,0,0,0,0,0,0,0,0,0,0,0,0,0,0,0,0,0,0,0,0,0]","[0,0,0,0,0,0,0,0,0,0,0,0,0,0,0,0,0,0,0,0,0,0,0,0,0,0,0,0]","[0,0,0,0,0,0,0,0,0,0,0,0,0,0,0,0,0,0,0,0,0,0,0,0,0,0,0,0]","[0.0010999999940395355,0.014599999994061363,0.027500000000031832,0.048099999994065,0.06499999999999773,0.08109999999402362,0.09800000000001319,0.11459999999402726,0.13140000000595364,0.14730000001191002,0.16070000001786866,0.1772000000178764,0.19440000000594182,0.21070000001788003,0.23099999999999454,0.2437000000178955,0.2609000000059609,0.28140000000598775,0.29370000001790686,0.3154999999999859,0.33170000001786093,0.3495999999940409,0.3657000000179096,0.38309999999404454,0.3992000000179132,0.41620000001790913,0.4329000000059864,0.4482000000178914]",,2,0,2,0,1,,,,
,,,,,,,,,,,,,,,test,2022-09-28_09h42.50.910,GoFitts,2022.1.4,Win32,59.80861244,,,,,"[61.80339887498949,190.2113032590307]","[-20.905692653530846,-198.90437907365467]",48,400,0,"[40.7957763671875,41.630615234375,43.300048828125,43.300048828125,44.9696044921875,44.9696044921875,44.9696044921875,44.9696044921875,44.9696044921875,44.9696044921875,44.9696044921875,44.9696044921875,46.63916015625,51.64801025390625,54.98699951171875,55.82177734375,55.82177734375,55.82177734375,55.82177734375,55.82177734375,55.82177734375,55.82177734375,55.82177734375,55.82177734375,55.82177734375,50.81317138671875,38.2913818359375,24.10003662109375,14.0826416015625,9.90887451171875,7.4044189453125,4.06524658203125,2.39569091796875,-0.1085205078125,-0.94329833984375,-4.28253173828125,-5.9521484375,-9.291259765625,-13.465087890625,-15.96954345703125,-17.63909912109375,-17.63909912109375,-17.63909912109375,-17.63909912109375,-17.63909912109375,-18.473876953125,-20.97821044921875]","[184.14779663085938,185.8173828125,186.65216064453125,186.65216064453125,187.4869384765625,188.32168579101562,188.32168579101562,188.32168579101562,188.32168579101562,188.32168579101562,188.32168579101562,188.32168579101562,189.99127197265625,194.99996948242188,197.50433349609375,198.339111328125,198.339111328125,198.339111328125,198.339111328125,198.339111328125,198.339111328125,198.339111328125,198.339111328125,182.47824096679688,151.59127807617188,102.339111328125,46.40863037109375,-2.843505859375,-33.73046875,-55.434844970703125,-71.29571533203125,-85.48703002929688,-93.8348388671875,-104.68701171875,-108.02615356445312,-116.37396240234375,-121.38262939453125,-129.73049926757812,-137.2435302734375,-144.75653076171875,-149.7652587890625,-153.1043701171875,-156.44354248046875,-159.78265380859375,-168.96527099609375,-173.13922119140625,-184.82611083984375]","[0,0,0,0,0,0,0,0,0,0,0,0,0,0,0,0,0,0,0,0,0,0,0,0,0,0,0,0,0,0,0,0,0,0,0,0,0,0,0,0,0,0,0,0,0,0,0]","[0,0,0,0,0,0,0,0,0,0,0,0,0,0,0,0,0,0,0,0,0,0,0,0,0,0,0,0,0,0,0,0,0,0,0,0,0,0,0,0,0,0,0,0,0,0,0]","[0,0,0,0,0,0,0,0,0,0,0,0,0,0,0,0,0,0,0,0,0,0,0,0,0,0,0,0,0,0,0,0,0,0,0,0,0,0,0,0,0,0,0,0,0,0,0]","[0.002800000011973225,0.017200000017908224,0.03180000001196959,0.04890000000597183,0.06630000001194958,0.08310000002387596,0.09900000000004638,0.11190000000596001,0.12840000000596774,0.1453000000119573,0.16640000000597865,0.18230000001193503,0.1961000000238755,0.2146000000238928,0.2302000000179305,0.24980000001193048,0.26620000001793187,0.2787000000179205,0.299000000000035,0.3120000000000118,0.3328000000119573,0.34530000001194594,0.3622000000179355,0.3836000000238755,0.40030000001195276,0.41730000001194867,0.43340000000597456,0.4506000000238828,0.4669000000059782,0.48500000000001364,0.5012000000178887,0.5176000000238901,0.534100000023841,0.5500000000000114,0.5675000000000523,0.5838000000119337,0.6007000000179232,0.6180000000000518,0.6333000000119569,0.6501000000238832,0.667900000006,0.6798000000119373,0.7010000000000218,0.7134000000060041,0.7347000000178809,0.7473000000119328,0.7674000000059777]",,3,0,3,0,1,,,,
,,,,,,,,,,,,,,,test,2022-09-28_09h42.50.910,GoFitts,2022.1.4,Win32,59.80861244,,,,,"[-20.905692653530846,-198.90437907365467]","[-20.905692653530668,198.90437907365467]",48,400,0,"[-20.97821044921875,-20.97821044921875,-20.97821044921875,-21.8128662109375,-21.8128662109375,-21.8128662109375,-21.8128662109375,-21.8128662109375,-21.8128662109375,-21.8128662109375,-22.647705078125,-22.647705078125,-22.647705078125,-22.647705078125,-22.647705078125,-22.647705078125,-22.647705078125,-22.647705078125,-22.647705078125,-22.647705078125,-25.152099609375,-30.16082763671875,-30.16082763671875]","[-184.82611083984375,-189.8348388671875,-191.50439453125,-194.0087890625,-194.0087890625,-194.0087890625,-194.0087890625,-194.0087890625,-194.0087890625,-194.0087890625,-194.0087890625,-194.0087890625,-194.0087890625,-189.8348388671875,-175.64349365234375,-151.43487548828125,-103.85223388671875,-38.7391357421875,28.87823486328125,86.47824096679688,129.05215454101562,168.28692626953125,184.14779663085938]","[0,0,0,0,0,0,0,0,0,0,0,0,0,0,0,0,0,0,0,0,0,0,0]","[0,0,0,0,0,0,0,0,0,0,0,0,0,0,0,0,0,0,0,0,0,0,0]","[0,0,0,0,0,0,0,0,0,0,0,0,0,0,0,0,0,0,0,0,0,0,0]","[0.0007999999821208803,0.0153999999761254,0.029799999982117242,0.04889999997612904,0.06519999998806725,0.07759999999404954,0.10099999999999909,0.11529999998208496,0.12749999999999773,0.14489999997613268,0.16619999998806634,0.18159999999403453,0.19499999999999318,0.2161999999880777,0.23219999998809726,0.2492999999820995,0.26659999999401407,0.2826999999880968,0.30000000000001137,0.3129999999999882,0.33309999999403317,0.3507999999820868,0.36609999999404863]",,4,0,4,0,1,,,,
,,,,,,,,,,,,,,,test,2022-09-28_09h42.50.910,GoFitts,2022.1.4,Win32,59.80861244,,,,,"[-20.905692653530668,198.90437907365467]","[61.80339887498945,-190.21130325903073]",48,400,0,"[-30.16082763671875,-30.16082763671875,-30.16082763671875,-30.16082763671875,-29.3260498046875,-28.49127197265625,-28.49127197265625,-28.49127197265625,-28.49127197265625,-27.656494140625,-27.656494140625,-27.656494140625,-27.656494140625,-27.656494140625,-27.656494140625,-27.656494140625,-27.656494140625,-27.656494140625,-26.82171630859375,-24.31732177734375,-21.8128662109375,-16.8043212890625,-10.12603759765625,-4.28253173828125,-1.77813720703125,3.23046875,8.2392578125,13.24786376953125,16.5870361328125,19.0914306640625,19.0914306640625,20.76104736328125,22.43048095703125,25.76959228515625,26.6043701171875,29.10882568359375,29.943603515625,29.943603515625,29.943603515625,31.61322021484375,35.7869873046875,43.300048828125]","[184.14779663085938,190.82608032226562,193.33041381835938,194.16519165039062,195.83477783203125,197.50433349609375,198.339111328125,198.339111328125,198.339111328125,205.01736450195312,210.86083984375,214.19998168945312,216.704345703125,216.704345703125,216.704345703125,216.704345703125,216.704345703125,216.704345703125,216.704345703125,209.1912841796875,200.0086669921875,183.31300354003906,154.0956268310547,113.1912841796875,64.77389526367188,-7.852203369140625,-48.75653076171875,-84.6522216796875,-109.69570922851562,-133.069580078125,-151.43487548828125,-164.79132080078125,-176.478271484375,-184.82611083984375,-191.50439453125,-196.5130615234375,-196.5130615234375,-196.5130615234375,-197.34783935546875,-197.34783935546875,-196.5130615234375,-193.17401123046875]","[0,0,0,0,0,0,0,0,0,0,0,0,0,0,0,0,0,0,0,0,0,0,0,0,0,0,0,0,0,0,0,0,0,0,0,0,0,0,0,0,0,0]","[0,0,0,0,0,0,0,0,0,0,0,0,0,0,0,0,0,0,0,0,0,0,0,0,0,0,0,0,0,0,0,0,0,0,0,0,0,0,0,0,0,0]","[0,0,0,0,0,0,0,0,0,0,0,0,0,0,0,0,0,0,0,0,0,0,0,0,0,0,0,0,0,0,0,0,0,0,0,0,0,0,0,0,0,0]","[0.0009000000059131708,0.015100000023835491,0.031999999999982265,0.04890000000591499,0.06510000002384686,0.08180000001192411,0.09840000000593818,0.11510000002380139,0.12840000000596774,0.14520000001783728,0.1658000000119273,0.17820000001785274,0.1996000000238496,0.21549999999996317,0.22790000000594546,0.24949999999995498,0.2613000000118859,0.2782000000178755,0.2961000000238414,0.3161000000238232,0.32840000000595637,0.34890000000592636,0.36270000001786684,0.3838000000118882,0.4006000000238146,0.41680000001190365,0.4334000000059177,0.4502000000178441,0.4666000000238455,0.4841000000238296,0.5008000000119068,0.5127000000178441,0.5342000000178473,0.5502000000178668,0.5673000000119259,0.5840000000000032,0.600100000023815,0.6159000000059223,0.6299000000059323,0.6508000000118841,0.6669999999999732,0.6829000000059295]",,5,0,5,0,1,,,,
,,,,,,,,,,,,,,,test,2022-09-28_09h42.50.910,GoFitts,2022.1.4,Win32,59.80861244,,,,,"[61.80339887498945,-190.21130325903073]","[-99.99999999999996,173.20508075688775]",48,400,0,"[43.300048828125,52.4827880859375,59.1610107421875,64.16961669921875,66.6739501953125,68.343505859375,68.343505859375,68.343505859375,68.343505859375,68.343505859375,68.343505859375,68.343505859375,68.343505859375,68.343505859375,68.343505859375,65.83917236328125,64.16961669921875,56.65655517578125,47.47393798828125,15.752197265625,-12.63031005859375,-42.68243408203125,-61.882568359375,-74.4041748046875,-81.9173583984375]","[-193.17401123046875,-189.8348388671875,-184.82611083984375,-180.6522216796875,-178.982666015625,-178.14788818359375,-177.3131103515625,-177.3131103515625,-177.3131103515625,-177.3131103515625,-177.3131103515625,-177.3131103515625,-177.3131103515625,-177.3131103515625,-176.478271484375,-169.800048828125,-165.6260986328125,-153.1043701171875,-132.23480224609375,-55.434844970703125,14.6868896484375,77.29562377929688,120.70428466796875,149.92172241210938,169.12173461914062]","[0,0,0,0,0,0,0,0,0,0,0,0,0,0,0,0,0,0,0,0,0,0,0,0,0]","[0,0,0,0,0,0,0,0,0,0,0,0,0,0,0,0,0,0,0,0,0,0,0,0,0]","[0,0,0,0,0,0,0,0,0,0,0,0,0,0,0,0,0,0,0,0,0,0,0,0,0]","[0.0013000000118950084,0.016700000017863204,0.027900000005956826,0.04880000001190865,0.06170000001787912,0.08270000001783728,0.09949999999997772,0.11159999999404135,0.13249999999999318,0.1487000000178682,0.16149999999998954,0.1779000000059341,0.1989000000059491,0.21249999999997726,0.22880000001191547,0.250400000005925,0.26309999999404,0.28409999999399815,0.3003000000118732,0.31580000001190456,0.33349999999995816,0.3500999999940291,0.36730000001188046,0.3835999999940327,0.39540000000596365]",,6,0,6,0,1,,,,
,,,,,,,,,,,,,,,test,2022-09-28_09h42.50.910,GoFitts,2022.1.4,Win32,59.80861244,,,,,"[-99.99999999999996,173.20508075688775]","[133.82612127177168,-148.6289650954788]",48,400,0,"[-81.9173583984375,-84.42169189453125,-86.0911865234375,-86.0911865234375,-86.0911865234375,-86.0911865234375,-86.0911865234375,-86.0911865234375,-87.76080322265625,-88.5955810546875,-88.5955810546875,-88.5955810546875,-88.5955810546875,-88.5955810546875,-88.5955810546875,-88.5955810546875,-88.5955810546875,-88.5955810546875,-88.5955810546875,-88.5955810546875,-88.5955810546875,-78.57818603515625,-69.3956298828125,-56.87384033203125,-42.68243408203125,-21.8128662109375,10.7435302734375,62.50006103515625,89.21307373046875,105.90875244140625,115.9261474609375,123.439208984375,125.94354248046875,126.7783203125,126.7783203125,127.61309814453125,127.61309814453125,127.61309814453125,128.4478759765625,130.117431640625,133.4566650390625,138.46527099609375,144.30877685546875,148.482666015625,149.31744384765625,149.31744384765625,149.31744384765625,150.1522216796875,151.82177734375,152.65655517578125,152.65655517578125,152.65655517578125,152.65655517578125,152.65655517578125]","[169.12173461914062,180.80865478515625,184.98260498046875,186.65216064453125,186.65216064453125,186.65216064453125,186.65216064453125,188.32168579101562,194.16519165039062,197.50433349609375,198.339111328125,198.339111328125,198.339111328125,198.339111328125,198.339111328125,198.339111328125,198.339111328125,198.339111328125,198.339111328125,198.339111328125,197.50433349609375,186.65216064453125,175.7999725341797,157.4347381591797,133.22605895996094,96.49563598632812,49.747802734375,-12.86090087890625,-40.40875244140625,-59.60870361328125,-72.96527099609375,-81.31304931640625,-85.48703002929688,-85.48703002929688,-86.32180786132812,-87.15658569335938,-87.15658569335938,-87.15658569335938,-88.82611083984375,-89.660888671875,-94.66961669921875,-100.5130615234375,-104.68701171875,-107.19137573242188,-108.02615356445312,-108.02615356445312,-108.02615356445312,-111.365234375,-114.70440673828125,-119.71310424804688,-123.88702392578125,-129.73049926757812,-132.23480224609375,-135.573974609375]","[0,0,0,0,0,0,0,0,0,0,0,0,0,0,0,0,0,0,0,0,0,0,0,0,0,0,0,0,0,0,0,0,0,0,0,0,0,0,0,0,0,0,0,0,0,0,0,0,0,0,0,0,0,0]","[0,0,0,0,0,0,0,0,0,0,0,0,0,0,0,0,0,0,0,0,0,0,0,0,0,0,0,0,0,0,0,0,0,0,0,0,0,0,0,0,0,0,0,0,0,0,0,0,0,0,0,0,0,0]","[0,0,0,0,0,0,0,0,0,0,0,0,0,0,0,0,0,0,0,0,0,0,0,0,0,0,0,0,0,0,0,0,0,0,0,0,0,0,0,0,0,0,0,0,0,0,0,0,0,0,0,0,0,0]","[0.0009000000059700142,0.021500000000003183,0.03249999999997044,0.05359999999404863,0.06930000001193548,0.08640000000593773,0.09949999999997772,0.11619999998805497,0.13790000000597047,0.15409999999405954,0.17109999999405545,0.18640000000596046,0.202800000011905,0.21550000000002,0.23169999998805224,0.248699999988105,0.2655999999940377,0.2824000000059641,0.30259999999401543,0.31540000000597956,0.33550000000002456,0.35459999999403635,0.3709999999999809,0.3875999999940518,0.4003000000118959,0.4214000000059741,0.4333000000119114,0.4560999999940236,0.4714999999999918,0.4884999999999877,0.5044000000059441,0.521000000000015,0.5379000000059477,0.5543000000118923,0.5710999999940327,0.5883000000119409,0.6031999999880782,0.6158000000119159,0.6333000000119,0.6549999999999727,0.6711999999880618,0.6886999999881027,0.7038000000119382,0.7211999999880732,0.7375999999940177,0.7529000000059796,0.7660999999940259,0.78359999999401,0.8046999999880882,0.8215000000000146,0.8385999999940168,0.8546999999880995,0.8715999999940323,0.8866999999880818]",,7,0,7,0,1,,,,
,,,,,,,,,,,,,,,test,2022-09-28_09h42.50.910,GoFitts,2022.1.4,Win32,59.80861244,,,,,"[133.82612127177168,-148.6289650954788]","[-161.80339887498945,117.55705045849464]",48,400,0,"[152.65655517578125,152.65655517578125,152.65655517578125,152.65655517578125,152.65655517578125,152.65655517578125,152.65655517578125,152.65655517578125,152.65655517578125,151.82177734375,151.82177734375,151.82177734375,151.82177734375,151.82177734375,144.30877685546875,135.9609375,120.934814453125,97.5609130859375,57.4913330078125,9.90887451171875,-48.52606201171875,-71.065185546875,-84.42169189453125,-94.4390869140625,-101.9521484375,-106.12591552734375,-109.46514892578125,-112.8043212890625,-118.647705078125,-123.656494140625,-126.99560546875,-131.16949462890625,-132.00433349609375,-135.34344482421875,-139.51727294921875,-144.52606201171875,-150.36944580078125,-155.37823486328125]","[-135.573974609375,-138.9130859375,-142.252197265625,-144.75653076171875,-149.7652587890625,-153.1043701171875,-154.77392578125,-155.6087646484375,-155.6087646484375,-155.6087646484375,-155.6087646484375,-155.6087646484375,-155.6087646484375,-155.6087646484375,-148.93048095703125,-141.41748046875,-129.73049926757812,-110.53045654296875,-85.48703002929688,-60.4434814453125,-32.895751953125,-22.043548583984375,-10.3565673828125,2.165191650390625,13.852142333984375,23.034759521484375,28.87823486328125,33.052154541015625,39.73040771484375,47.243438720703125,53.0869140625,63.10430908203125,65.60867309570312,73.12167358398438,80.634765625,88.9825439453125,95.66085815429688,102.339111328125]","[0,0,0,0,0,0,0,0,0,0,0,0,0,0,0,0,0,0,0,0,0,0,0,0,0,0,0,0,0,0,0,0,0,0,0,0,0,0]","[0,0,0,0,0,0,0,0,0,0,0,0,0,0,0,0,0,0,0,0,0,0,0,0,0,0,0,0,0,0,0,0,0,0,0,0,0,0]","[0,0,0,0,0,0,0,0,0,0,0,0,0,0,0,0,0,0,0,0,0,0,0,0,0,0,0,0,0,0,0,0,0,0,0,0,0,0]","[0.0010999999940395355,0.01799999999997226,0.03300000000001546,0.04599999999999227,0.0665000000000191,0.08439999997614223,0.09979999998211042,0.11279999998214407,0.13259999999405636,0.1457999999821027,0.16619999998806634,0.1834999999999809,0.19609999999403271,0.21309999999402862,0.23399999999998045,0.2500999999940632,0.26650000000000773,0.2839999999999918,0.2966999999881068,0.31799999999998363,0.3350999999940427,0.35089999997614996,0.36789999997614586,0.3843999999761536,0.4013999999761495,0.41779999998209405,0.43459999999402044,0.45109999999402817,0.4678999999761686,0.48050000000000637,0.5008999999761841,0.5183999999761681,0.5346999999881064,0.5509999999999877,0.5675999999940586,0.5835999999940213,0.6011999999880686,0.617099999994025]",,8,0,8,0,1,,,,
,,,,,,,,,,,,,,,test,2022-09-28_09h42.50.910,GoFitts,2022.1.4,Win32,59.80861244,,,,,"[-161.80339887498945,117.55705045849464]","[182.7090915285202,-81.34732861516002]",48,400,0,"[-155.37823486328125,-159.55206298828125,-162.05645751953125,-162.8912353515625,-163.72607421875,-163.72607421875,-163.72607421875,-163.72607421875,-163.72607421875,-163.72607421875,-163.72607421875,-163.72607421875,-163.72607421875,-162.8912353515625,-155.37823486328125,-137.01300048828125,-102.78692626953125,-49.36083984375,-23.48248291015625,-11.7955322265625,17.42181396484375,47.47393798828125,80.03057861328125,105.073974609375,120.934814453125,129.28265380859375,133.4566650390625,136.79571533203125,141.80438232421875,150.1522216796875,154.32623291015625,159.3348388671875,164.3436279296875,171.8565673828125]","[102.339111328125,107.34780883789062,109.01736450195312,110.68692016601562,111.521728515625,111.521728515625,111.521728515625,111.521728515625,111.521728515625,111.521728515625,111.521728515625,111.521728515625,111.521728515625,110.68692016601562,104.84341430664062,92.32171630859375,78.13037109375,59.76519775390625,48.0782470703125,41.399932861328125,19.695556640625,-0.339202880859375,-22.043548583984375,-38.7391357421875,-50.4261474609375,-57.1043701171875,-60.4434814453125,-61.2783203125,-62.11309814453125,-62.9478759765625,-62.9478759765625,-62.9478759765625,-62.9478759765625,-62.11309814453125]","[0,0,0,0,0,0,0,0,0,0,0,0,0,0,0,0,0,0,0,0,0,0,0,0,0,0,0,0,0,0,0,0,0,0]","[0,0,0,0,0,0,0,0,0,0,0,0,0,0,0,0,0,0,0,0,0,0,0,0,0,0,0,0,0,0,0,0,0,0]","[0,0,0,0,0,0,0,0,0,0,0,0,0,0,0,0,0,0,0,0,0,0,0,0,0,0,0,0,0,0,0,0,0,0]","[0.0009999999999763531,0.01589999997617042,0.03209999999404545,0.049299999982110876,0.06200000000001182,0.0781999999881009,0.09489999997617815,0.11209999999402953,0.12879999998210678,0.14489999997618952,0.16189999997618543,0.1828999999761436,0.19499999999999318,0.21649999999999636,0.23209999999403408,0.24989999997615087,0.26279999998212134,0.2842999999821245,0.3010999999940509,0.3170000000000073,0.33389999997615405,0.3500999999940291,0.3665999999940368,0.3836999999880959,0.39989999997618497,0.4167999999821177,0.429599999994025,0.4506999999881032,0.46729999998211724,0.4830999999940673,0.5000999999940632,0.5168999999761468,0.5330999999940218,0.5502999999821441]",,9,0,9,0,1,,,,
,,,,,,,,,,,,,,,test,2022-09-28_09h42.50.910,GoFitts,2022.1.4,Win32,59.80861244,,,,,"[182.7090915285202,-81.34732861516002]","[-195.62952014676114,41.58233816355186]",48,400,0,"[171.8565673828125,173.526123046875,176.030517578125,179.36962890625,184.3782958984375,187.71746826171875,188.55224609375,188.55224609375,188.55224609375,188.55224609375,188.55224609375,188.55224609375,188.55224609375,188.55224609375,188.55224609375,188.55224609375,188.55224609375,188.55224609375,183.54351806640625,155.9957275390625,125.1087646484375,75.8565673828125,28.27398681640625,-11.7955322265625,-39.34344482421875,-60.2130126953125,-77.743408203125,-93.60430908203125,-103.6217041015625,-106.96075439453125,-109.46514892578125,-111.96954345703125,-121.9869384765625,-126.16082763671875,-138.6824951171875,-145.36083984375,-148.6998291015625,-149.53466796875,-152.0390625,-157.882568359375,-168.7347412109375,-185.430419921875]","[-62.11309814453125,-60.4434814453125,-60.4434814453125,-60.4434814453125,-60.4434814453125,-61.2783203125,-62.11309814453125,-62.11309814453125,-62.11309814453125,-62.11309814453125,-62.11309814453125,-62.11309814453125,-62.11309814453125,-62.11309814453125,-62.11309814453125,-62.11309814453125,-62.11309814453125,-62.11309814453125,-64.61746215820312,-65.45223999023438,-62.11309814453125,-48.75653076171875,-30.391357421875,-14.53045654296875,-2.843505859375,6.339111328125,12.182586669921875,17.1912841796875,20.530364990234375,21.36517333984375,24.704315185546875,28.04345703125,32.21734619140625,32.21734619140625,32.21734619140625,32.21734619140625,31.382568359375,31.382568359375,31.382568359375,33.886932373046875,37.226043701171875,43.069549560546875]","[0,0,0,0,0,0,0,0,0,0,0,0,0,0,0,0,0,0,0,0,0,0,0,0,0,0,0,0,0,0,0,0,0,0,0,0,0,0,0,0,0,0]","[0,0,0,0,0,0,0,0,0,0,0,0,0,0,0,0,0,0,0,0,0,0,0,0,0,0,0,0,0,0,0,0,0,0,0,0,0,0,0,0,0,0]","[0,0,0,0,0,0,0,0,0,0,0,0,0,0,0,0,0,0,0,0,0,0,0,0,0,0,0,0,0,0,0,0,0,0,0,0,0,0,0,0,0,0]","[0.0010999999940395355,0.01480000001197368,0.03200000000003911,0.0478000000119323,0.06569999998811227,0.07780000001196186,0.09900000000004638,0.11469999998809044,0.1276999999881241,0.14490000000597547,0.16109999999406455,0.17790000000599093,0.19469999998813137,0.21140000000599457,0.23209999999409092,0.24430000001194685,0.2610999999940873,0.2818000000119696,0.2945999999940909,0.3165000000000191,0.3326999999881082,0.35019999998809226,0.36630000001196095,0.3836999999880959,0.39969999998811545,0.41650000000004184,0.4328000000119232,0.4491999999880818,0.46730000001196004,0.4844000000059623,0.5001999999881264,0.5170000000000528,0.5338000000119223,0.5493000000119537,0.5670000000000073,0.5831999999880964,0.5999000000059596,0.6168000000119491,0.6333000000119569,0.6499000000059709,0.6625000000000227,0.6831999999881191]",,10,0,10,0,1,,,,
,,,,,,,,,,,,,,,test,2022-09-28_09h42.50.910,GoFitts,2022.1.4,Win32,59.80861244,,,,,"[-195.62952014676114,41.58233816355186]","[200,0]",48,400,0,"[-185.430419921875,-207.134765625,-228.839111328125,-230.5086669921875,-230.5086669921875,-230.5086669921875,-228.839111328125,-221.3260498046875,-220.49127197265625,-220.49127197265625,-220.49127197265625,-220.49127197265625,-220.49127197265625,-220.49127197265625,-220.49127197265625,-217.9869384765625,-212.143310546875,-199.6217041015625,-152.0390625,-88.5955810546875,-15.13470458984375,50.81317138671875,105.073974609375,151.82177734375,194.39569091796875,234.46533203125,277.0391845703125,295.4044189453125,300.4130859375,301.248046875,301.248046875,301.248046875,301.248046875,301.248046875,301.248046875,299.5784912109375,280.3782958984375,267.0218505859375,236.1348876953125,209.42181396484375,201.90875244140625]","[43.069549560546875,48.0782470703125,52.252105712890625,53.0869140625,53.0869140625,53.0869140625,53.0869140625,53.921722412109375,53.921722412109375,53.921722412109375,53.921722412109375,53.921722412109375,53.921722412109375,53.921722412109375,53.921722412109375,53.921722412109375,53.921722412109375,51.41729736328125,43.069549560546875,33.052154541015625,22.199981689453125,10.51300048828125,-3.67828369140625,-18.704376220703125,-28.721771240234375,-37.069610595703125,-40.40875244140625,-40.40875244140625,-40.40875244140625,-40.40875244140625,-40.40875244140625,-40.40875244140625,-40.40875244140625,-40.40875244140625,-40.40875244140625,-40.40875244140625,-38.7391357421875,-37.069610595703125,-31.22613525390625,-22.87835693359375,-17.869598388671875]","[0,0,0,0,0,0,0,0,0,0,0,0,0,0,0,0,0,0,0,0,0,0,0,0,0,0,0,0,0,0,0,0,0,0,0,0,0,0,0,0,0]","[0,0,0,0,0,0,0,0,0,0,0,0,0,0,0,0,0,0,0,0,0,0,0,0,0,0,0,0,0,0,0,0,0,0,0,0,0,0,0,0,0]","[0,0,0,0,0,0,0,0,0,0,0,0,0,0,0,0,0,0,0,0,0,0,0,0,0,0,0,0,0,0,0,0,0,0,0,0,0,0,0,0,0]","[0.0014000000059581907,0.015700000017830007,0.03330000001187727,0.05009999999401771,0.06440000000594637,0.07699999999999818,0.09780000001188682,0.11820000001785047,0.13299999999998136,0.1484999999999559,0.16059999999401953,0.1785999999939918,0.19809999999404226,0.21090000000594955,0.22849999999999682,0.24520000001786002,0.2618000000118741,0.28040000000595455,0.29959999999402953,0.3159999999999741,0.33280000001190047,0.3485999999940077,0.3663000000119041,0.37880000001189273,0.4003000000118959,0.4124999999999659,0.4332000000178482,0.4497000000178559,0.46699999999998454,0.4824999999999591,0.4980999999939968,0.5110999999940304,0.5275999999940382,0.5487000000178455,0.5617000000178791,0.5802000000178396,0.5999000000059596,0.6118000000118968,0.6335999999940327,0.6504000000059591,0.6658000000118705]",,11,0,11,0,1,,,,
,,,,,,,,,,,,,,,test,2022-09-28_09h42.50.910,GoFitts,2022.1.4,Win32,59.80861244,,,,,"[200,0]","[-195.62952014676114,-41.58233816355181]",48,400,0,"[201.90875244140625,200.23919677734375,199.4044189453125,199.4044189453125,198.56964111328125,198.56964111328125,198.56964111328125,198.56964111328125,198.56964111328125,198.56964111328125,198.56964111328125,199.4044189453125,200.23919677734375,200.23919677734375,200.23919677734375,200.23919677734375,198.56964111328125,196.06536865234375,191.891357421875,179.36962890625,154.32623291015625,97.5609130859375,75.02178955078125,11.57830810546875,-26.82171630859375,-56.0390625,-77.743408203125,-91.0999755859375,-100.2825927734375,-107.7955322265625,-114.473876953125,-122.82171630859375,-140.35211181640625,-147.86517333984375,-148.6998291015625,-148.6998291015625,-148.6998291015625,-148.6998291015625,-153.70867919921875,-159.55206298828125,-168.7347412109375,-173.74346923828125]","[-17.869598388671875,-13.6956787109375,-10.3565673828125,-10.3565673828125,-8.686981201171875,-8.686981201171875,-8.686981201171875,-8.686981201171875,-8.686981201171875,-8.686981201171875,-8.686981201171875,-7.852203369140625,-7.852203369140625,-7.852203369140625,-7.852203369140625,-7.852203369140625,-7.852203369140625,-8.686981201171875,-12.86090087890625,-19.539154052734375,-27.887054443359375,-37.069610595703125,-37.069610595703125,-37.9044189453125,-37.9044189453125,-37.9044189453125,-37.9044189453125,-37.9044189453125,-37.9044189453125,-37.9044189453125,-37.9044189453125,-37.9044189453125,-39.57403564453125,-39.57403564453125,-39.57403564453125,-39.57403564453125,-39.57403564453125,-39.57403564453125,-39.57403564453125,-41.2435302734375,-43.7479248046875,-45.41741943359375]","[0,0,0,0,0,0,0,0,0,0,0,0,0,0,0,0,0,0,0,0,0,0,0,0,0,0,0,0,0,0,0,0,0,0,0,0,0,0,0,0,0,0]","[0,0,0,0,0,0,0,0,0,0,0,0,0,0,0,0,0,0,0,0,0,0,0,0,0,0,0,0,0,0,0,0,0,0,0,0,0,0,0,0,0,0]","[0,0,0,0,0,0,0,0,0,0,0,0,0,0,0,0,0,0,0,0,0,0,0,0,0,0,0,0,0,0,0,0,0,0,0,0,0,0,0,0,0,0]","[0.0010999999940395355,0.01640000000594455,0.03290000000595228,0.045299999982091776,0.06599999999997408,0.08269999998805133,0.09479999998211497,0.11229999998209905,0.13290000000591817,0.14549999999997,0.16259999999402908,0.1794999999999618,0.19999999999998863,0.21600000000000819,0.23249999999995907,0.24949999999995498,0.2629999999999768,0.28340000000594046,0.2956999999880736,0.31740000000593227,0.3346999999880609,0.3509999999999991,0.36679999998210633,0.38369999998803905,0.40049999999996544,0.41759999999402453,0.43409999999403226,0.45069999998804633,0.46699999999998454,0.48349999999999227,0.4964999999999691,0.5174000000059209,0.5349999999999682,0.5509000000059245,0.5669000000059441,0.5832999999821027,0.595699999988085,0.6144999999999641,0.6349999999999909,0.65029999998211,0.6675999999940245,0.6789000000059673]",,12,0,12,0,1,,,,
,,,,,,,,,,,,,,,test,2022-09-28_09h42.50.910,GoFitts,2022.1.4,Win32,59.80861244,,,,,"[-195.62952014676114,-41.58233816355181]","[182.70909152852016,81.34732861516002]",48,400,0,"[-173.74346923828125,-174.5782470703125,-174.5782470703125,-176.247802734375,-177.08258056640625,-177.08258056640625,-177.08258056640625,-177.08258056640625,-177.08258056640625,-177.08258056640625,-178.75213623046875,-181.25640869140625,-183.76080322265625,-183.76080322265625,-183.76080322265625,-177.9173583984375,-157.882568359375,-120.31732177734375,-72.7347412109375,-35.16949462890625,-12.63031005859375,3.23046875,14.91741943359375,29.10882568359375,54.1522216796875,73.35223388671875,90.0478515625,104.23919677734375,114.256591796875,119.2652587890625,119.2652587890625,120.10003662109375,120.934814453125,120.934814453125,124.27398681640625,130.117431640625,152.65655517578125,171.8565673828125]","[-45.41741943359375,-46.252197265625,-46.252197265625,-46.252197265625,-46.252197265625,-46.252197265625,-46.252197265625,-46.252197265625,-46.252197265625,-46.252197265625,-46.252197265625,-46.252197265625,-46.252197265625,-46.252197265625,-46.252197265625,-42.913116455078125,-36.23480224609375,-22.87835693359375,-6.18267822265625,7.17388916015625,16.356475830078125,22.199981689453125,27.20867919921875,31.382568359375,39.73040771484375,46.40863037109375,52.252105712890625,57.26080322265625,61.43475341796875,63.10430908203125,63.10430908203125,63.10430908203125,63.939117431640625,63.939117431640625,65.60867309570312,67.27816772460938,73.95648193359375,80.634765625]","[0,0,0,0,0,0,0,0,0,0,0,0,0,0,0,0,0,0,0,0,0,0,0,0,0,0,0,0,0,0,0,0,0,0,0,0,0,0]","[0,0,0,0,0,0,0,0,0,0,0,0,0,0,0,0,0,0,0,0,0,0,0,0,0,0,0,0,0,0,0,0,0,0,0,0,0,0]","[0,0,0,0,0,0,0,0,0,0,0,0,0,0,0,0,0,0,0,0,0,0,0,0,0,0,0,0,0,0,0,0,0,0,0,0,0,0]","[0.0012000000178886694,0.021000000000015007,0.036600000023838675,0.04980000001194185,0.07060000002383049,0.08670000001791323,0.09950000000003456,0.1163000000119041,0.1371000000238496,0.14910000002385004,0.17090000000598593,0.18299999999999272,0.20350000000001955,0.21580000001193866,0.2327000000178714,0.25590000000596547,0.27430000001191956,0.29180000001190365,0.30840000000597456,0.3258000000119523,0.3404000000059568,0.3587000000179046,0.3752000000179123,0.38999999999998636,0.4058000000119364,0.4214000000059741,0.4381000000238373,0.45490000000597774,0.47190000000597365,0.48910000002382503,0.5041000000238682,0.5221000000238405,0.5389000000059809,0.5544000000059555,0.5679000000059773,0.589200000017911,0.6061000000238437,0.621600000023875]",,13,0,13,0,1,,,,
,,,,,,,,,,,,,,,test,2022-09-28_09h42.50.910,GoFitts,2022.1.4,Win32,59.80861244,,,,,"[182.70909152852016,81.34732861516002]","[-161.80339887498948,-117.5570504584946]",48,400,0,"[171.8565673828125,185.21307373046875,185.21307373046875,185.21307373046875,186.0479736328125,186.8826904296875,186.8826904296875,186.8826904296875,186.8826904296875,186.8826904296875,186.8826904296875,186.8826904296875,186.8826904296875,186.8826904296875,186.0479736328125,179.36962890625,154.32623291015625,132.62188720703125,111.7523193359375,95.05657958984375,81.7000732421875,70.01312255859375,46.63916015625,35.7869873046875,-7.6217041015625,-40.17822265625,-67.72601318359375,-90.26519775390625,-108.63037109375,-119.4825439453125,-128.66510009765625,-137.01300048828125,-141.1868896484375,-142.85650634765625,-143.6912841796875,-144.52606201171875,-148.6998291015625,-153.70867919921875]","[80.634765625,84.80865478515625,85.64346313476562,85.64346313476562,85.64346313476562,85.64346313476562,85.64346313476562,85.64346313476562,85.64346313476562,85.64346313476562,85.64346313476562,85.64346313476562,85.64346313476562,85.64346313476562,85.64346313476562,83.97384643554688,74.79129028320312,64.77389526367188,53.921722412109375,40.565185546875,28.04345703125,15.521697998046875,-2.00872802734375,-8.686981201171875,-28.721771240234375,-41.2435302734375,-50.4261474609375,-59.60870361328125,-67.95654296875,-75.46963500976562,-82.14788818359375,-87.15658569335938,-89.660888671875,-91.3304443359375,-91.3304443359375,-92.165283203125,-96.33920288085938,-102.1826171875]","[0,0,0,0,0,0,0,0,0,0,0,0,0,0,0,0,0,0,0,0,0,0,0,0,0,0,0,0,0,0,0,0,0,0,0,0,0,0]","[0,0,0,0,0,0,0,0,0,0,0,0,0,0,0,0,0,0,0,0,0,0,0,0,0,0,0,0,0,0,0,0,0,0,0,0,0,0]","[0,0,0,0,0,0,0,0,0,0,0,0,0,0,0,0,0,0,0,0,0,0,0,0,0,0,0,0,0,0,0,0,0,0,0,0,0,0]","[0.0012999999821090569,0.0294000000059782,0.03440000000597365,0.04800000000000182,0.06550000000004275,0.0819000000059873,0.09809999999407637,0.11509999999407228,0.12850000000003092,0.14449999999999363,0.16129999998213407,0.1777999999821418,0.19469999998807452,0.21119999998808225,0.22879999998212952,0.24679999998215862,0.26650000000000773,0.28300000000001546,0.2995000000000232,0.31590000000596774,0.33369999998808453,0.34990000000595955,0.36719999998808817,0.38329999998211406,0.4001999999881036,0.4162999999821295,0.43279999998213725,0.44890000000600594,0.4662999999821409,0.483799999982125,0.5000999999940632,0.5130000000000337,0.5330000000000155,0.5507999999821322,0.5660999999940373,0.5832999999821595,0.6002999999821554,0.6159000000059791]",,14,0,14,0,1,,,,
,,,,,,,,,,,,,,,test,2022-09-28_09h42.50.910,GoFitts,2022.1.4,Win32,59.80861244,,,,,,,,,0,,,,,,,,,,,,,0,0,0,1
,,,,,,,,,,,,,,,test,2022-09-28_09h42.50.910,GoFitts,2022.1.4,Win32,59.80861244,,,return,0.7377,"[-159.55206298828125,-109.69570922851562]","[83.64132579485731,-92.89310318467426]",71.5,250,1,"[-159.55206298828125,-159.55206298828125,-159.55206298828125,-159.55206298828125,-159.55206298828125,-159.55206298828125,-159.55206298828125,-159.55206298828125,-159.55206298828125,-159.55206298828125,-159.55206298828125,-159.55206298828125,-159.55206298828125,-159.55206298828125,-159.55206298828125,-159.55206298828125,-159.55206298828125,-159.55206298828125,-162.05645751953125,-163.72607421875,-165.3956298828125,-165.3956298828125,-165.3956298828125,-150.36944580078125,-106.12591552734375,-22.647705078125,59.1610107421875]","[-109.69570922851562,-109.69570922851562,-109.69570922851562,-109.69570922851562,-109.69570922851562,-109.69570922851562,-109.69570922851562,-109.69570922851562,-109.69570922851562,-109.69570922851562,-109.69570922851562,-109.69570922851562,-109.69570922851562,-109.69570922851562,-109.69570922851562,-109.69570922851562,-109.69570922851562,-109.69570922851562,-108.02615356445312,-106.35662841796875,-104.68701171875,-104.68701171875,-103.85223388671875,-99.67828369140625,-91.3304443359375,-82.14788818359375,-77.97396850585938]","[0,0,0,0,0,0,0,0,0,0,0,0,0,0,0,0,0,0,0,0,0,0,0,0,0,0,0]","[0,0,0,0,0,0,0,0,0,0,0,0,0,0,0,0,0,0,0,0,0,0,0,0,0,0,0]","[0,0,0,0,0,0,0,0,0,0,0,0,0,0,0,0,0,0,0,0,0,0,0,0,0,0,0]","[0.003900000005955917,0.0501000000238605,0.06530000001191638,0.08199999999999363,0.09870000001785684,0.11680000001194912,0.13670000001786775,0.14920000001785638,0.16599999999999682,0.1868000000119423,0.19950000000000045,0.21560000002386914,0.2374000000059482,0.2532000000178982,0.26580000001195003,0.2882000000178664,0.3034000000059791,0.3157000000178982,0.33890000000593545,0.354900000005955,0.37130000001189956,0.3866000000238614,0.4046000000238337,0.4213000000119109,0.43710000002386096,0.4543000000119264,0.46620000001786366]",,0,0,0,0,1,,,,
,,,,,,,,,,,,,,,test,2022-09-28_09h42.50.910,GoFitts,2022.1.4,Win32,59.80861244,,,,,"[83.64132579485731,-92.89310318467426]","[-101.12712429686842,73.47315653655916]",71.5,250,1,"[59.1610107421875,119.2652587890625,154.32623291015625,170.18701171875,171.02178955078125,171.02178955078125,171.02178955078125,171.02178955078125,171.02178955078125,171.02178955078125,171.02178955078125,170.18701171875,165.17840576171875,158.50006103515625,150.1522216796875,138.46527099609375,121.76959228515625,111.7523193359375,107.57830810546875,96.72613525390625,94.2218017578125,93.38702392578125,93.38702392578125,93.38702392578125,93.38702392578125,93.38702392578125,93.38702392578125,93.38702392578125,93.38702392578125,95.891357421875,100.900146484375,103.4044189453125,103.4044189453125,103.4044189453125,103.4044189453125,103.4044189453125,103.4044189453125,103.4044189453125,103.4044189453125,103.4044189453125,103.4044189453125,103.4044189453125,100.06524658203125,95.891357421875,90.88275146484375,85.87396240234375,77.526123046875,67.50872802734375,59.1610107421875,48.30877685546875,33.28265380859375,9.07403564453125,-4.28253173828125,-12.63031005859375,-20.1434326171875,-30.16082763671875,-41.01300048828125,-52.699951171875,-62.71734619140625,-69.3956298828125,-74.4041748046875]","[-77.97396850585938,-77.97396850585938,-77.97396850585938,-77.97396850585938,-77.97396850585938,-77.97396850585938,-77.97396850585938,-78.8087158203125,-78.8087158203125,-78.8087158203125,-78.8087158203125,-80.478271484375,-82.14788818359375,-85.48703002929688,-90.49566650390625,-96.33920288085938,-105.52178955078125,-108.86093139648438,-109.69570922851562,-111.365234375,-111.365234375,-111.365234375,-111.365234375,-111.365234375,-111.365234375,-111.365234375,-111.365234375,-111.365234375,-111.365234375,-111.365234375,-111.365234375,-111.365234375,-111.365234375,-111.365234375,-111.365234375,-111.365234375,-111.365234375,-111.365234375,-111.365234375,-111.365234375,-111.365234375,-111.365234375,-111.365234375,-111.365234375,-109.69570922851562,-104.68701171875,-97.17398071289062,-88.82611083984375,-82.14788818359375,-70.46087646484375,-57.93914794921875,-36.23480224609375,-21.208740234375,-7.852203369140625,6.339111328125,19.695556640625,28.87823486328125,35.556427001953125,42.2347412109375,47.243438720703125,53.0869140625]","[0,0,0,0,0,0,0,0,0,0,0,0,0,0,0,0,0,0,0,0,0,0,0,0,0,0,0,0,0,0,0,0,0,0,0,0,0,0,0,0,0,0,0,0,0,0,0,0,0,0,0,0,0,0,0,0,0,0,0,0,0]","[0,0,0,0,0,0,0,0,0,0,0,0,0,0,0,0,0,0,0,0,0,0,0,0,0,0,0,0,0,0,0,0,0,0,0,0,0,0,0,0,0,0,0,0,0,0,0,0,0,0,0,0,0,0,0,0,0,0,0,0,0]","[0,0,0,0,0,0,0,0,0,0,0,0,0,0,0,0,0,0,0,0,0,0,0,0,0,0,0,0,0,0,0,0,0,0,0,0,0,0,0,0,0,0,0,0,0,0,0,0,0,0,0,0,0,0,0,0,0,0,0,0,0]","[0.0008000000119636752,0.020100000023830944,0.03820000001792323,0.054500000000018645,0.07160000002386369,0.08690000000598275,0.09880000001192002,0.11810000002384413,0.1367000000179246,0.14930000001191956,0.1668000000119605,0.18370000001789322,0.20490000000597774,0.2176000000238787,0.2379000000059932,0.2540000000000191,0.27180000001192184,0.2873000000119532,0.30140000000596956,0.3199999999999932,0.3369999999999891,0.35390000000597865,0.37000000000000455,0.382900000005975,0.39940000000598275,0.42080000001192275,0.4328000000119232,0.4492000000179246,0.47110000002385277,0.4839000000059741,0.5016000000238705,0.5201000000238309,0.536800000011965,0.5496000000238723,0.570400000005975,0.5829000000059636,0.603600000023846,0.6168000000119491,0.6337000000178818,0.6497000000179014,0.6709999999999923,0.6872000000179241,0.7005000000000337,0.7189999999999941,0.737400000006005,0.7544000000060009,0.7666000000238569,0.7879000000060046,0.8001000000238605,0.8218000000119332,0.8389999999999986,0.8552000000178737,0.8717000000178814,0.8879000000059705,0.9054000000059546,0.9223000000119441,0.93840000000597,0.9552000000178964,0.9710000000000036,0.9888000000119632,1.005700000017896]",,1,0,1,0,1,,,,
,,,,,,,,,,,,,,,test,2022-09-28_09h42.50.910,GoFitts,2022.1.4,Win32,59.80861244,,,,,"[-101.12712429686842,73.47315653655916]","[114.19318220532512,-50.84208038447502]",71.5,250,1,"[-74.4041748046875,-78.57818603515625,-80.247802734375,-82.75213623046875,-86.0911865234375,-88.5955810546875,-91.93475341796875,-93.60430908203125,-93.60430908203125,-93.60430908203125,-93.60430908203125,-93.60430908203125,-93.60430908203125,-93.60430908203125,-93.60430908203125,-93.60430908203125,-93.60430908203125,-93.60430908203125,-91.93475341796875,-79.41302490234375,-71.065185546875,-58.54345703125,-35.16949462890625,1.5609130859375,38.2913818359375,80.03057861328125,95.891357421875]","[53.0869140625,65.60867309570312,69.7825927734375,76.46084594726562,81.46954345703125,83.97384643554688,85.64346313476562,85.64346313476562,85.64346313476562,85.64346313476562,85.64346313476562,85.64346313476562,85.64346313476562,85.64346313476562,85.64346313476562,85.64346313476562,85.64346313476562,85.64346313476562,83.1390380859375,72.28692626953125,64.77389526367188,52.252105712890625,33.052154541015625,13.852142333984375,-0.339202880859375,-14.53045654296875,-22.87835693359375]","[0,0,0,0,0,0,0,0,0,0,0,0,0,0,0,0,0,0,0,0,0,0,0,0,0,0,0]","[0,0,0,0,0,0,0,0,0,0,0,0,0,0,0,0,0,0,0,0,0,0,0,0,0,0,0]","[0,0,0,0,0,0,0,0,0,0,0,0,0,0,0,0,0,0,0,0,0,0,0,0,0,0,0]","[0.0009999999999763531,0.01630000001193821,0.031900000005975926,0.04469999998809726,0.06099999999997863,0.07769999998805588,0.09550000000001546,0.11540000000593409,0.13150000000001683,0.1480999999940309,0.1618000000119082,0.1774000000059459,0.19830000001189774,0.21490000000596865,0.22740000000595728,0.2483000000119091,0.26080000001189774,0.27709999999405,0.29649999999998045,0.31509999999400407,0.3318000000119241,0.3499999999999659,0.36199999999996635,0.38240000000593,0.39980000001190774,0.41550000000000864,0.43200000000001637]",,2,0,2,0,1,,,,
,,,,,,,,,,,,,,,test,2022-09-28_09h42.50.910,GoFitts,2022.1.4,Win32,59.80861244,,,,,"[114.19318220532512,-50.84208038447502]","[-122.26845009172571,25.988961352219913]",71.5,250,1,"[95.891357421875,105.073974609375,111.7523193359375,119.2652587890625,123.439208984375,125.1087646484375,125.94354248046875,125.94354248046875,125.94354248046875,125.94354248046875,125.94354248046875,125.94354248046875,125.94354248046875,125.94354248046875,125.94354248046875,125.94354248046875,125.94354248046875,125.94354248046875,125.94354248046875,125.94354248046875,125.94354248046875,120.934814453125,115.9261474609375,108.4130859375,82.53485107421875,71.68267822265625,49.9783935546875,21.595703125,7.4044189453125,-5.9521484375,-19.30865478515625,-37.67388916015625,-57.70867919921875,-89.430419921875]","[-22.87835693359375,-28.721771240234375,-34.56524658203125,-39.57403564453125,-42.07830810546875,-42.913116455078125,-43.7479248046875,-43.7479248046875,-43.7479248046875,-43.7479248046875,-43.7479248046875,-43.7479248046875,-43.7479248046875,-43.7479248046875,-43.7479248046875,-43.7479248046875,-43.7479248046875,-43.7479248046875,-43.7479248046875,-43.7479248046875,-43.7479248046875,-44.5826416015625,-45.41741943359375,-45.41741943359375,-45.41741943359375,-42.913116455078125,-36.23480224609375,-23.71307373046875,-14.53045654296875,-5.347869873046875,2.165191650390625,8.84344482421875,11.347808837890625,13.852142333984375]","[0,0,0,0,0,0,0,0,0,0,0,0,0,0,0,0,0,0,0,0,0,0,0,0,0,0,0,0,0,0,0,0,0,0]","[0,0,0,0,0,0,0,0,0,0,0,0,0,0,0,0,0,0,0,0,0,0,0,0,0,0,0,0,0,0,0,0,0,0]","[0,0,0,0,0,0,0,0,0,0,0,0,0,0,0,0,0,0,0,0,0,0,0,0,0,0,0,0,0,0,0,0,0,0]","[0.001199999988102718,0.016000000000019554,0.03279999998215999,0.049000000000035016,0.06529999998213043,0.08259999999404499,0.09929999998212224,0.11559999999406045,0.12819999998811227,0.14879999998214544,0.16490000000595728,0.17809999999406045,0.19519999998811954,0.21169999998812727,0.2279000000060023,0.24640000000596274,0.26159999999407546,0.2826999999880968,0.29519999998808544,0.3119000000060055,0.3281999999881009,0.34579999998214817,0.3665999999940368,0.37869999998810044,0.39940000000598275,0.41340000000599275,0.4315000000000282,0.45100000000002183,0.46659999999405954,0.4844000000059623,0.5004000000059818,0.5125000000000455,0.533199999988085,0.5505999999940627]",,3,0,3,0,1,,,,
,,,,,,,,,,,,,,,test,2022-09-28_09h42.50.910,GoFitts,2022.1.4,Win32,59.80861244,,,,,"[-122.26845009172571,25.988961352219913]","[125,0]",71.5,250,1,"[-89.430419921875,-106.96075439453125,-121.15216064453125,-126.99560546875,-139.51727294921875,-142.85650634765625,-144.52606201171875,-144.52606201171875,-146.19561767578125,-146.19561767578125,-146.19561767578125,-146.19561767578125,-146.19561767578125,-146.19561767578125,-146.19561767578125,-146.19561767578125,-146.19561767578125,-146.19561767578125,-146.19561767578125,-139.51727294921875,-128.66510009765625,-113.63909912109375,-98.61297607421875,-87.76080322265625,-69.3956298828125,-55.2042236328125,-37.67388916015625,-19.30865478515625,-0.1085205078125,19.92626953125,39.96099853515625,54.98699951171875,65.00439453125,74.18701171875,85.0391845703125,102.56964111328125]","[13.852142333984375,14.6868896484375,17.1912841796875,18.02606201171875,21.36517333984375,23.034759521484375,23.034759521484375,23.034759521484375,24.704315185546875,24.704315185546875,24.704315185546875,24.704315185546875,24.704315185546875,24.704315185546875,24.704315185546875,24.704315185546875,24.704315185546875,24.704315185546875,24.704315185546875,26.373870849609375,29.7130126953125,31.382568359375,32.21734619140625,32.21734619140625,30.547760009765625,25.5390625,18.86083984375,13.852142333984375,9.678192138671875,7.17388916015625,6.339111328125,4.66949462890625,2.999969482421875,2.165191650390625,2.165191650390625,2.165191650390625]","[0,0,0,0,0,0,0,0,0,0,0,0,0,0,0,0,0,0,0,0,0,0,0,0,0,0,0,0,0,0,0,0,0,0,0,0]","[0,0,0,0,0,0,0,0,0,0,0,0,0,0,0,0,0,0,0,0,0,0,0,0,0,0,0,0,0,0,0,0,0,0,0,0]","[0,0,0,0,0,0,0,0,0,0,0,0,0,0,0,0,0,0,0,0,0,0,0,0,0,0,0,0,0,0,0,0,0,0,0,0]","[0.0009000000059700142,0.016000000000019554,0.030900000005999573,0.044900000005952734,0.06240000000599366,0.08150000000000546,0.09810000002386232,0.11460000002387005,0.12910000002386823,0.1481000000238737,0.16460000002388142,0.17730000001193957,0.19430000001193548,0.21500000000003183,0.22730000001195094,0.24410000002387733,0.2610000000000241,0.27740000000596865,0.29490000000595273,0.3111000000238846,0.33210000002384277,0.3445000000000391,0.36540000000599093,0.37760000002384686,0.3996000000238382,0.4151000000238696,0.4329999999999927,0.44950000000000045,0.4660000000000082,0.48280000001193457,0.49970000001792414,0.5165000000000077,0.5324000000059641,0.5453000000119346,0.5668000000119378,0.5821000000238428]",,4,0,4,0,1,,,,
,,,,,,,,,,,,,,,test,2022-09-28_09h42.50.910,GoFitts,2022.1.4,Win32,59.80861244,,,,,"[125,0]","[-122.26845009172571,-25.98896135221988]",71.5,250,1,"[102.56964111328125,113.42181396484375,124.27398681640625,130.117431640625,137.6304931640625,137.6304931640625,137.6304931640625,137.6304931640625,137.6304931640625,137.6304931640625,137.6304931640625,137.6304931640625,137.6304931640625,137.6304931640625,137.6304931640625,137.6304931640625,137.6304931640625,137.6304931640625,137.6304931640625,137.6304931640625,135.12615966796875,125.1087646484375,106.7435302734375,85.87396240234375,66.6739501953125,49.9783935546875,29.943603515625,14.91741943359375,-0.1085205078125,-18.473876953125,-36.0042724609375,-53.53460693359375,-69.3956298828125,-86.92596435546875]","[2.165191650390625,2.165191650390625,2.165191650390625,2.165191650390625,2.165191650390625,2.165191650390625,2.165191650390625,2.165191650390625,2.165191650390625,2.165191650390625,2.165191650390625,2.165191650390625,2.165191650390625,2.165191650390625,2.165191650390625,2.165191650390625,2.165191650390625,2.165191650390625,2.165191650390625,2.165191650390625,2.165191650390625,-2.00872802734375,-7.017486572265625,-11.191375732421875,-14.53045654296875,-17.034881591796875,-17.869598388671875,-17.869598388671875,-17.869598388671875,-17.869598388671875,-17.869598388671875,-19.539154052734375,-22.043548583984375,-23.71307373046875]","[0,0,0,0,0,0,0,0,0,0,0,0,0,0,0,0,0,0,0,0,0,0,0,0,0,0,0,0,0,0,0,0,0,0]","[0,0,0,0,0,0,0,0,0,0,0,0,0,0,0,0,0,0,0,0,0,0,0,0,0,0,0,0,0,0,0,0,0,0]","[0,0,0,0,0,0,0,0,0,0,0,0,0,0,0,0,0,0,0,0,0,0,0,0,0,0,0,0,0,0,0,0,0,0]","[0.0007999999820640369,0.01659999999401407,0.033499999999946795,0.047899999976152685,0.06609999999403726,0.08389999997615405,0.09909999999399588,0.11179999998211088,0.12879999998210678,0.14539999997612085,0.16609999999400316,0.17879999998211815,0.19929999998208814,0.21179999998207677,0.22869999998806634,0.24569999998806225,0.2622999999820763,0.27889999997614723,0.2951999999880286,0.31329999998206404,0.3294999999999959,0.3502999999820986,0.3628999999761504,0.38459999999400907,0.3975999999939859,0.41449999999997544,0.43479999998208996,0.4512999999820977,0.46699999999998454,0.48379999998206813,0.5006999999880577,0.5168999999761468,0.5298999999761236,0.5496999999880359]",,5,0,5,0,1,,,,
,,,,,,,,,,,,,,,test,2022-09-28_09h42.50.910,GoFitts,2022.1.4,Win32,59.80861244,,,,,"[-122.26845009172571,-25.98896135221988]","[114.19318220532512,50.84208038447502]",71.5,250,1,"[-86.92596435546875,-111.96954345703125,-123.656494140625,-126.99560546875,-126.99560546875,-126.99560546875,-126.99560546875,-126.99560546875,-126.99560546875,-126.99560546875,-126.99560546875,-126.99560546875,-126.99560546875,-126.99560546875,-126.99560546875,-126.99560546875,-126.16082763671875,-119.4825439453125,-111.96954345703125,-102.78692626953125,-93.60430908203125,-81.08258056640625,-66.8912353515625,-52.699951171875,-39.34344482421875,-23.48248291015625,4.9000244140625,28.27398681640625,54.1522216796875,79.1956787109375,98.39569091796875]","[-23.71307373046875,-26.217437744140625,-27.05224609375,-27.05224609375,-27.05224609375,-27.05224609375,-27.05224609375,-27.05224609375,-27.05224609375,-27.05224609375,-27.05224609375,-27.05224609375,-27.05224609375,-27.05224609375,-27.05224609375,-27.05224609375,-27.05224609375,-26.217437744140625,-24.5478515625,-21.208740234375,-17.869598388671875,-15.365264892578125,-11.191375732421875,-6.18267822265625,-2.00872802734375,2.999969482421875,11.347808837890625,18.02606201171875,27.20867919921875,34.721710205078125,41.399932861328125]","[0,0,0,0,0,0,0,0,0,0,0,0,0,0,0,0,0,0,0,0,0,0,0,0,0,0,0,0,0,0,0]","[0,0,0,0,0,0,0,0,0,0,0,0,0,0,0,0,0,0,0,0,0,0,0,0,0,0,0,0,0,0,0]","[0,0,0,0,0,0,0,0,0,0,0,0,0,0,0,0,0,0,0,0,0,0,0,0,0,0,0,0,0,0,0]","[0.0008000000119636752,0.017500000000040927,0.034099999994055,0.050300000011930024,0.06230000001193048,0.07900000000000773,0.09550000000001546,0.11319999998812591,0.1290000000000191,0.14550000000002683,0.1630999999940741,0.1791999999881,0.19559999999404454,0.21350000000001046,0.22950000000003,0.24600000000003774,0.26430000001192866,0.2839000000059855,0.3004000000059932,0.31730000001192593,0.32990000000597774,0.3510999999940623,0.3650000000000091,0.3843000000119332,0.39709999999405454,0.4175999999940814,0.4345000000000141,0.45140000000600367,0.46909999999405727,0.4848000000119441,0.5000999999940632]",,6,0,6,0,1,,,,
,,,,,,,,,,,,,,,test,2022-09-28_09h42.50.910,GoFitts,2022.1.4,Win32,59.80861244,,,,,"[114.19318220532512,50.84208038447502]","[-101.12712429686843,-73.47315653655913]",71.5,250,1,"[98.39569091796875,115.09136962890625,122.6044921875,125.1087646484375,125.94354248046875,125.94354248046875,125.94354248046875,125.94354248046875,128.4478759765625,130.95220947265625,133.4566650390625,134.2913818359375,134.2913818359375,134.2913818359375,134.2913818359375,134.2913818359375,134.2913818359375,134.2913818359375,134.2913818359375,134.2913818359375,134.2913818359375,134.2913818359375,128.4478759765625,123.439208984375,115.09136962890625,105.073974609375,99.23046875,72.5174560546875,51.64801025390625,25.76959228515625,-10.960693359375,-33.4998779296875,-51.86517333984375,-63.5521240234375,-68.56085205078125,-70.23040771484375,-71.065185546875,-73.56951904296875,-76.90863037109375]","[41.399932861328125,48.0782470703125,49.747802734375,49.747802734375,50.58258056640625,50.58258056640625,50.58258056640625,50.58258056640625,52.252105712890625,52.252105712890625,53.0869140625,53.921722412109375,53.921722412109375,53.921722412109375,53.921722412109375,53.921722412109375,53.921722412109375,53.921722412109375,53.921722412109375,53.921722412109375,53.921722412109375,53.921722412109375,53.0869140625,50.58258056640625,48.0782470703125,44.739105224609375,42.2347412109375,28.04345703125,16.356475830078125,2.165191650390625,-14.53045654296875,-24.5478515625,-32.060943603515625,-37.9044189453125,-41.2435302734375,-43.7479248046875,-44.5826416015625,-46.252197265625,-49.59130859375]","[0,0,0,0,0,0,0,0,0,0,0,0,0,0,0,0,0,0,0,0,0,0,0,0,0,0,0,0,0,0,0,0,0,0,0,0,0,0,0]","[0,0,0,0,0,0,0,0,0,0,0,0,0,0,0,0,0,0,0,0,0,0,0,0,0,0,0,0,0,0,0,0,0,0,0,0,0,0,0]","[0,0,0,0,0,0,0,0,0,0,0,0,0,0,0,0,0,0,0,0,0,0,0,0,0,0,0,0,0,0,0,0,0,0,0,0,0,0,0]","[0.0009999999999763531,0.017499999999984084,0.03300000000001546,0.05040000000593636,0.06310000002383731,0.08310000002381912,0.09540000000595228,0.1126000000238605,0.13370000001788185,0.14650000000000318,0.1632000000178664,0.18340000000597456,0.19970000001785593,0.21610000002385732,0.22860000002384595,0.24990000000593682,0.26610000002381184,0.279300000011915,0.2956000000238532,0.3127000000178555,0.32910000002385686,0.34600000000000364,0.36740000000594364,0.38349999999996953,0.4004000000059591,0.417400000005955,0.42950000000001864,0.4514000000059468,0.4636000000238596,0.4844999999999686,0.501300000011895,0.5178000000119027,0.5361000000238505,0.5511000000238369,0.568200000017896,0.58480000001191,0.6003000000119414,0.617999999999995,0.6338000000118882]",,7,0,7,0,1,,,,
,,,,,,,,,,,,,,,test,2022-09-28_09h42.50.910,GoFitts,2022.1.4,Win32,59.80861244,,,,,"[-101.12712429686843,-73.47315653655913]","[83.64132579485728,92.89310318467427]",71.5,250,1,"[-76.90863037109375,-85.25634765625,-91.93475341796875,-97.77813720703125,-101.11737060546875,-101.9521484375,-102.78692626953125,-103.6217041015625,-103.6217041015625,-103.6217041015625,-103.6217041015625,-103.6217041015625,-103.6217041015625,-103.6217041015625,-103.6217041015625,-103.6217041015625,-103.6217041015625,-103.6217041015625,-91.93475341796875,-87.76080322265625,-66.056396484375,-50.19561767578125,-35.16949462890625,-19.30865478515625,-5.9521484375,9.90887451171875,14.91741943359375,28.27398681640625,36.62176513671875,44.9696044921875,50.81317138671875,55.82177734375,60.83050537109375,68.343505859375]","[-49.59130859375,-55.434844970703125,-61.2783203125,-64.61746215820312,-67.12179565429688,-68.79132080078125,-68.79132080078125,-69.6260986328125,-69.6260986328125,-69.6260986328125,-69.6260986328125,-69.6260986328125,-69.6260986328125,-69.6260986328125,-69.6260986328125,-69.6260986328125,-69.6260986328125,-69.6260986328125,-62.11309814453125,-57.1043701171875,-38.7391357421875,-25.38262939453125,-13.6956787109375,-2.843505859375,7.17388916015625,20.530364990234375,25.5390625,38.8956298828125,46.40863037109375,52.252105712890625,56.426055908203125,60.5999755859375,63.939117431640625,67.27816772460938]","[0,0,0,0,0,0,0,0,0,0,0,0,0,0,0,0,0,0,0,0,0,0,0,0,0,0,0,0,0,0,0,0,0,0]","[0,0,0,0,0,0,0,0,0,0,0,0,0,0,0,0,0,0,0,0,0,0,0,0,0,0,0,0,0,0,0,0,0,0]","[0,0,0,0,0,0,0,0,0,0,0,0,0,0,0,0,0,0,0,0,0,0,0,0,0,0,0,0,0,0,0,0,0,0]","[0.0011999999880458745,0.018299999982104964,0.03269999998803996,0.04959999999402953,0.06509999999400407,0.0785999999940259,0.09889999997614041,0.11529999998208496,0.12809999999404909,0.14479999998212634,0.16569999998807816,0.1780999999940036,0.19950000000000045,0.21189999997613995,0.23239999997616678,0.2489999999999668,0.2615999999940186,0.2785999999940145,0.29959999999402953,0.3136999999880459,0.33289999997612085,0.3494999999999777,0.3664999999999736,0.3795999999940136,0.40049999999996544,0.41739999997616906,0.4339999999999691,0.4503999999761277,0.4665999999940027,0.4835999999939986,0.5002999999820759,0.5165000000000077,0.5335000000000036,0.5502999999820872]",,8,0,8,0,1,,,,
,,,,,,,,,,,,,,,test,2022-09-28_09h42.50.910,GoFitts,2022.1.4,Win32,59.80861244,,,,,"[83.64132579485728,92.89310318467427]","[-62.50000000000006,-108.25317547305481]",71.5,250,1,"[68.343505859375,77.526123046875,85.0391845703125,89.21307373046875,90.0478515625,90.0478515625,90.0478515625,90.0478515625,90.0478515625,90.0478515625,90.0478515625,90.0478515625,90.0478515625,90.0478515625,90.0478515625,90.0478515625,90.0478515625,90.0478515625,90.0478515625,90.0478515625,89.21307373046875,78.36090087890625,69.17840576171875,55.82177734375,41.630615234375,26.6043701171875,14.91741943359375,4.9000244140625,-6.78692626953125,-14.2999267578125,-19.30865478515625,-29.3260498046875,-34.33465576171875,-36.839111328125,-39.34344482421875]","[67.27816772460938,71.4521484375,77.29562377929688,80.634765625,82.3043212890625,83.1390380859375,83.1390380859375,83.1390380859375,83.1390380859375,83.1390380859375,83.1390380859375,83.1390380859375,83.1390380859375,83.1390380859375,83.1390380859375,83.1390380859375,83.1390380859375,83.1390380859375,83.1390380859375,83.1390380859375,83.1390380859375,75.62606811523438,63.10430908203125,45.573883056640625,24.704315185546875,4.66949462890625,-11.191375732421875,-24.5478515625,-38.7391357421875,-48.75653076171875,-52.93048095703125,-65.45223999023438,-72.96527099609375,-78.8087158203125,-84.6522216796875]","[0,0,0,0,0,0,0,0,0,0,0,0,0,0,0,0,0,0,0,0,0,0,0,0,0,0,0,0,0,0,0,0,0,0,0]","[0,0,0,0,0,0,0,0,0,0,0,0,0,0,0,0,0,0,0,0,0,0,0,0,0,0,0,0,0,0,0,0,0,0,0]","[0,0,0,0,0,0,0,0,0,0,0,0,0,0,0,0,0,0,0,0,0,0,0,0,0,0,0,0,0,0,0,0,0,0,0]","[0.0009999999999763531,0.015100000023835491,0.027800000011950488,0.048499999999989996,0.06530000001191638,0.08240000000597547,0.09870000001785684,0.11130000001190865,0.13180000001193548,0.14460000002384277,0.1651000000238696,0.1821000000238655,0.19480000001192366,0.2153000000119505,0.22780000001193912,0.24890000000596046,0.2616000000238614,0.27810000002386914,0.29510000002386505,0.31190000000594864,0.3297000000179082,0.34960000002382685,0.3657000000179096,0.38299999999998136,0.39940000000598275,0.41640000000597865,0.42950000000001864,0.4494000000059373,0.4671000000238337,0.48330000001192275,0.4999000000059368,0.5164000000059445,0.5333000000119341,0.5500000000000114,0.5657000000178982]",,9,0,9,0,1,,,,
,,,,,,,,,,,,,,,test,2022-09-28_09h42.50.910,GoFitts,2022.1.4,Win32,59.80861244,,,,,"[-62.50000000000006,-108.25317547305481]","[38.62712429686843,118.88206453689419]",71.5,250,1,"[-39.34344482421875,-42.68243408203125,-46.02166748046875,-48.52606201171875,-51.0303955078125,-55.2042236328125,-58.54345703125,-63.5521240234375,-65.22161865234375,-65.22161865234375,-65.22161865234375,-65.22161865234375,-65.22161865234375,-65.22161865234375,-65.22161865234375,-65.22161865234375,-65.22161865234375,-65.22161865234375,-65.22161865234375,-65.22161865234375,-64.38677978515625,-61.882568359375,-59.37823486328125,-51.86517333984375,-46.8564453125,-41.8477783203125,-35.16949462890625,-31.83026123046875,-28.49127197265625,-25.9869384765625,-23.48248291015625,-20.1434326171875,-16.8043212890625,-10.960693359375,-3.44775390625,0.72613525390625,3.23046875,6.56964111328125,9.07403564453125,12.4130859375]","[-84.6522216796875,-88.82611083984375,-93.00006103515625,-96.33920288085938,-99.67828369140625,-103.85223388671875,-107.19137573242188,-113.86962890625,-116.37396240234375,-116.37396240234375,-116.37396240234375,-116.37396240234375,-116.37396240234375,-116.37396240234375,-116.37396240234375,-116.37396240234375,-116.37396240234375,-116.37396240234375,-116.37396240234375,-115.5391845703125,-109.69570922851562,-88.82611083984375,-77.97396850585938,-39.57403564453125,-13.6956787109375,7.17388916015625,22.199981689453125,31.382568359375,38.8956298828125,43.069549560546875,49.747802734375,53.921722412109375,58.930419921875,64.77389526367188,71.4521484375,76.46084594726562,82.3043212890625,88.9825439453125,93.156494140625,97.33041381835938]","[0,0,0,0,0,0,0,0,0,0,0,0,0,0,0,0,0,0,0,0,0,0,0,0,0,0,0,0,0,0,0,0,0,0,0,0,0,0,0,0]","[0,0,0,0,0,0,0,0,0,0,0,0,0,0,0,0,0,0,0,0,0,0,0,0,0,0,0,0,0,0,0,0,0,0,0,0,0,0,0,0]","[0,0,0,0,0,0,0,0,0,0,0,0,0,0,0,0,0,0,0,0,0,0,0,0,0,0,0,0,0,0,0,0,0,0,0,0,0,0,0,0]","[0.0011999999880458745,0.016199999988032232,0.028599999994014524,0.049899999976162235,0.06199999999995498,0.08359999999402135,0.09529999998210315,0.11629999998211815,0.13349999999996953,0.14929999998207677,0.1620999999940409,0.17849999999998545,0.19549999999998136,0.21159999999400725,0.22889999997613586,0.24579999998206858,0.26179999998208814,0.27879999998208405,0.2955000000000041,0.31279999998207586,0.32919999998807725,0.3490999999939959,0.36319999998806907,0.38369999998803905,0.40069999998803496,0.41709999999403635,0.43009999999401316,0.45139999997616087,0.4677999999821054,0.48469999998803814,0.503399999976125,0.5168999999761468,0.5349999999999682,0.5510999999939941,0.5668999999761581,0.5837999999820909,0.6002999999820986,0.6175999999940132,0.6298999999761463,0.6504999999999654]",,10,0,10,0,1,,,,
,,,,,,,,,,,,,,,test,2022-09-28_09h42.50.910,GoFitts,2022.1.4,Win32,59.80861244,,,,,"[38.62712429686843,118.88206453689419]","[-13.066057908456779,-124.31523692103416]",71.5,250,1,"[12.4130859375,16.5870361328125,22.43048095703125,26.6043701171875,28.27398681640625,29.10882568359375,29.10882568359375,29.10882568359375,29.10882568359375,29.10882568359375,29.10882568359375,29.10882568359375,29.10882568359375,29.10882568359375,29.10882568359375,29.10882568359375,29.10882568359375,29.10882568359375,29.10882568359375,27.439208984375,25.76959228515625,24.934814453125,21.595703125,14.91741943359375,7.4044189453125,4.9000244140625,3.23046875,2.39569091796875,0.72613525390625,-0.1085205078125,-2.6129150390625,-5.11737060546875]","[97.33041381835938,100.66952514648438,105.67822265625,112.35650634765625,117.36520385742188,119.03475952148438,119.03475952148438,119.03475952148438,119.03475952148438,119.03475952148438,119.03475952148438,119.03475952148438,119.03475952148438,119.03475952148438,119.03475952148438,119.03475952148438,119.03475952148438,119.03475952148438,119.03475952148438,115.69558715820312,101.50433349609375,83.1390380859375,56.426055908203125,23.034759521484375,-19.539154052734375,-41.2435302734375,-57.93914794921875,-68.79132080078125,-77.13919067382812,-82.14788818359375,-87.99136352539062,-93.00006103515625]","[0,0,0,0,0,0,0,0,0,0,0,0,0,0,0,0,0,0,0,0,0,0,0,0,0,0,0,0,0,0,0,0]","[0,0,0,0,0,0,0,0,0,0,0,0,0,0,0,0,0,0,0,0,0,0,0,0,0,0,0,0,0,0,0,0]","[0,0,0,0,0,0,0,0,0,0,0,0,0,0,0,0,0,0,0,0,0,0,0,0,0,0,0,0,0,0,0,0]","[0.0014000000059581907,0.015499999999974534,0.027800000011893644,0.049100000023827306,0.06530000001191638,0.0822000000178491,0.09830000001193184,0.11060000002385095,0.1279999999999859,0.14440000000593045,0.1611000000238505,0.17760000002380139,0.19870000001787957,0.21540000000595683,0.22860000002384595,0.24490000000594137,0.26099999999996726,0.2791000000238455,0.29720000001788094,0.31330000001190683,0.33150000000000546,0.34640000000592863,0.3663000000119041,0.38230000001192366,0.40049999999996544,0.416499999999985,0.4329999999999927,0.44990000000592545,0.4671000000238337,0.48399999999998045,0.4995000000000118,0.5159000000059564]",,11,0,11,0,1,,,,
,,,,,,,,,,,,,,,test,2022-09-28_09h42.50.910,GoFitts,2022.1.4,Win32,59.80861244,,,,,"[-13.066057908456779,-124.31523692103416]","[-13.066057908456667,124.31523692103417]",71.5,250,1,"[-5.11737060546875,-6.78692626953125,-8.45648193359375,-9.291259765625,-9.291259765625,-10.12603759765625,-10.12603759765625,-10.12603759765625,-10.12603759765625,-10.960693359375,-11.7955322265625,-12.63031005859375,-12.63031005859375,-12.63031005859375,-12.63031005859375,-12.63031005859375,-12.63031005859375,-12.63031005859375,-12.63031005859375,-12.63031005859375,-12.63031005859375,-12.63031005859375,-12.63031005859375,-13.465087890625,-15.13470458984375,-16.8043212890625,-19.30865478515625,-19.30865478515625,-19.30865478515625]","[-93.00006103515625,-98.00875854492188,-102.1826171875,-103.85223388671875,-107.19137573242188,-108.02615356445312,-108.02615356445312,-109.69570922851562,-114.70440673828125,-118.87832641601562,-122.2174072265625,-123.05218505859375,-123.05218505859375,-123.05218505859375,-123.05218505859375,-123.05218505859375,-123.05218505859375,-123.05218505859375,-120.54788208007812,-111.365234375,-104.68701171875,-67.12179565429688,-34.56524658203125,-3.67828369140625,24.704315185546875,49.747802734375,69.7825927734375,84.80865478515625,94.8260498046875]","[0,0,0,0,0,0,0,0,0,0,0,0,0,0,0,0,0,0,0,0,0,0,0,0,0,0,0,0,0]","[0,0,0,0,0,0,0,0,0,0,0,0,0,0,0,0,0,0,0,0,0,0,0,0,0,0,0,0,0]","[0,0,0,0,0,0,0,0,0,0,0,0,0,0,0,0,0,0,0,0,0,0,0,0,0,0,0,0,0]","[0.001100000023825487,0.01599999999996271,0.02820000001787548,0.049900000005948186,0.06640000000595592,0.08380000001187682,0.09860000002379365,0.1163000000119041,0.13299999999998136,0.14970000001784456,0.1671000000238223,0.18270000001786002,0.19840000000596092,0.2115000000000009,0.22880000001191547,0.24920000001787912,0.2629000000059136,0.2829000000059523,0.2999000000059482,0.31720000001786275,0.33280000001190047,0.34990000000595955,0.3672000000178741,0.3838000000118882,0.4006000000238146,0.417400000005955,0.42999999999995,0.4507000000178323,0.46720000001784]",,12,0,12,0,1,,,,
,,,,,,,,,,,,,,,test,2022-09-28_09h42.50.910,GoFitts,2022.1.4,Win32,59.80861244,,,,,"[-13.066057908456667,124.31523692103417]","[38.6271242968684,-118.8820645368942]",71.5,250,1,"[-19.30865478515625,-20.1434326171875,-20.1434326171875,-20.1434326171875,-20.97821044921875,-20.97821044921875,-20.97821044921875,-20.97821044921875,-21.8128662109375,-22.647705078125,-22.647705078125,-22.647705078125,-22.647705078125,-22.647705078125,-22.647705078125,-22.647705078125,-22.647705078125,-22.647705078125,-22.647705078125,-22.647705078125,-22.647705078125,-21.8128662109375,-15.96954345703125,-9.291259765625,0.72613525390625,6.56964111328125,9.90887451171875,12.4130859375,14.0826416015625,16.5870361328125,19.92626953125,22.43048095703125,24.10003662109375,25.76959228515625,26.6043701171875]","[94.8260498046875,98.16519165039062,99.834716796875,101.50433349609375,103.17388916015625,104.0086669921875,108.18258666992188,112.35650634765625,114.86083984375,116.5303955078125,117.36520385742188,117.36520385742188,117.36520385742188,117.36520385742188,117.36520385742188,117.36520385742188,117.36520385742188,110.68692016601562,102.339111328125,90.65216064453125,71.4521484375,44.739105224609375,16.356475830078125,-8.686981201171875,-39.57403564453125,-52.095703125,-58.77392578125,-64.61746215820312,-68.79132080078125,-72.1304931640625,-76.30441284179688,-78.8087158203125,-81.31304931640625,-83.81744384765625,-86.32180786132812]","[0,0,0,0,0,0,0,0,0,0,0,0,0,0,0,0,0,0,0,0,0,0,0,0,0,0,0,0,0,0,0,0,0,0,0]","[0,0,0,0,0,0,0,0,0,0,0,0,0,0,0,0,0,0,0,0,0,0,0,0,0,0,0,0,0,0,0,0,0,0,0]","[0,0,0,0,0,0,0,0,0,0,0,0,0,0,0,0,0,0,0,0,0,0,0,0,0,0,0,0,0,0,0,0,0,0,0]","[0.0006999999880576979,0.015500000000031378,0.03149999999999409,0.04899999999997817,0.06590000000596774,0.08430000001192184,0.09909999999405272,0.11580000001191593,0.13249999999999318,0.1488000000119314,0.16590000000599048,0.1819000000059532,0.19469999998807452,0.21140000000599457,0.22800000000000864,0.2445999999940227,0.26359999999402817,0.2829000000059523,0.3018000000119514,0.31590000000596774,0.33290000000596365,0.3455999999940218,0.36690000000595546,0.3833000000119,0.39940000000598275,0.416499999999985,0.43319999998806225,0.44950000000000045,0.4661999999880777,0.48359999999405545,0.5,0.5169000000059896,0.5330000000000155,0.5456999999880736,0.5663000000119496]",,13,0,13,0,1,,,,
,,,,,,,,,,,,,,,test,2022-09-28_09h42.50.910,GoFitts,2022.1.4,Win32,59.80861244,,,,,"[38.6271242968684,-118.8820645368942]","[-62.49999999999997,108.25317547305484]",71.5,250,1,"[26.6043701171875,29.10882568359375,30.7784423828125,32.4478759765625,34.117431640625,34.95220947265625,34.95220947265625,35.7869873046875,35.7869873046875,36.62176513671875,36.62176513671875,36.62176513671875,36.62176513671875,36.62176513671875,36.62176513671875,36.62176513671875,36.62176513671875,36.62176513671875,36.62176513671875,36.62176513671875,36.62176513671875,34.95220947265625,31.61322021484375,28.27398681640625,20.76104736328125,12.4130859375,-0.94329833984375,-10.12603759765625,-18.473876953125,-25.152099609375,-32.6650390625,-38.5086669921875,-42.68243408203125,-45.18682861328125,-46.8564453125,-49.36083984375]","[-86.32180786132812,-92.165283203125,-94.66961669921875,-98.84353637695312,-100.5130615234375,-103.0174560546875,-103.0174560546875,-104.68701171875,-106.35662841796875,-107.19137573242188,-108.02615356445312,-108.02615356445312,-108.02615356445312,-108.02615356445312,-108.02615356445312,-108.02615356445312,-108.02615356445312,-108.02615356445312,-108.02615356445312,-108.02615356445312,-108.02615356445312,-103.85223388671875,-97.17398071289062,-87.99136352539062,-75.46963500976562,-57.93914794921875,-33.73046875,-17.034881591796875,-1.173980712890625,13.017364501953125,28.87823486328125,43.069549560546875,56.426055908203125,66.44345092773438,73.95648193359375,81.46954345703125]","[0,0,0,0,0,0,0,0,0,0,0,0,0,0,0,0,0,0,0,0,0,0,0,0,0,0,0,0,0,0,0,0,0,0,0,0]","[0,0,0,0,0,0,0,0,0,0,0,0,0,0,0,0,0,0,0,0,0,0,0,0,0,0,0,0,0,0,0,0,0,0,0,0]","[0,0,0,0,0,0,0,0,0,0,0,0,0,0,0,0,0,0,0,0,0,0,0,0,0,0,0,0,0,0,0,0,0,0,0,0]","[0.0008000000119068318,0.016099999994025893,0.028500000000008185,0.04899999999997817,0.06680000001193775,0.08180000001192411,0.09819999998808271,0.11240000000594819,0.13219999998807452,0.14980000001190774,0.16190000000597138,0.1820999999940227,0.19490000000598684,0.2115999999940641,0.23209999999403408,0.24519999998807407,0.2654000000059682,0.27800000000002,0.29899999999997817,0.31159999999403,0.3324999999999818,0.345699999988085,0.3659000000059791,0.37840000000596774,0.4009000000059473,0.41759999999402453,0.43390000000596274,0.4513000000119405,0.4664000000059332,0.4830000000000041,0.5004999999999882,0.5173000000119146,0.5335000000000036,0.5510999999940509,0.5673000000119259,0.582599999994045]",,14,0,14,0,1,,,,
,,,,,,,,,,,,,,,test,2022-09-28_09h42.50.910,GoFitts,2022.1.4,Win32,59.80861244,,,,,,,,,1,,,,,,,,,,,,,1,0,0,1
,,,,,,,,,,,,,,,test,2022-09-28_09h42.50.910,GoFitts,2022.1.4,Win32,59.80861244,,,return,0.8336,"[-61.04779052734375,113.1912841796875]","[-175.00000000000014,-303.1088913245535]",20,700,2,"[-61.04779052734375,-61.04779052734375,-61.04779052734375,-61.04779052734375,-61.04779052734375,-61.04779052734375,-61.04779052734375,-61.04779052734375,-61.04779052734375,-61.04779052734375,-61.04779052734375,-61.04779052734375,-61.04779052734375,-61.04779052734375,-61.04779052734375,-61.04779052734375,-61.04779052734375,-61.04779052734375,-61.04779052734375,-61.04779052734375,-61.04779052734375,-61.04779052734375,-61.04779052734375,-61.04779052734375,-61.04779052734375,-61.04779052734375,-61.04779052734375,-61.04779052734375,-61.04779052734375,-61.04779052734375,-61.04779052734375,-61.04779052734375,-61.04779052734375,-61.04779052734375,-61.04779052734375,-61.04779052734375,-61.04779052734375,-61.04779052734375,-61.04779052734375,-61.04779052734375,-61.04779052734375,-61.04779052734375,-62.71734619140625,-70.23040771484375,-105.291259765625,-132.839111328125,-152.8739013671875,-164.56085205078125,-170.40423583984375,-173.74346923828125,-175.41302490234375,-175.41302490234375,-175.41302490234375,-175.41302490234375,-173.74346923828125,-171.239013671875,-166.23040771484375,-165.3956298828125,-164.56085205078125,-164.56085205078125,-164.56085205078125,-164.56085205078125,-164.56085205078125,-165.3956298828125,-165.3956298828125,-165.3956298828125,-165.3956298828125,-165.3956298828125,-165.3956298828125,-165.3956298828125,-165.3956298828125,-166.23040771484375,-167.89996337890625,-170.40423583984375]","[113.1912841796875,113.1912841796875,113.1912841796875,113.1912841796875,113.1912841796875,113.1912841796875,113.1912841796875,113.1912841796875,113.1912841796875,113.1912841796875,113.1912841796875,113.1912841796875,113.1912841796875,113.1912841796875,113.1912841796875,113.1912841796875,113.1912841796875,113.1912841796875,113.1912841796875,113.1912841796875,113.1912841796875,113.1912841796875,113.1912841796875,113.1912841796875,113.1912841796875,113.1912841796875,113.1912841796875,113.1912841796875,113.1912841796875,113.1912841796875,113.1912841796875,113.1912841796875,113.1912841796875,113.1912841796875,113.1912841796875,113.1912841796875,113.1912841796875,113.1912841796875,113.1912841796875,113.1912841796875,109.85211181640625,98.99996948242188,78.13037109375,27.20867919921875,-97.17398071289062,-176.478271484375,-231.573974609375,-264.1304931640625,-279.15667724609375,-287.50439453125,-288.3392333984375,-288.3392333984375,-288.3392333984375,-287.50439453125,-285.00006103515625,-279.9913330078125,-274.14788818359375,-272.47833251953125,-271.6435546875,-271.6435546875,-271.6435546875,-272.47833251953125,-276.6522216796875,-280.82611083984375,-282.4957275390625,-285.00006103515625,-287.50439453125,-291.67828369140625,-291.67828369140625,-291.67828369140625,-291.67828369140625,-292.5130615234375,-293.347900390625,-295.0174560546875]","[0,0,0,0,0,0,0,0,0,0,0,0,0,0,0,0,0,0,0,0,0,0,0,0,0,0,0,0,0,0,0,0,0,0,0,0,0,0,0,0,0,0,0,0,0,0,0,0,0,0,0,0,0,0,0,0,0,0,0,0,0,0,0,0,0,0,0,0,0,0,0,0,0,0]","[0,0,0,0,0,0,0,0,0,0,0,0,0,0,0,0,0,0,0,0,0,0,0,0,0,0,0,0,0,0,0,0,0,0,0,0,0,0,0,0,0,0,0,0,0,0,0,0,0,0,0,0,0,0,0,0,0,0,0,0,0,0,0,0,0,0,0,0,0,0,0,0,0,0]","[0,0,0,0,0,0,0,0,0,0,0,0,0,0,0,0,0,0,0,0,0,0,0,0,0,0,0,0,0,0,0,0,0,0,0,0,0,0,0,0,0,0,0,0,0,0,0,0,0,0,0,0,0,0,0,0,0,0,0,0,0,0,0,0,0,0,0,0,0,0,0,0,0,0]","[0.004199999988088621,0.057299999982149075,0.06619999998810044,0.08259999999404499,0.09879999998213407,0.11669999998809999,0.13179999998214953,0.14850000000001273,0.17629999998212043,0.1907999999821186,0.19799999999997908,0.21559999999402635,0.2315999999940459,0.24819999998805997,0.26509999999404954,0.2817999999821268,0.2985999999940532,0.31529999998213043,0.3320999999940568,0.3486999999880709,0.3652999999821418,0.38329999998211406,0.3988999999761518,0.415599999994015,0.43259999999406773,0.44889999997616314,0.4652999999821077,0.4818999999761786,0.49900000000002365,0.5155999999940377,0.5330000000000155,0.5500000000000114,0.5653999999761368,0.5833999999761659,0.5988999999761404,0.61579999998213,0.6321999999880745,0.6486999999880823,0.6653999999761595,0.6837999999821136,0.70059999999404,0.7169999999999845,0.7339999999999804,0.7507999999821209,0.7665000000000077,0.7830999999940218,0.7998999999761622,0.8165000000000191,0.8336999999880845,0.8500000000000227,0.8668999999761695,0.8830999999940445,0.8990999999940641,0.9173999999761691,0.9350999999940655,0.9521999999880677,0.9663999999761472,0.9830000000000041,1.0005999999940514,1.0157999999821072,1.0335999999940668,1.0509999999999877,1.0670999999940705,1.0850999999940427,1.1007999999821436,1.1177999999821395,1.1355999999940423,1.1506999999880918,1.1659999999999968,1.1831999999880622,1.1995999999940636,1.2178999999761686,1.2345999999940318,1.2502999999821327]",,0,0,0,0,1,,,,
,,,,,,,,,,,,,,,test,2022-09-28_09h42.50.910,GoFitts,2022.1.4,Win32,59.80861244,,,,,"[-175.00000000000014,-303.1088913245535]","[108.1559480312316,332.8697807033037]",20,700,2,"[-170.40423583984375,-170.40423583984375,-170.40423583984375,-170.40423583984375,-170.40423583984375,-170.40423583984375,-170.40423583984375,-170.40423583984375,-171.239013671875,-172.0738525390625,-172.0738525390625,-172.0738525390625,-172.0738525390625,-172.0738525390625,-172.0738525390625,-172.0738525390625,-171.239013671875,-168.7347412109375,-161.22161865234375,-142.021728515625,-106.12591552734375,-63.5521240234375,-23.48248291015625,9.07403564453125,33.28265380859375,44.9696044921875,49.1435546875,49.9783935546875,51.64801025390625,57.4913330078125,66.6739501953125,72.5174560546875,77.526123046875,83.36962890625,88.3782958984375,94.2218017578125,98.39569091796875,101.73486328125,102.56964111328125,102.56964111328125,102.56964111328125,104.23919677734375,105.073974609375,105.90875244140625,105.90875244140625,105.90875244140625,106.7435302734375]","[-295.0174560546875,-295.0174560546875,-295.0174560546875,-295.0174560546875,-295.0174560546875,-295.0174560546875,-295.0174560546875,-295.0174560546875,-295.85223388671875,-296.68701171875,-297.52178955078125,-297.52178955078125,-297.52178955078125,-297.52178955078125,-297.52178955078125,-295.85223388671875,-289.17401123046875,-276.6522216796875,-256.61749267578125,-209.86962890625,-123.88702392578125,-19.539154052734375,79.79998779296875,155.76519775390625,207.52171325683594,231.7304229736328,242.5825958251953,247.59129333496094,250.09564208984375,256.7738952636719,265.12171173095703,272.634765625,279.3130187988281,287.6608581542969,296.8434600830078,305.19129943847656,309.3652038574219,312.70433044433594,313.53912353515625,313.53912353515625,313.53912353515625,314.3739013671875,315.20867919921875,316.8782501220703,317.7130241394043,320.2173728942871,323.55651473999023]","[0,0,0,0,0,0,0,0,0,0,0,0,0,0,0,0,0,0,0,0,0,0,0,0,0,0,0,0,0,0,0,0,0,0,0,0,0,0,0,0,0,0,0,0,0,0,0]","[0,0,0,0,0,0,0,0,0,0,0,0,0,0,0,0,0,0,0,0,0,0,0,0,0,0,0,0,0,0,0,0,0,0,0,0,0,0,0,0,0,0,0,0,0,0,0]","[0,0,0,0,0,0,0,0,0,0,0,0,0,0,0,0,0,0,0,0,0,0,0,0,0,0,0,0,0,0,0,0,0,0,0,0,0,0,0,0,0,0,0,0,0,0,0]","[0.0012999999821090569,0.014399999976149047,0.03189999997613313,0.04809999999400816,0.06469999998807907,0.08109999999402362,0.09769999998803769,0.11479999998209678,0.13289999997613222,0.14869999998808225,0.1653999999761595,0.18250000000000455,0.19839999997611812,0.21489999997612586,0.23219999998804042,0.24919999998803632,0.26669999998807725,0.2830999999940218,0.29909999999404135,0.3156999999880554,0.33369999998808453,0.3493999999761286,0.36609999999404863,0.3827999999821259,0.39939999997613995,0.415599999994015,0.4328999999761436,0.4503999999761277,0.4679999999999609,0.48309999999401043,0.49959999999401816,0.5161999999880322,0.5327999999821031,0.5501999999880809,0.5659999999999741,0.5830999999940332,0.5993999999761286,0.6167999999821063,0.6330999999940445,0.6487999999820886,0.6653999999761595,0.6850000000000023,0.700099999993995,0.7161999999880777,0.7327999999820918,0.750399999976139,0.7655999999940377]",,1,0,1,0,1,,,,
